,timestamp,accel_x,accel_y,accel_z,gyro_x,gyro_y,gyro_z,ori_scalar,ori_x,ori_y,ori_z
0,652657152.0,8.809733390808105,-1.8890819549560547,3.3340272903442383,-0.5049505233764648,-0.08309268951416016,0.48044872283935547,0.10988044738769531,-0.23499774932861328,0.9590215682983398,-0.11402511596679688
1,652657152.0,8.794170379638672,-2.0255556106567383,3.6404943466186523,-0.5049505233764648,-0.08309268951416016,0.48044872283935547,0.10988044738769531,-0.23499774932861328,0.9590215682983398,-0.11402511596679688
2,652657216.0,9.433442115783691,-1.7035255432128906,3.684788703918457,-0.5965662002563477,-0.004261016845703125,0.4676647186279297,0.1076364517211914,-0.24013328552246094,0.9585466384887695,-0.10901832580566406
3,652657216.0,9.723149299621582,-1.4102277755737305,3.5339488983154297,-0.5965662002563477,-0.004261016845703125,0.4676647186279297,0.1076364517211914,-0.24013328552246094,0.9585466384887695,-0.10901832580566406
4,652657216.0,9.393936157226562,-1.6664142608642578,3.219101905822754,-0.5965662002563477,-0.004261016845703125,0.4676647186279297,0.1076364517211914,-0.24013328552246094,0.9585466384887695,-0.10901832580566406
5,652657280.0,9.378373146057129,-1.9549245834350586,3.059882164001465,-0.04793834686279297,-0.07350540161132812,0.30786991119384766,0.09818458557128906,-0.25666332244873047,0.9566049575805664,-0.09697723388671875
6,652657280.0,9.555549621582031,-2.0890045166015625,2.9473514556884766,-0.04793834686279297,-0.07350540161132812,0.30786991119384766,0.09818458557128906,-0.25666332244873047,0.9566049575805664,-0.09697723388671875
7,652657280.0,9.650123596191406,-1.9034481048583984,3.3340272903442383,-0.04793834686279297,-0.07350540161132812,0.30786991119384766,0.09818458557128906,-0.25666332244873047,0.9566049575805664,-0.09697723388671875
8,652657280.0,9.632166862487793,-1.6185293197631836,3.093402862548828,-0.04793834686279297,-0.07350540161132812,0.30786991119384766,0.09818458557128906,-0.25666332244873047,0.9566049575805664,-0.09697723388671875
9,652657472.0,10.055953025817871,-2.0483016967773438,2.8515806198120117,-0.04793834686279297,-0.07350540161132812,0.30786991119384766,0.09818458557128906,-0.25666332244873047,0.9566049575805664,-0.09697723388671875
10,652657472.0,10.170878410339355,-1.7071170806884766,2.901860237121582,-0.04793834686279297,-0.07350540161132812,0.30786991119384766,0.09818458557128906,-0.25666332244873047,0.9566049575805664,-0.09697723388671875
11,652657472.0,9.304150581359863,-1.7502145767211914,2.6756019592285156,-0.04793834686279297,-0.07350540161132812,0.30786991119384766,0.09818458557128906,-0.25666332244873047,0.9566049575805664,-0.09697723388671875
12,652657536.0,8.503266334533691,-2.0554847717285156,2.7965126037597656,0.22371196746826172,-0.06391716003417969,-0.1736431121826172,0.08588504791259766,-0.26270580291748047,0.9552230834960938,-0.10547924041748047
13,652657536.0,8.492491722106934,-2.012387275695801,3.0826282501220703,0.22371196746826172,-0.06391716003417969,-0.1736431121826172,0.08588504791259766,-0.26270580291748047,0.9552230834960938,-0.10547924041748047
14,652657728.0,9.226337432861328,-2.597787857055664,2.8036956787109375,-0.10226821899414062,-0.1033334732055664,-0.3238496780395508,0.08195686340332031,-0.25213146209716797,0.9578561782836914,-0.110443115234375
15,652657792.0,9.245491027832031,-2.745035171508789,2.8527774810791016,-0.10226821899414062,-0.1033334732055664,-0.3238496780395508,0.08195686340332031,-0.25213146209716797,0.9578561782836914,-0.110443115234375
16,652657792.0,9.338868141174316,-2.6145477294921875,3.0443201065063477,-0.10226821899414062,-0.1033334732055664,-0.3238496780395508,0.08195686340332031,-0.25213146209716797,0.9578561782836914,-0.110443115234375
17,652657792.0,9.397527694702148,-2.5570850372314453,2.900663375854492,-0.10226821899414062,-0.1033334732055664,-0.3238496780395508,0.08195686340332031,-0.25213146209716797,0.9578561782836914,-0.110443115234375
18,652658048.0,9.126975059509277,-1.890279769897461,2.4792709350585938,-0.05006885528564453,0.07030868530273438,0.0745706558227539,0.08195686340332031,-0.25213146209716797,0.9578561782836914,-0.110443115234375
19,652658048.0,8.844449996948242,-1.8447885513305664,2.5451135635375977,-0.05006885528564453,0.07030868530273438,0.0745706558227539,0.08195686340332031,-0.25213146209716797,0.9578561782836914,-0.110443115234375
20,652658112.0,8.747482299804688,-1.7585945129394531,2.5774364471435547,-0.013848304748535156,0.0287628173828125,0.0170440673828125,-0.610260009765625,-0.24104022979736328,0.7543649673461914,-0.018990516662597656
21,652658240.0,9.110215187072754,-2.2793493270874023,2.6073646545410156,-0.013848304748535156,0.0287628173828125,0.0170440673828125,-0.6128063201904297,-0.2339620590209961,0.7543649673461914,-0.0251617431640625
22,652658240.0,9.276617050170898,-2.1668176651000977,2.6372928619384766,-0.013848304748535156,0.0287628173828125,0.0170440673828125,-0.6128063201904297,-0.2339620590209961,0.7543649673461914,-0.0251617431640625
23,652658304.0,9.352036476135254,-2.0890045166015625,2.5558881759643555,-0.013848304748535156,0.0287628173828125,0.0170440673828125,-0.6128063201904297,-0.2339620590209961,0.7543649673461914,-0.0251617431640625
24,652658304.0,9.192817687988281,-2.138087272644043,2.591801643371582,-0.013848304748535156,0.0287628173828125,0.0170440673828125,-0.6128063201904297,-0.2339620590209961,0.7543649673461914,-0.0251617431640625
25,652658304.0,9.118595123291016,-2.201535224914551,2.5858163833618164,-0.013848304748535156,0.0287628173828125,0.0170440673828125,-0.6128063201904297,-0.2339620590209961,0.7543649673461914,-0.0251617431640625
26,652658368.0,9.28499698638916,-2.15364933013916,2.616941452026367,-0.024501800537109375,-0.024501800537109375,0.031958580017089844,-0.6151800155639648,-0.23223590850830078,0.7528104782104492,-0.029348373413085938
27,652658432.0,9.312531471252441,-1.8711252212524414,2.5786333084106445,0.013848304748535156,-0.05539512634277344,0.02982807159423828,-0.6156549453735352,-0.23201942443847656,0.7525091171264648,-0.02973651885986328
28,652658496.0,9.147326469421387,-1.9369678497314453,2.5834217071533203,0.013848304748535156,-0.05539512634277344,0.02982807159423828,-0.6156549453735352,-0.23201942443847656,0.7525091171264648,-0.02973651885986328
29,652658496.0,9.06592082977295,-2.067455291748047,2.597787857055664,0.013848304748535156,-0.05539512634277344,0.02982807159423828,-0.6156549453735352,-0.23201942443847656,0.7525091171264648,-0.02973651885986328
30,652658496.0,9.247885704040527,-2.007598876953125,2.6983470916748047,0.013848304748535156,-0.05539512634277344,0.02982807159423828,-0.6156549453735352,-0.23201942443847656,0.7525091171264648,-0.02973651885986328
31,652658560.0,9.366402626037598,-1.9249963760375977,2.6145477294921875,-0.4740562438964844,0.013848304748535156,0.05965614318847656,-0.6159563064575195,-0.2274017333984375,0.7536735534667969,-0.02848529815673828
32,652658624.0,9.112608909606934,-2.725881576538086,3.029953956604004,-0.9534406661987305,0.15979385375976562,0.17470836639404297,-0.6203155517578125,-0.2141094207763672,0.7545375823974609,-0.00591278076171875
33,652658688.0,9.14612865447998,-2.6552505493164062,2.905451774597168,-0.9534406661987305,0.15979385375976562,0.17470836639404297,-0.6203155517578125,-0.2141094207763672,0.7545375823974609,-0.00591278076171875
34,652658688.0,9.063526153564453,-2.5810279846191406,2.755809783935547,-0.9534406661987305,0.15979385375976562,0.17470836639404297,-0.6203155517578125,-0.2141094207763672,0.7545375823974609,-0.00591278076171875
35,652658688.0,8.953390121459961,-2.375120162963867,2.874326705932617,-0.9534406661987305,0.15979385375976562,0.17470836639404297,-0.6203155517578125,-0.2141094207763672,0.7545375823974609,-0.00591278076171875
36,652658752.0,8.9450101852417,-2.158437728881836,2.8084840774536133,0.05646038055419922,0.1320962905883789,-0.07776641845703125,-0.6144027709960938,-0.20962047576904297,0.7605791091918945,0.005005836486816406
37,652658880.0,9.142537117004395,-2.2170982360839844,2.065061569213867,0.030893325805664062,0.07030868530273438,-0.053264617919921875,-0.6114683151245117,-0.2072896957397461,0.7636003494262695,0.005005836486816406
38,652658880.0,9.152114868164062,-2.2326602935791016,2.2506179809570312,0.030893325805664062,0.07030868530273438,-0.053264617919921875,-0.6114683151245117,-0.2072896957397461,0.7636003494262695,0.005005836486816406
39,652658880.0,9.131763458251953,-2.2697715759277344,2.284137725830078,0.030893325805664062,0.07030868530273438,-0.053264617919921875,-0.6114683151245117,-0.2072896957397461,0.7636003494262695,0.005005836486816406
40,652658880.0,9.142537117004395,-2.2170982360839844,2.065061569213867,0.030893325805664062,0.07030868530273438,-0.053264617919921875,-0.6114683151245117,-0.2072896957397461,0.7636003494262695,0.005005836486816406
41,652658880.0,9.152114868164062,-2.2326602935791016,2.2506179809570312,0.030893325805664062,0.07030868530273438,-0.053264617919921875,-0.6114683151245117,-0.2072896957397461,0.7636003494262695,0.005005836486816406
42,652658880.0,9.131763458251953,-2.2697715759277344,2.284137725830078,0.030893325805664062,0.07030868530273438,-0.053264617919921875,-0.6114683151245117,-0.2072896957397461,0.7636003494262695,0.005005836486816406
43,652658944.0,8.991698265075684,-2.2374496459960938,2.190760612487793,0.09374523162841797,0.03941535949707031,-0.060721397399902344,-0.6114683151245117,-0.2072896957397461,0.7636003494262695,0.005005836486816406
44,652658944.0,8.97613525390625,-2.163227081298828,2.29132080078125,0.09374523162841797,0.03941535949707031,-0.060721397399902344,-0.6114683151245117,-0.2072896957397461,0.7636003494262695,0.005005836486816406
45,652658944.0,8.991698265075684,-2.2374496459960938,2.190760612487793,0.09374523162841797,0.03941535949707031,-0.060721397399902344,-0.6114683151245117,-0.2072896957397461,0.7636003494262695,0.005005836486816406
46,652658944.0,8.97613525390625,-2.163227081298828,2.29132080078125,0.09374523162841797,0.03941535949707031,-0.060721397399902344,-0.6114683151245117,-0.2072896957397461,0.7636003494262695,0.005005836486816406
47,652658944.0,8.978529930114746,-2.1548471450805664,2.437371253967285,0.09374523162841797,0.03941535949707031,-0.060721397399902344,-0.6114683151245117,-0.2072896957397461,0.7636003494262695,0.005005836486816406
48,652658944.0,9.122185707092285,-2.193155288696289,2.4888477325439453,0.09374523162841797,0.03941535949707031,-0.060721397399902344,-0.6114683151245117,-0.2072896957397461,0.7636003494262695,0.005005836486816406
49,652659008.0,9.110215187072754,-2.2170982360839844,2.4469480514526367,0.09374523162841797,0.03941535949707031,-0.060721397399902344,-0.6114683151245117,-0.2072896957397461,0.7636003494262695,0.005005836486816406
50,652659008.0,8.99409294128418,-2.2997007369995117,2.4804677963256836,0.09374523162841797,0.03941535949707031,-0.060721397399902344,-0.6114683151245117,-0.2072896957397461,0.7636003494262695,0.005005836486816406
51,652659008.0,9.033597946166992,-2.2985029220581055,2.5139875411987305,0.09374523162841797,0.03941535949707031,-0.060721397399902344,-0.6114683151245117,-0.2072896957397461,0.7636003494262695,0.005005836486816406
52,652659072.0,9.079089164733887,-2.312869071960449,2.632504463195801,0.09374523162841797,0.03941535949707031,-0.060721397399902344,-0.6114683151245117,-0.2072896957397461,0.7636003494262695,0.005005836486816406
53,652659072.0,9.089863777160645,-2.316460609436035,2.576239585876465,0.09374523162841797,0.03941535949707031,-0.060721397399902344,-0.6114683151245117,-0.2072896957397461,0.7636003494262695,0.005005836486816406
54,652659072.0,9.073103904724121,-2.3356142044067383,2.6372928619384766,0.09374523162841797,0.03941535949707031,-0.060721397399902344,-0.6114683151245117,-0.2072896957397461,0.7636003494262695,0.005005836486816406
55,652659072.0,9.079089164733887,-2.312869071960449,2.632504463195801,0.09374523162841797,0.03941535949707031,-0.060721397399902344,-0.6114683151245117,-0.2072896957397461,0.7636003494262695,0.005005836486816406
56,652659072.0,9.089863777160645,-2.316460609436035,2.576239585876465,0.09374523162841797,0.03941535949707031,-0.060721397399902344,-0.6114683151245117,-0.2072896957397461,0.7636003494262695,0.005005836486816406
57,652659072.0,9.073103904724121,-2.3356142044067383,2.6372928619384766,0.09374523162841797,0.03941535949707031,-0.060721397399902344,-0.6114683151245117,-0.2072896957397461,0.7636003494262695,0.005005836486816406
58,652659136.0,9.049160957336426,-2.3739233016967773,2.6732072830200195,0.11079025268554688,-0.07670116424560547,-0.05965614318847656,-0.6114683151245117,-0.2072896957397461,0.7636003494262695,0.005005836486816406
59,652659136.0,9.061132431030273,-2.2949113845825195,2.6767988204956055,0.11079025268554688,-0.07670116424560547,-0.05965614318847656,-0.6114683151245117,-0.2072896957397461,0.7636003494262695,0.005005836486816406
60,652659136.0,9.049160957336426,-2.3739233016967773,2.6732072830200195,0.11079025268554688,-0.07670116424560547,-0.05965614318847656,-0.6114683151245117,-0.2072896957397461,0.7636003494262695,0.005005836486816406
61,652659136.0,9.061132431030273,-2.2949113845825195,2.6767988204956055,0.11079025268554688,-0.07670116424560547,-0.05965614318847656,-0.6114683151245117,-0.2072896957397461,0.7636003494262695,0.005005836486816406
62,652659264.0,9.241899490356445,-2.218295097351074,2.7103185653686523,0.07244014739990234,-0.05006885528564453,-0.019174575805664062,-0.6114683151245117,-0.2072896957397461,0.7636003494262695,0.005005836486816406
63,652659264.0,9.302953720092773,-2.1787891387939453,2.778554916381836,0.07244014739990234,-0.05006885528564453,-0.019174575805664062,-0.6114683151245117,-0.2072896957397461,0.7636003494262695,0.005005836486816406
64,652659264.0,9.155706405639648,-2.212308883666992,2.747429847717285,0.07244014739990234,-0.05006885528564453,-0.019174575805664062,-0.6114683151245117,-0.2072896957397461,0.7636003494262695,0.005005836486816406
65,652659264.0,9.241899490356445,-2.218295097351074,2.7103185653686523,0.07244014739990234,-0.05006885528564453,-0.019174575805664062,-0.6114683151245117,-0.2072896957397461,0.7636003494262695,0.005005836486816406
66,652659264.0,9.302953720092773,-2.1787891387939453,2.778554916381836,0.07244014739990234,-0.05006885528564453,-0.019174575805664062,-0.6114683151245117,-0.2072896957397461,0.7636003494262695,0.005005836486816406
67,652659264.0,9.155706405639648,-2.212308883666992,2.747429847717285,0.07244014739990234,-0.05006885528564453,-0.019174575805664062,-0.6114683151245117,-0.2072896957397461,0.7636003494262695,0.005005836486816406
68,652659328.0,9.137748718261719,-2.1883668899536133,2.7067270278930664,0.061786651611328125,-0.019174575805664062,0.012783050537109375,-0.6114683151245117,-0.2072896957397461,0.7636003494262695,0.005005836486816406
69,652659328.0,9.201197624206543,-2.1692123413085938,2.782146453857422,0.061786651611328125,-0.019174575805664062,0.012783050537109375,-0.6114683151245117,-0.2072896957397461,0.7636003494262695,0.005005836486816406
70,652659328.0,9.137748718261719,-2.1883668899536133,2.7067270278930664,0.061786651611328125,-0.019174575805664062,0.012783050537109375,-0.6114683151245117,-0.2072896957397461,0.7636003494262695,0.005005836486816406
71,652659328.0,9.201197624206543,-2.1692123413085938,2.782146453857422,0.061786651611328125,-0.019174575805664062,0.012783050537109375,-0.6114683151245117,-0.2072896957397461,0.7636003494262695,0.005005836486816406
72,652659328.0,9.202394485473633,-2.163227081298828,2.7462329864501953,0.061786651611328125,-0.019174575805664062,0.012783050537109375,-0.6114683151245117,-0.2072896957397461,0.7636003494262695,0.005005836486816406
73,652659392.0,9.155706405639648,-2.1297073364257812,2.7342615127563477,0.08735370635986328,-0.0031957626342773438,0.04474163055419922,-0.6114683151245117,-0.2072896957397461,0.7636003494262695,0.005005836486816406
74,652659392.0,9.083877563476562,-2.135692596435547,2.6803903579711914,0.08735370635986328,-0.0031957626342773438,0.04474163055419922,-0.6114683151245117,-0.2072896957397461,0.7636003494262695,0.005005836486816406
75,652659392.0,9.155706405639648,-2.190760612487793,2.718698501586914,0.08735370635986328,-0.0031957626342773438,0.04474163055419922,-0.6114683151245117,-0.2072896957397461,0.7636003494262695,0.005005836486816406
76,652659456.0,9.18443775177002,-2.0794267654418945,2.7055301666259766,0.03835010528564453,0.014913558959960938,0.06817817687988281,-0.6114683151245117,-0.2072896957397461,0.7636003494262695,0.005005836486816406
77,652659456.0,9.135354995727539,-2.041118621826172,2.6408843994140625,0.03835010528564453,0.014913558959960938,0.06817817687988281,-0.6114683151245117,-0.2072896957397461,0.7636003494262695,0.005005836486816406
78,652659456.0,9.142537117004395,-2.030344009399414,2.628912925720215,0.03835010528564453,0.014913558959960938,0.06817817687988281,-0.6114683151245117,-0.2072896957397461,0.7636003494262695,0.005005836486816406
79,652659520.0,9.210774421691895,-2.067455291748047,2.6552505493164062,0.060721397399902344,0.007456779479980469,0.05113410949707031,-0.6114683151245117,-0.2072896957397461,0.7636003494262695,0.005005836486816406
80,652659520.0,9.201197624206543,-2.1177358627319336,2.632504463195801,0.060721397399902344,0.007456779479980469,0.05113410949707031,-0.6114683151245117,-0.2072896957397461,0.7636003494262695,0.005005836486816406
81,652659520.0,9.190423011779785,-1.971684455871582,2.6109561920166016,0.060721397399902344,0.007456779479980469,0.05113410949707031,-0.6114683151245117,-0.2072896957397461,0.7636003494262695,0.005005836486816406
82,652659520.0,9.079089164733887,-1.9609107971191406,2.594196319580078,0.060721397399902344,0.007456779479980469,0.05113410949707031,-0.6114683151245117,-0.2072896957397461,0.7636003494262695,0.005005836486816406
83,652659584.0,9.132960319519043,-1.9872474670410156,2.638490676879883,0.04687213897705078,-0.004261016845703125,0.02769756317138672,-0.6114683151245117,-0.2072896957397461,0.7636003494262695,0.005005836486816406
84,652659584.0,9.160494804382324,-2.039921760559082,2.667222023010254,0.04687213897705078,-0.004261016845703125,0.02769756317138672,-0.6114683151245117,-0.2072896957397461,0.7636003494262695,0.005005836486816406
85,652659584.0,9.150917053222656,-2.0315418243408203,2.624124526977539,0.04687213897705078,-0.004261016845703125,0.02769756317138672,-0.6114683151245117,-0.2072896957397461,0.7636003494262695,0.005005836486816406
86,652659648.0,9.140143394470215,-1.9740791320800781,2.5738449096679688,0.0745706558227539,-0.005326271057128906,0.030893325805664062,-0.6076698303222656,-0.2141094207763672,0.7644634246826172,-0.02106189727783203
87,652659776.0,9.043174743652344,-2.1117496490478516,2.7282752990722656,0.06391716003417969,-0.005326271057128906,0.0021305084228515625,-0.6065912246704102,-0.21725940704345703,0.7643337249755859,-0.025506973266601562
88,652659776.0,9.006063461303711,-2.193155288696289,2.79172420501709,0.06391716003417969,-0.005326271057128906,0.0021305084228515625,-0.6065912246704102,-0.21725940704345703,0.7643337249755859,-0.025506973266601562
89,652659776.0,8.991698265075684,-2.2685747146606445,2.8084840774536133,0.06391716003417969,-0.005326271057128906,0.0021305084228515625,-0.6065912246704102,-0.21725940704345703,0.7643337249755859,-0.025506973266601562
90,652659840.0,9.053949356079102,-2.310474395751953,2.770174980163574,0.054329872131347656,0.0,0.03515434265136719,-0.6060304641723633,-0.21851158142089844,0.7643775939941406,-0.025981903076171875
91,652659840.0,9.126975059509277,-2.318854331970215,2.745035171508789,0.054329872131347656,0.0,0.03515434265136719,-0.6060304641723633,-0.21851158142089844,0.7643775939941406,-0.025981903076171875
92,652659840.0,9.190423011779785,-2.2901229858398438,2.7989063262939453,0.054329872131347656,0.0,0.03515434265136719,-0.6060304641723633,-0.21851158142089844,0.7643775939941406,-0.025981903076171875
93,652659840.0,9.192817687988281,-2.29132080078125,2.7139101028442383,0.054329872131347656,0.0,0.03515434265136719,-0.6060304641723633,-0.21851158142089844,0.7643775939941406,-0.025981903076171875
94,652659904.0,9.326896667480469,-2.260194778442383,2.6779956817626953,0.054329872131347656,0.0,0.03515434265136719,-0.6060304641723633,-0.21851158142089844,0.7643775939941406,-0.025981903076171875
95,652659904.0,9.371191024780273,-2.2985029220581055,2.6803903579711914,0.054329872131347656,0.0,0.03515434265136719,-0.6060304641723633,-0.21851158142089844,0.7643775939941406,-0.025981903076171875
96,652659904.0,9.295770645141602,-2.253011703491211,2.686375617980957,0.054329872131347656,0.0,0.03515434265136719,-0.6060304641723633,-0.21851158142089844,0.7643775939941406,-0.025981903076171875
97,652659968.0,9.213168144226074,-2.1129465103149414,2.6803903579711914,0.054329872131347656,0.0,0.03515434265136719,-0.6060304641723633,-0.21851158142089844,0.7643775939941406,-0.025981903076171875
98,652659968.0,9.091060638427734,-2.071046829223633,2.6839818954467773,0.054329872131347656,0.0,0.03515434265136719,-0.6060304641723633,-0.21851158142089844,0.7643775939941406,-0.025981903076171875
99,652659968.0,9.103032112121582,-2.0925960540771484,2.6803903579711914,0.054329872131347656,0.0,0.03515434265136719,-0.6060304641723633,-0.21851158142089844,0.7643775939941406,-0.025981903076171875
100,652659968.0,9.091060638427734,-2.071046829223633,2.6839818954467773,0.054329872131347656,0.0,0.03515434265136719,-0.6060304641723633,-0.21851158142089844,0.7643775939941406,-0.025981903076171875
101,652659968.0,9.103032112121582,-2.0925960540771484,2.6803903579711914,0.054329872131347656,0.0,0.03515434265136719,-0.6060304641723633,-0.21851158142089844,0.7643775939941406,-0.025981903076171875
102,652660032.0,9.074300765991211,-2.1416778564453125,2.7019386291503906,0.0745706558227539,-0.0063915252685546875,0.054329872131347656,-0.6060304641723633,-0.21851158142089844,0.7643775939941406,-0.025981903076171875
103,652660032.0,9.028809547424316,-2.135692596435547,2.716303825378418,0.0745706558227539,-0.0063915252685546875,0.054329872131347656,-0.6060304641723633,-0.21851158142089844,0.7643775939941406,-0.025981903076171875
104,652660032.0,9.074300765991211,-2.1416778564453125,2.7019386291503906,0.0745706558227539,-0.0063915252685546875,0.054329872131347656,-0.6060304641723633,-0.21851158142089844,0.7643775939941406,-0.025981903076171875
105,652660032.0,9.028809547424316,-2.135692596435547,2.716303825378418,0.0745706558227539,-0.0063915252685546875,0.054329872131347656,-0.6060304641723633,-0.21851158142089844,0.7643775939941406,-0.025981903076171875
106,652660032.0,9.034794807434082,-2.080624580383301,2.6983470916748047,0.0745706558227539,-0.0063915252685546875,0.054329872131347656,-0.6060304641723633,-0.21851158142089844,0.7643775939941406,-0.025981903076171875
107,652660096.0,9.034794807434082,-2.066258430480957,2.679192543029785,0.04687213897705078,0.0,0.040480613708496094,-0.6060304641723633,-0.21851158142089844,0.7643775939941406,-0.025981903076171875
108,652660096.0,9.081483840942383,-2.029147148132324,2.7330636978149414,0.04687213897705078,0.0,0.040480613708496094,-0.6060304641723633,-0.21851158142089844,0.7643775939941406,-0.025981903076171875
109,652660096.0,9.131763458251953,-2.059075355529785,2.685178756713867,0.04687213897705078,0.0,0.040480613708496094,-0.6060304641723633,-0.21851158142089844,0.7643775939941406,-0.025981903076171875
110,652660160.0,9.057540893554688,-2.029147148132324,2.6552505493164062,0.00852203369140625,0.0010652542114257812,0.033023834228515625,-0.6060304641723633,-0.21851158142089844,0.7643775939941406,-0.025981903076171875
111,652660160.0,9.062329292297363,-2.073441505432129,2.667222023010254,0.00852203369140625,0.0010652542114257812,0.033023834228515625,-0.6060304641723633,-0.21851158142089844,0.7643775939941406,-0.025981903076171875
112,652660288.0,9.19640827178955,-2.1883668899536133,2.6959524154663086,0.02769756317138672,0.012783050537109375,0.0287628173828125,-0.6060304641723633,-0.21851158142089844,0.7643775939941406,-0.025981903076171875
113,652660288.0,9.073103904724121,-2.150057792663574,2.687572479248047,0.02769756317138672,0.012783050537109375,0.0287628173828125,-0.6060304641723633,-0.21851158142089844,0.7643775939941406,-0.025981903076171875
114,652660288.0,8.99648666381836,-2.160832405090332,2.692361831665039,0.02769756317138672,0.012783050537109375,0.0287628173828125,-0.6060304641723633,-0.21851158142089844,0.7643775939941406,-0.025981903076171875
115,652660352.0,8.959375381469727,-2.135692596435547,2.689967155456543,-0.0063915252685546875,0.00852203369140625,-0.012783050537109375,-0.6060304641723633,-0.21851158142089844,0.7643775939941406,-0.025981903076171875
116,652660352.0,8.99648666381836,-2.124917984008789,2.6947555541992188,-0.0063915252685546875,0.00852203369140625,-0.012783050537109375,-0.6060304641723633,-0.21851158142089844,0.7643775939941406,-0.025981903076171875
117,652660352.0,9.021626472473145,-2.1692123413085938,2.751021385192871,-0.0063915252685546875,0.00852203369140625,-0.012783050537109375,-0.6060304641723633,-0.21851158142089844,0.7643775939941406,-0.025981903076171875
118,652660416.0,9.039584159851074,-2.2051267623901367,2.6959524154663086,0.01810932159423828,-0.011717796325683594,-0.05113410949707031,-0.6060304641723633,-0.21851158142089844,0.7643775939941406,-0.025981903076171875
119,652660416.0,9.070709228515625,-2.3032913208007812,2.697150230407715,0.01810932159423828,-0.011717796325683594,-0.05113410949707031,-0.6060304641723633,-0.21851158142089844,0.7643775939941406,-0.025981903076171875
120,652660416.0,9.124580383300781,-2.321249008178711,2.6947555541992188,0.01810932159423828,-0.011717796325683594,-0.05113410949707031,-0.6060304641723633,-0.21851158142089844,0.7643775939941406,-0.025981903076171875
121,652660416.0,9.106623649597168,-2.316460609436035,2.6959524154663086,0.01810932159423828,-0.011717796325683594,-0.05113410949707031,-0.6060304641723633,-0.21851158142089844,0.7643775939941406,-0.025981903076171875
122,652660480.0,9.125777244567871,-2.3044891357421875,2.697150230407715,0.01810932159423828,-0.011717796325683594,-0.05113410949707031,-0.6060304641723633,-0.21851158142089844,0.7643775939941406,-0.025981903076171875
123,652660480.0,9.174860000610352,-2.3296289443969727,2.7462329864501953,0.01810932159423828,-0.011717796325683594,-0.05113410949707031,-0.6060304641723633,-0.21851158142089844,0.7643775939941406,-0.025981903076171875
124,652660480.0,9.091060638427734,-2.321249008178711,2.751021385192871,0.01810932159423828,-0.011717796325683594,-0.05113410949707031,-0.6060304641723633,-0.21851158142089844,0.7643775939941406,-0.025981903076171875
125,652660544.0,9.020429611206055,-2.2733631134033203,2.751021385192871,-0.011717796325683594,-0.019174575805664062,0.009587287902832031,-0.6031818389892578,-0.22835159301757812,0.7636871337890625,-0.02960681915283203
126,652660544.0,9.138946533203125,-2.278151512145996,2.7617950439453125,-0.011717796325683594,-0.019174575805664062,0.009587287902832031,-0.6031818389892578,-0.22835159301757812,0.7636871337890625,-0.02960681915283203
127,652660544.0,9.233519554138184,-2.3056859970092773,2.7761611938476562,-0.011717796325683594,-0.019174575805664062,0.009587287902832031,-0.6031818389892578,-0.22835159301757812,0.7636871337890625,-0.02960681915283203
128,652660608.0,9.11739730834961,-2.296109199523926,2.7617950439453125,0.03621959686279297,-0.01597881317138672,0.014913558959960938,-0.6030950546264648,-0.228912353515625,0.7635574340820312,-0.030038833618164062
129,652660608.0,9.11739730834961,-2.3008975982666016,2.809680938720703,0.03621959686279297,-0.01597881317138672,0.014913558959960938,-0.6030950546264648,-0.228912353515625,0.7635574340820312,-0.030038833618164062
130,652660608.0,9.14612865447998,-2.227871894836426,2.785737991333008,0.03621959686279297,-0.01597881317138672,0.014913558959960938,-0.6030950546264648,-0.228912353515625,0.7635574340820312,-0.030038833618164062
131,652660672.0,9.153311729431152,-2.22188663482666,2.810877799987793,0.014913558959960938,-0.0010652542114257812,0.022370338439941406,-0.6030092239379883,-0.2291717529296875,0.7635574340820312,-0.030124664306640625
132,652660672.0,9.135354995727539,-2.1991405487060547,2.785737991333008,0.014913558959960938,-0.0010652542114257812,0.022370338439941406,-0.6030092239379883,-0.2291717529296875,0.7635574340820312,-0.030124664306640625
133,652660672.0,9.088665962219238,-2.2135066986083984,2.777358055114746,0.014913558959960938,-0.0010652542114257812,0.022370338439941406,-0.6030092239379883,-0.2291717529296875,0.7635574340820312,-0.030124664306640625
134,652660736.0,9.089863777160645,-2.212308883666992,2.7605981826782227,0.0170440673828125,0.0287628173828125,0.052199363708496094,-0.6030092239379883,-0.2291717529296875,0.7635574340820312,-0.030124664306640625
135,652660736.0,9.091060638427734,-2.1787891387939453,2.779752731323242,0.0170440673828125,0.0287628173828125,0.052199363708496094,-0.6030092239379883,-0.2291717529296875,0.7635574340820312,-0.030124664306640625
136,652660736.0,9.06472396850586,-2.0902013778686523,2.752218246459961,0.0170440673828125,0.0287628173828125,0.052199363708496094,-0.6030092239379883,-0.2291717529296875,0.7635574340820312,-0.030124664306640625
137,652660736.0,9.09345531463623,-2.248223304748535,2.8874950408935547,0.0170440673828125,0.0287628173828125,0.052199363708496094,-0.6030092239379883,-0.2291717529296875,0.7635574340820312,-0.030124664306640625
138,652660800.0,9.019232749938965,-2.099778175354004,2.5822248458862305,0.1906881332397461,0.1384878158569336,-0.034089088439941406,-0.6030092239379883,-0.2291717529296875,0.7635574340820312,-0.030124664306640625
139,652660800.0,9.162888526916504,-2.3990631103515625,2.5151853561401367,0.1906881332397461,0.1384878158569336,-0.034089088439941406,-0.6030092239379883,-0.2291717529296875,0.7635574340820312,-0.030124664306640625
140,652660800.0,9.299362182617188,-2.439764976501465,2.2434349060058594,0.1906881332397461,0.1384878158569336,-0.034089088439941406,-0.6030092239379883,-0.2291717529296875,0.7635574340820312,-0.030124664306640625
141,652660864.0,8.922264099121094,-2.03273868560791,2.438568115234375,0.1331615447998047,0.10013771057128906,-0.041545867919921875,-0.6030092239379883,-0.2291717529296875,0.7635574340820312,-0.030124664306640625
142,652660992.0,9.109017372131348,-1.9848527908325195,3.4800777435302734,0.01597881317138672,0.03941535949707031,-0.005326271057128906,-0.6030092239379883,-0.2291717529296875,0.7635574340820312,-0.030124664306640625
143,652660992.0,8.97613525390625,-2.0279502868652344,3.2825498580932617,0.01597881317138672,0.03941535949707031,-0.005326271057128906,-0.6030092239379883,-0.2291717529296875,0.7635574340820312,-0.030124664306640625
144,652660992.0,8.879167556762695,-2.4253997802734375,2.9880542755126953,0.01597881317138672,0.03941535949707031,-0.005326271057128906,-0.6030092239379883,-0.2291717529296875,0.7635574340820312,-0.030124664306640625
145,652661056.0,9.079089164733887,-2.3607540130615234,2.9820690155029297,0.3558082580566406,0.021305084228515625,-0.01810932159423828,-0.6030092239379883,-0.2291717529296875,0.7635574340820312,-0.030124664306640625
146,652661056.0,9.079089164733887,-2.187169075012207,3.0682621002197266,0.3558082580566406,0.021305084228515625,-0.01810932159423828,-0.6030092239379883,-0.2291717529296875,0.7635574340820312,-0.030124664306640625
147,652661056.0,8.912687301635742,-2.0614700317382812,3.311281204223633,0.3558082580566406,0.021305084228515625,-0.01810932159423828,-0.6030092239379883,-0.2291717529296875,0.7635574340820312,-0.030124664306640625
148,652661056.0,9.014443397521973,-2.008795738220215,3.025165557861328,0.3558082580566406,0.021305084228515625,-0.01810932159423828,-0.6030092239379883,-0.2291717529296875,0.7635574340820312,-0.030124664306640625
149,652661120.0,9.052752494812012,-2.036330223083496,2.967702865600586,0.3558082580566406,0.021305084228515625,-0.01810932159423828,-0.6030092239379883,-0.2291717529296875,0.7635574340820312,-0.030124664306640625
150,652661120.0,9.0754976272583,-2.0171756744384766,2.9521398544311523,0.3558082580566406,0.021305084228515625,-0.01810932159423828,-0.6030092239379883,-0.2291717529296875,0.7635574340820312,-0.030124664306640625
151,652661120.0,8.967755317687988,-1.8663368225097656,3.1400909423828125,0.3558082580566406,0.021305084228515625,-0.01810932159423828,-0.6030092239379883,-0.2291717529296875,0.7635574340820312,-0.030124664306640625
152,652661312.0,9.06472396850586,-1.9477424621582031,2.967702865600586,-0.02769756317138672,-0.03515434265136719,0.026632308959960938,-0.6030092239379883,-0.2291717529296875,0.7635574340820312,-0.030124664306640625
153,652661312.0,9.056344032287598,-1.977670669555664,3.0850229263305664,-0.02769756317138672,-0.03515434265136719,0.026632308959960938,-0.6030092239379883,-0.2291717529296875,0.7635574340820312,-0.030124664306640625
154,652661312.0,9.047964096069336,-1.9010534286499023,3.029953956604004,-0.02769756317138672,-0.03515434265136719,0.026632308959960938,-0.6030092239379883,-0.2291717529296875,0.7635574340820312,-0.030124664306640625
155,652661440.0,9.11620044708252,-1.8878850936889648,3.062276840209961,-0.10865974426269531,0.0170440673828125,0.012783050537109375,-0.5886373519897461,-0.2454853057861328,0.7683906555175781,-0.05261039733886719
156,652661504.0,9.041977882385254,-1.977670669555664,3.058685302734375,-0.0287628173828125,0.007456779479980469,-0.0031957626342773438,-0.5886373519897461,-0.24470806121826172,0.7687358856201172,-0.0513153076171875
157,652661504.0,9.06472396850586,-1.8699283599853516,2.989251136779785,-0.0287628173828125,0.007456779479980469,-0.0031957626342773438,-0.5886373519897461,-0.24470806121826172,0.7687358856201172,-0.0513153076171875
158,652661504.0,9.028809547424316,-1.8926734924316406,3.039531707763672,-0.0287628173828125,0.007456779479980469,-0.0031957626342773438,-0.5886373519897461,-0.24470806121826172,0.7687358856201172,-0.0513153076171875
159,652661568.0,9.087469100952148,-1.8998565673828125,3.001222610473633,-0.02982807159423828,0.009587287902832031,-0.019174575805664062,-0.5886373519897461,-0.24431991577148438,0.7688655853271484,-0.05122947692871094
160,652661632.0,9.055146217346191,-1.9357709884643555,2.8898887634277344,-0.02982807159423828,0.009587287902832031,-0.019174575805664062,-0.5886373519897461,-0.24431991577148438,0.7688655853271484,-0.05122947692871094
161,652661632.0,9.055146217346191,-1.9357709884643555,2.8898887634277344,-0.02982807159423828,0.009587287902832031,-0.019174575805664062,-0.5886373519897461,-0.24431991577148438,0.7688655853271484,-0.05122947692871094
162,652661696.0,9.080286026000977,-1.9992189407348633,2.900663375854492,-0.02982807159423828,0.009587287902832031,-0.019174575805664062,-0.5886373519897461,-0.24431991577148438,0.7688655853271484,-0.05122947692871094
163,652661696.0,9.062329292297363,-2.0159788131713867,2.8898887634277344,-0.02982807159423828,0.009587287902832031,-0.019174575805664062,-0.5886373519897461,-0.24431991577148438,0.7688655853271484,-0.05122947692871094
164,652661696.0,9.073103904724121,-2.030344009399414,2.840806007385254,-0.02982807159423828,0.009587287902832031,-0.019174575805664062,-0.5886373519897461,-0.24431991577148438,0.7688655853271484,-0.05122947692871094
165,652661696.0,9.080286026000977,-1.9992189407348633,2.900663375854492,-0.02982807159423828,0.009587287902832031,-0.019174575805664062,-0.5886373519897461,-0.24431991577148438,0.7688655853271484,-0.05122947692871094
166,652661696.0,9.062329292297363,-2.0159788131713867,2.8898887634277344,-0.02982807159423828,0.009587287902832031,-0.019174575805664062,-0.5886373519897461,-0.24431991577148438,0.7688655853271484,-0.05122947692871094
167,652661696.0,9.073103904724121,-2.030344009399414,2.840806007385254,-0.02982807159423828,0.009587287902832031,-0.019174575805664062,-0.5886373519897461,-0.24431991577148438,0.7688655853271484,-0.05122947692871094
168,652661760.0,9.101835250854492,-2.0830183029174805,2.809680938720703,0.0,-0.00852203369140625,-0.021305084228515625,-0.5886373519897461,-0.24431991577148438,0.7688655853271484,-0.05122947692871094
169,652661760.0,9.101835250854492,-2.0830183029174805,2.809680938720703,0.0,-0.00852203369140625,-0.021305084228515625,-0.5886373519897461,-0.24431991577148438,0.7688655853271484,-0.05122947692871094
170,652661760.0,9.098243713378906,-2.0937929153442383,2.853975296020508,0.0,-0.00852203369140625,-0.021305084228515625,-0.5886373519897461,-0.24431991577148438,0.7688655853271484,-0.05122947692871094
171,652661760.0,9.055146217346191,-2.0243587493896484,2.9581260681152344,0.0,-0.00852203369140625,-0.021305084228515625,-0.5886373519897461,-0.24431991577148438,0.7688655853271484,-0.05122947692871094
172,652661824.0,9.079089164733887,-2.0351333618164062,2.9760828018188477,-0.0010652542114257812,-0.022370338439941406,-0.014913558959960938,-0.5886373519897461,-0.24431991577148438,0.7688655853271484,-0.05122947692871094
173,652661824.0,9.077892303466797,-2.029147148132324,2.898268699645996,-0.0010652542114257812,-0.022370338439941406,-0.014913558959960938,-0.5886373519897461,-0.24431991577148438,0.7688655853271484,-0.05122947692871094
174,652661824.0,9.038386344909668,-2.059075355529785,2.91143798828125,-0.0010652542114257812,-0.022370338439941406,-0.014913558959960938,-0.5886373519897461,-0.24431991577148438,0.7688655853271484,-0.05122947692871094
175,652661888.0,9.126975059509277,-2.080624580383301,2.9437599182128906,-0.0010652542114257812,-0.022370338439941406,-0.014913558959960938,-0.5886373519897461,-0.24431991577148438,0.7688655853271484,-0.05122947692871094
176,652661888.0,9.123383522033691,-2.009993553161621,2.9760828018188477,-0.0010652542114257812,-0.022370338439941406,-0.014913558959960938,-0.5886373519897461,-0.24431991577148438,0.7688655853271484,-0.05122947692871094
177,652661888.0,9.104228973388672,-2.041118621826172,2.9521398544311523,-0.0010652542114257812,-0.022370338439941406,-0.014913558959960938,-0.5886373519897461,-0.24431991577148438,0.7688655853271484,-0.05122947692871094
178,652661952.0,9.068314552307129,-2.0554847717285156,2.9760828018188477,0.005326271057128906,-0.00852203369140625,0.014913558959960938,-0.5919609069824219,-0.23607635498046875,0.7691679000854492,-0.04747486114501953
179,652661952.0,9.07669448852539,-2.0279502868652344,2.968899726867676,0.005326271057128906,-0.00852203369140625,0.014913558959960938,-0.5919609069824219,-0.23607635498046875,0.7691679000854492,-0.04747486114501953
180,652662080.0,9.11739730834961,-1.9980220794677734,2.8024978637695312,-0.012783050537109375,-0.01810932159423828,0.019174575805664062,-0.5922622680664062,-0.23655128479003906,0.7687797546386719,-0.04717254638671875
181,652662080.0,9.129368782043457,-2.012387275695801,2.8862972259521484,-0.012783050537109375,-0.01810932159423828,0.019174575805664062,-0.5922622680664062,-0.23655128479003906,0.7687797546386719,-0.04717254638671875
182,652662080.0,9.051554679870605,-2.002810478210449,2.934183120727539,-0.012783050537109375,-0.01810932159423828,0.019174575805664062,-0.5922622680664062,-0.23655128479003906,0.7687797546386719,-0.04717254638671875
183,652662080.0,9.11739730834961,-1.9980220794677734,2.8024978637695312,-0.012783050537109375,-0.01810932159423828,0.019174575805664062,-0.5922622680664062,-0.23655128479003906,0.7687797546386719,-0.04717254638671875
184,652662080.0,9.129368782043457,-2.012387275695801,2.8862972259521484,-0.012783050537109375,-0.01810932159423828,0.019174575805664062,-0.5922622680664062,-0.23655128479003906,0.7687797546386719,-0.04717254638671875
185,652662080.0,9.051554679870605,-2.002810478210449,2.934183120727539,-0.012783050537109375,-0.01810932159423828,0.019174575805664062,-0.5922622680664062,-0.23655128479003906,0.7687797546386719,-0.04717254638671875
186,652662080.0,9.11739730834961,-1.9980220794677734,2.8024978637695312,-0.012783050537109375,-0.01810932159423828,0.019174575805664062,-0.5922622680664062,-0.23655128479003906,0.7687797546386719,-0.04717254638671875
187,652662080.0,9.129368782043457,-2.012387275695801,2.8862972259521484,-0.012783050537109375,-0.01810932159423828,0.019174575805664062,-0.5922622680664062,-0.23655128479003906,0.7687797546386719,-0.04717254638671875
188,652662080.0,9.051554679870605,-2.002810478210449,2.934183120727539,-0.012783050537109375,-0.01810932159423828,0.019174575805664062,-0.5922622680664062,-0.23655128479003906,0.7687797546386719,-0.04717254638671875
189,652662144.0,9.034794807434082,-2.0494985580444336,2.91143798828125,0.005326271057128906,-0.004261016845703125,0.031958580017089844,-0.5922622680664062,-0.23655128479003906,0.7687797546386719,-0.04717254638671875
190,652662144.0,9.086272239685059,-2.029147148132324,2.8336238861083984,0.005326271057128906,-0.004261016845703125,0.031958580017089844,-0.5922622680664062,-0.23655128479003906,0.7687797546386719,-0.04717254638671875
191,652662144.0,9.034794807434082,-2.0494985580444336,2.91143798828125,0.005326271057128906,-0.004261016845703125,0.031958580017089844,-0.5922622680664062,-0.23655128479003906,0.7687797546386719,-0.04717254638671875
192,652662144.0,9.086272239685059,-2.029147148132324,2.8336238861083984,0.005326271057128906,-0.004261016845703125,0.031958580017089844,-0.5922622680664062,-0.23655128479003906,0.7687797546386719,-0.04717254638671875
193,652662144.0,9.034794807434082,-2.0494985580444336,2.91143798828125,0.005326271057128906,-0.004261016845703125,0.031958580017089844,-0.5922622680664062,-0.23655128479003906,0.7687797546386719,-0.04717254638671875
194,652662144.0,9.086272239685059,-2.029147148132324,2.8336238861083984,0.005326271057128906,-0.004261016845703125,0.031958580017089844,-0.5922622680664062,-0.23655128479003906,0.7687797546386719,-0.04717254638671875
195,652662272.0,9.95419692993164,-2.9030580520629883,5.915055274963379,-0.40161609649658203,0.1448802947998047,0.24927902221679688,-0.5884647369384766,-0.22546005249023438,0.7760734558105469,0.025160789489746094
196,652662272.0,10.470162391662598,-4.303708076477051,6.538763999938965,-0.40161609649658203,0.1448802947998047,0.24927902221679688,-0.5884647369384766,-0.22546005249023438,0.7760734558105469,0.025160789489746094
197,652662272.0,11.248302459716797,-6.878750801086426,7.744280815124512,-0.40161609649658203,0.1448802947998047,0.24927902221679688,-0.5884647369384766,-0.22546005249023438,0.7760734558105469,0.025160789489746094
198,652662336.0,11.621809005737305,-8.528406143188477,8.393129348754883,-0.40161609649658203,0.1448802947998047,0.24927902221679688,-0.5710716247558594,-0.21868419647216797,0.7825040817260742,0.11739063262939453
199,652662336.0,11.104645729064941,-11.851659774780273,7.500064849853516,-0.40161609649658203,0.1448802947998047,0.24927902221679688,-0.5710716247558594,-0.21868419647216797,0.7825040817260742,0.11739063262939453
200,652662528.0,4.057098388671875,-6.149694442749023,-0.8775014877319336,0.5486278533935547,2.1572256088256836,7.434706687927246,-0.18886184692382812,-0.639434814453125,0.6357221603393555,0.3889427185058594
201,652662592.0,3.0419254302978516,-5.043539047241211,-1.2174882888793945,0.5486278533935547,2.1572256088256836,7.434706687927246,-0.18886184692382812,-0.639434814453125,0.6357221603393555,0.3889427185058594
202,652662592.0,1.9381647109985352,-2.932986259460449,-1.1875600814819336,0.5486278533935547,2.1572256088256836,7.434706687927246,-0.18886184692382812,-0.639434814453125,0.6357221603393555,0.3889427185058594
203,652662592.0,1.0558748245239258,-2.594196319580078,-0.6584253311157227,0.5486278533935547,2.1572256088256836,7.434706687927246,-0.18886184692382812,-0.639434814453125,0.6357221603393555,0.3889427185058594
204,652662656.0,0.6572275161743164,-2.974885940551758,-0.5351200103759766,0.5486278533935547,2.1572256088256836,7.434706687927246,-0.18886184692382812,-0.639434814453125,0.6357221603393555,0.3889427185058594
205,652662784.0,-5.707950592041016,-5.061496734619141,-6.061105728149414,-4.622323036193848,-6.3502349853515625,1.5137863159179688,-0.18886184692382812,-0.639434814453125,0.6357221603393555,0.3889427185058594
206,652662784.0,-1.952530860900879,-6.524397850036621,0.9624977111816406,-4.622323036193848,-6.3502349853515625,1.5137863159179688,-0.18886184692382812,-0.639434814453125,0.6357221603393555,0.3889427185058594
207,652662784.0,0.9613008499145508,-5.521197319030762,7.13374137878418,-4.622323036193848,-6.3502349853515625,1.5137863159179688,-0.18886184692382812,-0.639434814453125,0.6357221603393555,0.3889427185058594
208,652662848.0,15.105478286743164,-11.50568675994873,15.577150344848633,1.5574636459350586,6.371540069580078,-0.8724775314331055,-0.18886184692382812,-0.639434814453125,0.6357221603393555,0.3889427185058594
209,652662848.0,2.287729263305664,8.964163780212402,19.60312271118164,1.5574636459350586,6.371540069580078,-0.8724775314331055,-0.18886184692382812,-0.639434814453125,0.6357221603393555,0.3889427185058594
210,652662848.0,-20.648223876953125,-11.381184577941895,-3.933793067932129,1.5574636459350586,6.371540069580078,-0.8724775314331055,-0.18886184692382812,-0.639434814453125,0.6357221603393555,0.3889427185058594
211,652662848.0,-11.52603816986084,-0.42977142333984375,6.629746437072754,1.5574636459350586,6.371540069580078,-0.8724775314331055,-0.18886184692382812,-0.639434814453125,0.6357221603393555,0.3889427185058594
212,652662912.0,6.500454902648926,-0.11372756958007812,15.8967866897583,1.5574636459350586,6.371540069580078,-0.8724775314331055,-0.18886184692382812,-0.639434814453125,0.6357221603393555,0.3889427185058594
213,652662912.0,-4.830449104309082,-5.256629943847656,9.277813911437988,1.5574636459350586,6.371540069580078,-0.8724775314331055,-0.18886184692382812,-0.639434814453125,0.6357221603393555,0.3889427185058594
214,652662912.0,-13.662928581237793,-6.0251922607421875,1.9070396423339844,1.5574636459350586,6.371540069580078,-0.8724775314331055,-0.18886184692382812,-0.639434814453125,0.6357221603393555,0.3889427185058594
215,652662976.0,-8.845647811889648,-5.739075660705566,-4.677215576171875,-0.9939212799072266,1.108973503112793,-0.005326271057128906,-0.18886184692382812,-0.639434814453125,0.6357221603393555,0.3889427185058594
216,652662976.0,-11.754691123962402,-5.128536224365234,-10.403122901916504,-0.9939212799072266,1.108973503112793,-0.005326271057128906,-0.18886184692382812,-0.639434814453125,0.6357221603393555,0.3889427185058594
217,652662976.0,-17.6422119140625,-8.075887680053711,-13.950241088867188,-0.9939212799072266,1.108973503112793,-0.005326271057128906,-0.18886184692382812,-0.639434814453125,0.6357221603393555,0.3889427185058594
218,652663040.0,-14.160937309265137,-5.3631744384765625,-12.042004585266113,-1.8674650192260742,-2.618499755859375,0.8117561340332031,-0.18886184692382812,-0.639434814453125,0.6357221603393555,0.3889427185058594
219,652663040.0,-10.345660209655762,-0.38188648223876953,-7.330071449279785,-1.8674650192260742,-2.618499755859375,0.8117561340332031,-0.18886184692382812,-0.639434814453125,0.6357221603393555,0.3889427185058594
220,652663040.0,-9.393936157226562,-0.3890695571899414,-1.9082365036010742,-1.8674650192260742,-2.618499755859375,0.8117561340332031,-0.18886184692382812,-0.639434814453125,0.6357221603393555,0.3889427185058594
221,652663104.0,7.581470489501953,-18.735198974609375,32.26763916015625,-1.8674650192260742,-2.618499755859375,0.8117561340332031,-0.18886184692382812,-0.639434814453125,0.6357221603393555,0.3889427185058594
222,652663104.0,10.553962707519531,14.460221290588379,6.779388427734375,-1.8674650192260742,-2.618499755859375,0.8117561340332031,-0.18886184692382812,-0.639434814453125,0.6357221603393555,0.3889427185058594
223,652663104.0,-11.673285484313965,-8.92705249786377,1.9249963760375977,-1.8674650192260742,-2.618499755859375,0.8117561340332031,-0.18886184692382812,-0.639434814453125,0.6357221603393555,0.3889427185058594
224,652663168.0,-12.141366958618164,-0.11133289337158203,13.234353065490723,2.5034475326538086,2.2871923446655273,-1.9132728576660156,-0.15787410736083984,-0.8803443908691406,0.0258941650390625,0.4465160369873047
225,652663232.0,-1.9345731735229492,-2.225478172302246,3.923018455505371,1.8727912902832031,1.8653345108032227,-3.069120407104492,-0.1343526840209961,-0.869598388671875,0.09697628021240234,0.46520328521728516
226,652663296.0,-1.3336105346679688,-4.9381914138793945,2.0937929153442383,1.8727912902832031,1.8653345108032227,-3.069120407104492,-0.1343526840209961,-0.869598388671875,0.09697628021240234,0.46520328521728516
227,652663296.0,-0.6201162338256836,-4.553910255432129,1.385087013244629,1.8727912902832031,1.8653345108032227,-3.069120407104492,-0.1343526840209961,-0.869598388671875,0.09697628021240234,0.46520328521728516
228,652663296.0,-0.483642578125,-4.300116539001465,0.5111770629882812,1.8727912902832031,1.8653345108032227,-3.069120407104492,-0.1343526840209961,-0.869598388671875,0.09697628021240234,0.46520328521728516
229,652663360.0,0.3914632797241211,-4.971711158752441,-0.4154062271118164,2.5396671295166016,0.4335756301879883,-5.955009460449219,-0.1343526840209961,-0.869598388671875,0.09697628021240234,0.46520328521728516
230,652663360.0,0.9613008499145508,-6.654886245727539,-0.6763820648193359,2.5396671295166016,0.4335756301879883,-5.955009460449219,-0.1343526840209961,-0.869598388671875,0.09697628021240234,0.46520328521728516
231,652663360.0,0.9325695037841797,-5.8982954025268555,-0.3603382110595703,2.5396671295166016,0.4335756301879883,-5.955009460449219,-0.1343526840209961,-0.869598388671875,0.09697628021240234,0.46520328521728516
232,652663424.0,1.347975730895996,-4.471307754516602,-0.08260154724121094,1.6863641738891602,-0.5592803955078125,-6.707109451293945,-0.1343526840209961,-0.869598388671875,0.09697628021240234,0.46520328521728516
233,652663424.0,3.1364994049072266,-8.0148344039917,0.9086265563964844,1.6863641738891602,-0.5592803955078125,-6.707109451293945,-0.1343526840209961,-0.869598388671875,0.09697628021240234,0.46520328521728516
234,652663424.0,3.7350683212280273,-8.511646270751953,1.0582685470581055,1.6863641738891602,-0.5592803955078125,-6.707109451293945,-0.1343526840209961,-0.869598388671875,0.09697628021240234,0.46520328521728516
235,652663488.0,2.5163822174072266,-6.689602851867676,0.988835334777832,1.6863641738891602,-0.5592803955078125,-6.707109451293945,-0.1343526840209961,-0.869598388671875,0.09697628021240234,0.46520328521728516
236,652663488.0,4.796929359436035,-8.385946273803711,1.9992189407348633,1.6863641738891602,-0.5592803955078125,-6.707109451293945,-0.1343526840209961,-0.869598388671875,0.09697628021240234,0.46520328521728516
237,652663488.0,7.467741966247559,-9.901522636413574,3.4872608184814453,1.6863641738891602,-0.5592803955078125,-6.707109451293945,-0.1343526840209961,-0.869598388671875,0.09697628021240234,0.46520328521728516
238,652663488.0,5.663656234741211,-12.472973823547363,4.449759483337402,1.6863641738891602,-0.5592803955078125,-6.707109451293945,-0.1343526840209961,-0.869598388671875,0.09697628021240234,0.46520328521728516
239,652663552.0,4.826857566833496,-10.295380592346191,5.212335586547852,1.6863641738891602,-0.5592803955078125,-6.707109451293945,-0.1343526840209961,-0.869598388671875,0.09697628021240234,0.46520328521728516
240,652663552.0,6.392712593078613,-6.9230451583862305,6.094625473022461,1.6863641738891602,-0.5592803955078125,-6.707109451293945,-0.1343526840209961,-0.869598388671875,0.09697628021240234,0.46520328521728516
241,652663552.0,11.103448867797852,-7.580273628234863,5.783370018005371,1.6863641738891602,-0.5592803955078125,-6.707109451293945,-0.1343526840209961,-0.869598388671875,0.09697628021240234,0.46520328521728516
242,652663552.0,6.392712593078613,-6.9230451583862305,6.094625473022461,1.6863641738891602,-0.5592803955078125,-6.707109451293945,-0.1343526840209961,-0.869598388671875,0.09697628021240234,0.46520328521728516
243,652663552.0,11.103448867797852,-7.580273628234863,5.783370018005371,1.6863641738891602,-0.5592803955078125,-6.707109451293945,-0.1343526840209961,-0.869598388671875,0.09697628021240234,0.46520328521728516
244,652663616.0,16.169734954833984,-7.067898750305176,4.737071990966797,1.6863641738891602,-0.5592803955078125,-6.707109451293945,-0.1343526840209961,-0.869598388671875,0.09697628021240234,0.46520328521728516
245,652663616.0,20.755966186523438,-6.571086883544922,8.480520248413086,1.6863641738891602,-0.5592803955078125,-6.707109451293945,-0.1343526840209961,-0.869598388671875,0.09697628021240234,0.46520328521728516
246,652663616.0,24.19654083251953,-7.626961708068848,14.075940132141113,1.6863641738891602,-0.5592803955078125,-6.707109451293945,-0.1343526840209961,-0.869598388671875,0.09697628021240234,0.46520328521728516
247,652663616.0,16.169734954833984,-7.067898750305176,4.737071990966797,1.6863641738891602,-0.5592803955078125,-6.707109451293945,-0.1343526840209961,-0.869598388671875,0.09697628021240234,0.46520328521728516
248,652663616.0,20.755966186523438,-6.571086883544922,8.480520248413086,1.6863641738891602,-0.5592803955078125,-6.707109451293945,-0.1343526840209961,-0.869598388671875,0.09697628021240234,0.46520328521728516
249,652663616.0,24.19654083251953,-7.626961708068848,14.075940132141113,1.6863641738891602,-0.5592803955078125,-6.707109451293945,-0.1343526840209961,-0.869598388671875,0.09697628021240234,0.46520328521728516
250,652663680.0,20.74040412902832,-5.111776351928711,13.209213256835938,-0.8671512603759766,-1.4637174606323242,-1.6746463775634766,-0.1343526840209961,-0.869598388671875,0.09697628021240234,0.46520328521728516
251,652663680.0,14.394378662109375,-3.4441633224487305,6.568692207336426,-0.8671512603759766,-1.4637174606323242,-1.6746463775634766,-0.1343526840209961,-0.869598388671875,0.09697628021240234,0.46520328521728516
252,652663680.0,11.542798042297363,-3.899075508117676,6.827274322509766,-0.8671512603759766,-1.4637174606323242,-1.6746463775634766,-0.1343526840209961,-0.869598388671875,0.09697628021240234,0.46520328521728516
253,652663680.0,20.74040412902832,-5.111776351928711,13.209213256835938,-0.8671512603759766,-1.4637174606323242,-1.6746463775634766,-0.1343526840209961,-0.869598388671875,0.09697628021240234,0.46520328521728516
254,652663680.0,14.394378662109375,-3.4441633224487305,6.568692207336426,-0.8671512603759766,-1.4637174606323242,-1.6746463775634766,-0.1343526840209961,-0.869598388671875,0.09697628021240234,0.46520328521728516
255,652663680.0,11.542798042297363,-3.899075508117676,6.827274322509766,-0.8671512603759766,-1.4637174606323242,-1.6746463775634766,-0.1343526840209961,-0.869598388671875,0.09697628021240234,0.46520328521728516
256,652663744.0,9.878776550292969,-2.658841133117676,6.164059638977051,-3.058466911315918,-0.322784423828125,1.8610734939575195,-0.1343526840209961,-0.869598388671875,0.09697628021240234,0.46520328521728516
257,652663744.0,8.650513648986816,-1.5251522064208984,6.644111633300781,-3.058466911315918,-0.322784423828125,1.8610734939575195,-0.1343526840209961,-0.869598388671875,0.09697628021240234,0.46520328521728516
258,652663744.0,9.878776550292969,-2.658841133117676,6.164059638977051,-3.058466911315918,-0.322784423828125,1.8610734939575195,-0.1343526840209961,-0.869598388671875,0.09697628021240234,0.46520328521728516
259,652663744.0,8.650513648986816,-1.5251522064208984,6.644111633300781,-3.058466911315918,-0.322784423828125,1.8610734939575195,-0.1343526840209961,-0.869598388671875,0.09697628021240234,0.46520328521728516
260,652663936.0,9.252674102783203,-1.2426280975341797,3.059882164001465,0.19281864166259766,0.3973550796508789,1.055708885192871,-0.1343526840209961,-0.869598388671875,0.09697628021240234,0.46520328521728516
261,652664000.0,9.45499038696289,-1.511983871459961,2.686375617980957,0.19281864166259766,0.3973550796508789,1.055708885192871,-0.1343526840209961,-0.869598388671875,0.09697628021240234,0.46520328521728516
262,652664000.0,9.220351219177246,-1.638880729675293,2.597787857055664,0.19281864166259766,0.3973550796508789,1.055708885192871,-0.1343526840209961,-0.869598388671875,0.09697628021240234,0.46520328521728516
263,652664000.0,9.050357818603516,-1.6855688095092773,2.473285675048828,0.19281864166259766,0.3973550796508789,1.055708885192871,-0.1343526840209961,-0.869598388671875,0.09697628021240234,0.46520328521728516
264,652664064.0,9.06472396850586,-1.6305007934570312,2.248223304748535,0.23436450958251953,0.00852203369140625,0.29615211486816406,-0.1343526840209961,-0.869598388671875,0.09697628021240234,0.46520328521728516
265,652664064.0,9.074300765991211,-1.5311384201049805,2.405048370361328,0.23436450958251953,0.00852203369140625,0.29615211486816406,-0.1343526840209961,-0.869598388671875,0.09697628021240234,0.46520328521728516
266,652664064.0,9.247885704040527,-1.3360052108764648,2.6085615158081055,0.23436450958251953,0.00852203369140625,0.29615211486816406,-0.1343526840209961,-0.869598388671875,0.09697628021240234,0.46520328521728516
267,652664064.0,9.329291343688965,-0.98284912109375,2.7965126037597656,0.23436450958251953,0.00852203369140625,0.29615211486816406,-0.1343526840209961,-0.869598388671875,0.09697628021240234,0.46520328521728516
268,652664064.0,9.074300765991211,-1.5311384201049805,2.405048370361328,0.23436450958251953,0.00852203369140625,0.29615211486816406,-0.1343526840209961,-0.869598388671875,0.09697628021240234,0.46520328521728516
269,652664064.0,9.247885704040527,-1.3360052108764648,2.6085615158081055,0.23436450958251953,0.00852203369140625,0.29615211486816406,-0.1343526840209961,-0.869598388671875,0.09697628021240234,0.46520328521728516
270,652664064.0,9.329291343688965,-0.98284912109375,2.7965126037597656,0.23436450958251953,0.00852203369140625,0.29615211486816406,-0.1343526840209961,-0.869598388671875,0.09697628021240234,0.46520328521728516
271,652664064.0,9.074300765991211,-1.5311384201049805,2.405048370361328,0.23436450958251953,0.00852203369140625,0.29615211486816406,-0.1343526840209961,-0.869598388671875,0.09697628021240234,0.46520328521728516
272,652664064.0,9.247885704040527,-1.3360052108764648,2.6085615158081055,0.23436450958251953,0.00852203369140625,0.29615211486816406,-0.1343526840209961,-0.869598388671875,0.09697628021240234,0.46520328521728516
273,652664064.0,9.329291343688965,-0.98284912109375,2.7965126037597656,0.23436450958251953,0.00852203369140625,0.29615211486816406,-0.1343526840209961,-0.869598388671875,0.09697628021240234,0.46520328521728516
274,652664128.0,9.2550687789917,-1.0199604034423828,2.5570850372314453,0.23436450958251953,0.00852203369140625,0.29615211486816406,-0.1343526840209961,-0.869598388671875,0.09697628021240234,0.46520328521728516
275,652664128.0,9.118595123291016,-1.3934669494628906,2.510396957397461,0.23436450958251953,0.00852203369140625,0.29615211486816406,-0.1343526840209961,-0.869598388671875,0.09697628021240234,0.46520328521728516
276,652664128.0,9.2550687789917,-1.0199604034423828,2.5570850372314453,0.23436450958251953,0.00852203369140625,0.29615211486816406,-0.1343526840209961,-0.869598388671875,0.09697628021240234,0.46520328521728516
277,652664128.0,9.118595123291016,-1.3934669494628906,2.510396957397461,0.23436450958251953,0.00852203369140625,0.29615211486816406,-0.1343526840209961,-0.869598388671875,0.09697628021240234,0.46520328521728516
278,652664128.0,9.2550687789917,-1.0199604034423828,2.5570850372314453,0.23436450958251953,0.00852203369140625,0.29615211486816406,-0.1343526840209961,-0.869598388671875,0.09697628021240234,0.46520328521728516
279,652664128.0,9.118595123291016,-1.3934669494628906,2.510396957397461,0.23436450958251953,0.00852203369140625,0.29615211486816406,-0.1343526840209961,-0.869598388671875,0.09697628021240234,0.46520328521728516
280,652664384.0,9.438230514526367,-2.005204200744629,2.846792221069336,0.05859088897705078,-0.16831684112548828,0.06391716003417969,-0.6112089157104492,-0.26801395416259766,0.7390432357788086,-0.09140968322753906
281,652664384.0,9.061132431030273,-1.8639421463012695,2.9784774780273438,0.05859088897705078,-0.16831684112548828,0.06391716003417969,-0.6112089157104492,-0.26801395416259766,0.7390432357788086,-0.09140968322753906
282,652664384.0,9.050357818603516,-1.886688232421875,3.0754451751708984,0.05859088897705078,-0.16831684112548828,0.06391716003417969,-0.6112089157104492,-0.26801395416259766,0.7390432357788086,-0.09140968322753906
283,652664448.0,9.203591346740723,-1.7753543853759766,3.026362419128418,0.05859088897705078,-0.16831684112548828,0.06391716003417969,-0.6110801696777344,-0.2703876495361328,0.7382230758666992,-0.09222984313964844
284,652664576.0,8.894729614257812,-1.8256340026855469,2.747429847717285,-0.010652542114257812,0.05965614318847656,-0.057525634765625,-0.6110801696777344,-0.2703876495361328,0.7382230758666992,-0.09222984313964844
285,652664576.0,9.043174743652344,-2.0159788131713867,2.783344268798828,-0.010652542114257812,0.05965614318847656,-0.057525634765625,-0.6110801696777344,-0.2703876495361328,0.7382230758666992,-0.09222984313964844
286,652664576.0,9.190423011779785,-2.062666893005371,2.654052734375,-0.010652542114257812,0.05965614318847656,-0.057525634765625,-0.6110801696777344,-0.2703876495361328,0.7382230758666992,-0.09222984313964844
287,652664576.0,9.238308906555176,-1.9609107971191406,2.4804677963256836,-0.010652542114257812,0.05965614318847656,-0.057525634765625,-0.6110801696777344,-0.2703876495361328,0.7382230758666992,-0.09222984313964844
288,652664576.0,8.894729614257812,-1.8256340026855469,2.747429847717285,-0.010652542114257812,0.05965614318847656,-0.057525634765625,-0.6110801696777344,-0.2703876495361328,0.7382230758666992,-0.09222984313964844
289,652664576.0,9.043174743652344,-2.0159788131713867,2.783344268798828,-0.010652542114257812,0.05965614318847656,-0.057525634765625,-0.6110801696777344,-0.2703876495361328,0.7382230758666992,-0.09222984313964844
290,652664576.0,9.190423011779785,-2.062666893005371,2.654052734375,-0.010652542114257812,0.05965614318847656,-0.057525634765625,-0.6110801696777344,-0.2703876495361328,0.7382230758666992,-0.09222984313964844
291,652664576.0,9.238308906555176,-1.9609107971191406,2.4804677963256836,-0.010652542114257812,0.05965614318847656,-0.057525634765625,-0.6110801696777344,-0.2703876495361328,0.7382230758666992,-0.09222984313964844
292,652664640.0,9.11500358581543,-1.9010534286499023,2.5056076049804688,-0.06604766845703125,0.041545867919921875,-0.04367637634277344,-0.6110801696777344,-0.2703876495361328,0.7382230758666992,-0.09222984313964844
293,652664640.0,9.11500358581543,-1.9010534286499023,2.5056076049804688,-0.06604766845703125,0.041545867919921875,-0.04367637634277344,-0.6110801696777344,-0.2703876495361328,0.7382230758666992,-0.09222984313964844
294,652664832.0,9.124580383300781,-2.105764389038086,2.5091991424560547,-0.06391716003417969,0.04687213897705078,-0.052199363708496094,-0.6007213592529297,-0.26974010467529297,0.7474164962768555,-0.08800029754638672
295,652664832.0,9.109017372131348,-2.1105527877807617,2.5558881759643555,-0.06391716003417969,0.04687213897705078,-0.052199363708496094,-0.6007213592529297,-0.26974010467529297,0.7474164962768555,-0.08800029754638672
296,652664832.0,9.124580383300781,-2.105764389038086,2.5091991424560547,-0.06391716003417969,0.04687213897705078,-0.052199363708496094,-0.6007213592529297,-0.26974010467529297,0.7474164962768555,-0.08800029754638672
297,652664832.0,9.109017372131348,-2.1105527877807617,2.5558881759643555,-0.06391716003417969,0.04687213897705078,-0.052199363708496094,-0.6007213592529297,-0.26974010467529297,0.7474164962768555,-0.08800029754638672
298,652664832.0,9.124580383300781,-2.105764389038086,2.5091991424560547,-0.06391716003417969,0.04687213897705078,-0.052199363708496094,-0.6007213592529297,-0.26974010467529297,0.7474164962768555,-0.08800029754638672
299,652664832.0,9.109017372131348,-2.1105527877807617,2.5558881759643555,-0.06391716003417969,0.04687213897705078,-0.052199363708496094,-0.6007213592529297,-0.26974010467529297,0.7474164962768555,-0.08800029754638672
300,652664896.0,9.070709228515625,-2.164423942565918,2.6133499145507812,-0.06391716003417969,0.04687213897705078,-0.052199363708496094,-0.6007213592529297,-0.26974010467529297,0.7474164962768555,-0.08800029754638672
301,652664896.0,9.16648006439209,-2.1811838150024414,2.7246837615966797,-0.06391716003417969,0.04687213897705078,-0.052199363708496094,-0.6007213592529297,-0.26974010467529297,0.7474164962768555,-0.08800029754638672
302,652664896.0,9.195211410522461,-2.0602731704711914,2.7282752990722656,-0.06391716003417969,0.04687213897705078,-0.052199363708496094,-0.6007213592529297,-0.26974010467529297,0.7474164962768555,-0.08800029754638672
303,652664896.0,9.070709228515625,-2.164423942565918,2.6133499145507812,-0.06391716003417969,0.04687213897705078,-0.052199363708496094,-0.6007213592529297,-0.26974010467529297,0.7474164962768555,-0.08800029754638672
304,652664896.0,9.16648006439209,-2.1811838150024414,2.7246837615966797,-0.06391716003417969,0.04687213897705078,-0.052199363708496094,-0.6007213592529297,-0.26974010467529297,0.7474164962768555,-0.08800029754638672
305,652664896.0,9.195211410522461,-2.0602731704711914,2.7282752990722656,-0.06391716003417969,0.04687213897705078,-0.052199363708496094,-0.6007213592529297,-0.26974010467529297,0.7474164962768555,-0.08800029754638672
306,652664896.0,9.070709228515625,-2.164423942565918,2.6133499145507812,-0.06391716003417969,0.04687213897705078,-0.052199363708496094,-0.6007213592529297,-0.26974010467529297,0.7474164962768555,-0.08800029754638672
307,652664896.0,9.16648006439209,-2.1811838150024414,2.7246837615966797,-0.06391716003417969,0.04687213897705078,-0.052199363708496094,-0.6007213592529297,-0.26974010467529297,0.7474164962768555,-0.08800029754638672
308,652664896.0,9.195211410522461,-2.0602731704711914,2.7282752990722656,-0.06391716003417969,0.04687213897705078,-0.052199363708496094,-0.6007213592529297,-0.26974010467529297,0.7474164962768555,-0.08800029754638672
309,652665152.0,9.197606086730957,-2.0530900955200195,2.813272476196289,0.0170440673828125,-0.04687213897705078,-0.025567054748535156,-0.6024484634399414,-0.26697826385498047,0.747157096862793,-0.08661937713623047
310,652665152.0,9.222745895385742,-1.9968242645263672,2.807286262512207,0.0170440673828125,-0.04687213897705078,-0.025567054748535156,-0.6024484634399414,-0.26697826385498047,0.747157096862793,-0.08661937713623047
311,652665152.0,9.204788208007812,-2.073441505432129,2.745035171508789,0.0170440673828125,-0.04687213897705078,-0.025567054748535156,-0.6024484634399414,-0.26697826385498047,0.747157096862793,-0.08661937713623047
312,652665216.0,9.23471736907959,-1.9800643920898438,2.7282752990722656,-0.0031957626342773438,0.03621959686279297,-0.05006885528564453,-0.6024484634399414,-0.26697826385498047,0.747157096862793,-0.08661937713623047
313,652665216.0,9.183239936828613,-1.9226016998291016,2.729473114013672,-0.0031957626342773438,0.03621959686279297,-0.05006885528564453,-0.6024484634399414,-0.26697826385498047,0.747157096862793,-0.08661937713623047
314,652665216.0,9.079089164733887,-1.9740791320800781,2.656447410583496,-0.0031957626342773438,0.03621959686279297,-0.05006885528564453,-0.6024484634399414,-0.26697826385498047,0.747157096862793,-0.08661937713623047
315,652665216.0,9.079089164733887,-1.9740791320800781,2.656447410583496,-0.0031957626342773438,0.03621959686279297,-0.05006885528564453,-0.6024484634399414,-0.26697826385498047,0.747157096862793,-0.08661937713623047
316,652665280.0,9.067117691040039,-2.000415802001953,2.626519203186035,-0.0010652542114257812,0.014913558959960938,-0.030893325805664062,-0.6024484634399414,-0.26697826385498047,0.747157096862793,-0.08661937713623047
317,652665280.0,9.165283203125,-1.9740791320800781,2.597787857055664,-0.0010652542114257812,0.014913558959960938,-0.030893325805664062,-0.6024484634399414,-0.26697826385498047,0.747157096862793,-0.08661937713623047
318,652665280.0,9.199999809265137,-1.9477424621582031,2.570253372192383,-0.0010652542114257812,0.014913558959960938,-0.030893325805664062,-0.6024484634399414,-0.26697826385498047,0.747157096862793,-0.08661937713623047
319,652665280.0,9.067117691040039,-2.000415802001953,2.626519203186035,-0.0010652542114257812,0.014913558959960938,-0.030893325805664062,-0.6024484634399414,-0.26697826385498047,0.747157096862793,-0.08661937713623047
320,652665280.0,9.165283203125,-1.9740791320800781,2.597787857055664,-0.0010652542114257812,0.014913558959960938,-0.030893325805664062,-0.6024484634399414,-0.26697826385498047,0.747157096862793,-0.08661937713623047
321,652665280.0,9.199999809265137,-1.9477424621582031,2.570253372192383,-0.0010652542114257812,0.014913558959960938,-0.030893325805664062,-0.6024484634399414,-0.26697826385498047,0.747157096862793,-0.08661937713623047
322,652665344.0,9.188028335571289,-1.919011116027832,2.536733627319336,-0.013848304748535156,0.013848304748535156,-0.0287628173828125,-0.6024484634399414,-0.26697826385498047,0.747157096862793,-0.08661937713623047
323,652665344.0,9.188028335571289,-1.919011116027832,2.536733627319336,-0.013848304748535156,0.013848304748535156,-0.0287628173828125,-0.6024484634399414,-0.26697826385498047,0.747157096862793,-0.08661937713623047
324,652665344.0,9.140143394470215,-1.9824590682983398,2.508002281188965,-0.013848304748535156,0.013848304748535156,-0.0287628173828125,-0.6024484634399414,-0.26697826385498047,0.747157096862793,-0.08661937713623047
325,652665344.0,9.156903266906738,-2.047104835510254,2.4912424087524414,-0.013848304748535156,0.013848304748535156,-0.0287628173828125,-0.6024484634399414,-0.26697826385498047,0.747157096862793,-0.08661937713623047
326,652665344.0,9.140143394470215,-1.9824590682983398,2.508002281188965,-0.013848304748535156,0.013848304748535156,-0.0287628173828125,-0.6024484634399414,-0.26697826385498047,0.747157096862793,-0.08661937713623047
327,652665344.0,9.156903266906738,-2.047104835510254,2.4912424087524414,-0.013848304748535156,0.013848304748535156,-0.0287628173828125,-0.6024484634399414,-0.26697826385498047,0.747157096862793,-0.08661937713623047
328,652665408.0,9.227534294128418,-2.008795738220215,2.4912424087524414,-0.013848304748535156,0.013848304748535156,-0.0287628173828125,-0.6024484634399414,-0.26697826385498047,0.747157096862793,-0.08661937713623047
329,652665408.0,9.210774421691895,-1.945347785949707,2.511593818664551,-0.013848304748535156,0.013848304748535156,-0.0287628173828125,-0.6024484634399414,-0.26697826385498047,0.747157096862793,-0.08661937713623047
330,652665408.0,9.155706405639648,-1.880702018737793,2.572648048400879,-0.013848304748535156,0.013848304748535156,-0.0287628173828125,-0.6024484634399414,-0.26697826385498047,0.747157096862793,-0.08661937713623047
331,652665408.0,9.227534294128418,-2.008795738220215,2.4912424087524414,-0.013848304748535156,0.013848304748535156,-0.0287628173828125,-0.6024484634399414,-0.26697826385498047,0.747157096862793,-0.08661937713623047
332,652665408.0,9.210774421691895,-1.945347785949707,2.511593818664551,-0.013848304748535156,0.013848304748535156,-0.0287628173828125,-0.6024484634399414,-0.26697826385498047,0.747157096862793,-0.08661937713623047
333,652665408.0,9.155706405639648,-1.880702018737793,2.572648048400879,-0.013848304748535156,0.013848304748535156,-0.0287628173828125,-0.6024484634399414,-0.26697826385498047,0.747157096862793,-0.08661937713623047
334,652665472.0,9.129368782043457,-1.822042465209961,2.5834217071533203,0.020239830017089844,-0.031958580017089844,-0.023435592651367188,-0.6024484634399414,-0.26697826385498047,0.747157096862793,-0.08661937713623047
335,652665472.0,9.140143394470215,-1.8998565673828125,2.5510988235473633,0.020239830017089844,-0.031958580017089844,-0.023435592651367188,-0.6024484634399414,-0.26697826385498047,0.747157096862793,-0.08661937713623047
336,652665472.0,9.165283203125,-1.9465446472167969,2.628912925720215,0.020239830017089844,-0.031958580017089844,-0.023435592651367188,-0.6024484634399414,-0.26697826385498047,0.747157096862793,-0.08661937713623047
337,652665472.0,9.18563461303711,-1.9465446472167969,2.6480674743652344,0.020239830017089844,-0.031958580017089844,-0.023435592651367188,-0.6024484634399414,-0.26697826385498047,0.747157096862793,-0.08661937713623047
338,652665536.0,9.148523330688477,-1.8663368225097656,2.65285587310791,0.033023834228515625,-0.033023834228515625,-0.011717796325683594,-0.6024484634399414,-0.26697826385498047,0.747157096862793,-0.08661937713623047
339,652665536.0,9.23591423034668,-1.8435907363891602,2.6432790756225586,0.033023834228515625,-0.033023834228515625,-0.011717796325683594,-0.6024484634399414,-0.26697826385498047,0.747157096862793,-0.08661937713623047
340,652665536.0,9.28380012512207,-1.916616439819336,2.6360960006713867,0.033023834228515625,-0.033023834228515625,-0.011717796325683594,-0.6024484634399414,-0.26697826385498047,0.747157096862793,-0.08661937713623047
341,652665600.0,9.28739070892334,-1.8531684875488281,2.6696157455444336,0.033023834228515625,-0.033023834228515625,-0.011717796325683594,-0.6024484634399414,-0.26697826385498047,0.747157096862793,-0.08661937713623047
342,652665600.0,9.243097305297852,-1.7801427841186523,2.663630485534668,0.033023834228515625,-0.033023834228515625,-0.011717796325683594,-0.6024484634399414,-0.26697826385498047,0.747157096862793,-0.08661937713623047
343,652665600.0,9.21556282043457,-1.8615484237670898,2.6744041442871094,0.033023834228515625,-0.033023834228515625,-0.011717796325683594,-0.6024484634399414,-0.26697826385498047,0.747157096862793,-0.08661937713623047
344,652665664.0,9.268237113952637,-1.8687305450439453,2.689967155456543,-0.020239830017089844,-0.01597881317138672,0.014913558959960938,-0.6021461486816406,-0.26395702362060547,0.7481069564819336,-0.08977031707763672
345,652665664.0,9.226337432861328,-1.8388023376464844,2.725881576538086,-0.020239830017089844,-0.01597881317138672,0.014913558959960938,-0.6021461486816406,-0.26395702362060547,0.7481069564819336,-0.08977031707763672
346,652665664.0,9.21556282043457,-1.786128044128418,2.6779956817626953,-0.020239830017089844,-0.01597881317138672,0.014913558959960938,-0.6021461486816406,-0.26395702362060547,0.7481069564819336,-0.08977031707763672
347,652665728.0,9.16648006439209,-1.8304224014282227,2.6396875381469727,-0.030893325805664062,-0.0010652542114257812,0.0063915252685546875,-0.6022319793701172,-0.26369762420654297,0.7481927871704102,-0.08899307250976562
348,652665728.0,9.129368782043457,-1.8663368225097656,2.6720104217529297,-0.030893325805664062,-0.0010652542114257812,0.0063915252685546875,-0.6022319793701172,-0.26369762420654297,0.7481927871704102,-0.08899307250976562
349,652665728.0,9.18563461303711,-1.8268308639526367,2.661235809326172,-0.030893325805664062,-0.0010652542114257812,0.0063915252685546875,-0.6022319793701172,-0.26369762420654297,0.7481927871704102,-0.08899307250976562
350,652665728.0,9.271828651428223,-1.756199836730957,2.6552505493164062,-0.030893325805664062,-0.0010652542114257812,0.0063915252685546875,-0.6022319793701172,-0.26369762420654297,0.7481927871704102,-0.08899307250976562
351,652665792.0,9.279010772705078,-1.789719581604004,2.5774364471435547,-0.030893325805664062,-0.0010652542114257812,0.0063915252685546875,-0.6022319793701172,-0.26369762420654297,0.7481927871704102,-0.08899307250976562
352,652665792.0,9.160494804382324,-1.8328170776367188,2.5822248458862305,-0.030893325805664062,-0.0010652542114257812,0.0063915252685546875,-0.6022319793701172,-0.26369762420654297,0.7481927871704102,-0.08899307250976562
353,652665792.0,9.16408634185791,-1.8603506088256836,2.588210105895996,-0.030893325805664062,-0.0010652542114257812,0.0063915252685546875,-0.6022319793701172,-0.26369762420654297,0.7481927871704102,-0.08899307250976562
354,652665856.0,9.273025512695312,-1.8100709915161133,2.6193361282348633,-0.030893325805664062,-0.0010652542114257812,0.0063915252685546875,-0.6022319793701172,-0.26369762420654297,0.7481927871704102,-0.08899307250976562
355,652665856.0,9.326896667480469,-1.824437141418457,2.5678586959838867,-0.030893325805664062,-0.0010652542114257812,0.0063915252685546875,-0.6022319793701172,-0.26369762420654297,0.7481927871704102,-0.08899307250976562
356,652665856.0,9.21556282043457,-1.8292255401611328,2.5475082397460938,-0.030893325805664062,-0.0010652542114257812,0.0063915252685546875,-0.6022319793701172,-0.26369762420654297,0.7481927871704102,-0.08899307250976562
357,652665920.0,9.170071601867676,-1.857956886291504,2.60257625579834,-0.030893325805664062,-0.0010652542114257812,0.0063915252685546875,-0.6022319793701172,-0.26369762420654297,0.7481927871704102,-0.08899307250976562
358,652665920.0,9.231125831604004,-1.8711252212524414,2.6073646545410156,-0.030893325805664062,-0.0010652542114257812,0.0063915252685546875,-0.6022319793701172,-0.26369762420654297,0.7481927871704102,-0.08899307250976562
359,652665920.0,9.227534294128418,-1.8603506088256836,2.554690361022949,-0.030893325805664062,-0.0010652542114257812,0.0063915252685546875,-0.6022319793701172,-0.26369762420654297,0.7481927871704102,-0.08899307250976562
360,652665920.0,9.227534294128418,-1.8603506088256836,2.554690361022949,-0.030893325805664062,-0.0010652542114257812,0.0063915252685546875,-0.6022319793701172,-0.26369762420654297,0.7481927871704102,-0.08899307250976562
361,652665984.0,9.23711109161377,-1.884293556213379,2.5678586959838867,-0.030893325805664062,-0.0010652542114257812,0.0063915252685546875,-0.6022319793701172,-0.26369762420654297,0.7481927871704102,-0.08899307250976562
362,652665984.0,9.252674102783203,-1.9022512435913086,2.5858163833618164,-0.030893325805664062,-0.0010652542114257812,0.0063915252685546875,-0.6022319793701172,-0.26369762420654297,0.7481927871704102,-0.08899307250976562
363,652665984.0,9.257462501525879,-1.8124656677246094,2.6181392669677734,-0.030893325805664062,-0.0010652542114257812,0.0063915252685546875,-0.6022319793701172,-0.26369762420654297,0.7481927871704102,-0.08899307250976562
364,652665984.0,9.23711109161377,-1.884293556213379,2.5678586959838867,-0.030893325805664062,-0.0010652542114257812,0.0063915252685546875,-0.6022319793701172,-0.26369762420654297,0.7481927871704102,-0.08899307250976562
365,652665984.0,9.252674102783203,-1.9022512435913086,2.5858163833618164,-0.030893325805664062,-0.0010652542114257812,0.0063915252685546875,-0.6022319793701172,-0.26369762420654297,0.7481927871704102,-0.08899307250976562
366,652665984.0,9.257462501525879,-1.8124656677246094,2.6181392669677734,-0.030893325805664062,-0.0010652542114257812,0.0063915252685546875,-0.6022319793701172,-0.26369762420654297,0.7481927871704102,-0.08899307250976562
367,652666048.0,9.245491027832031,-1.789719581604004,2.6181392669677734,-0.007456779479980469,-0.00852203369140625,-0.007456779479980469,-0.6033115386962891,-0.2608928680419922,0.748408317565918,-0.08843231201171875
368,652666048.0,9.245491027832031,-1.789719581604004,2.6181392669677734,-0.007456779479980469,-0.00852203369140625,-0.007456779479980469,-0.6033115386962891,-0.2608928680419922,0.748408317565918,-0.08843231201171875
369,652666112.0,9.18443775177002,-1.8687305450439453,2.554690361022949,-0.025567054748535156,0.005326271057128906,-0.012783050537109375,-0.6032676696777344,-0.2608928680419922,0.7484951019287109,-0.0883026123046875
370,652666176.0,9.205986022949219,-1.880702018737793,2.5463104248046875,-0.004261016845703125,-0.007456779479980469,-0.013848304748535156,-0.6032676696777344,-0.2608928680419922,0.7484951019287109,-0.0883026123046875
371,652666176.0,9.259857177734375,-1.8627452850341797,2.53433895111084,-0.004261016845703125,-0.007456779479980469,-0.013848304748535156,-0.6032676696777344,-0.2608928680419922,0.7484951019287109,-0.0883026123046875
372,652666176.0,9.308939933776855,-1.856760025024414,2.576239585876465,-0.004261016845703125,-0.007456779479980469,-0.013848304748535156,-0.6032676696777344,-0.2608928680419922,0.7484951019287109,-0.0883026123046875
373,652666240.0,9.30774211883545,-1.8256340026855469,2.5127906799316406,-0.03835010528564453,0.0063915252685546875,0.011717796325683594,-0.6032676696777344,-0.2608928680419922,0.7484951019287109,-0.0883026123046875
374,652666240.0,9.261054039001465,-1.8388023376464844,2.535536766052246,-0.03835010528564453,0.0063915252685546875,0.011717796325683594,-0.6032676696777344,-0.2608928680419922,0.7484951019287109,-0.0883026123046875
375,652666240.0,9.274222373962402,-1.9106311798095703,2.539128303527832,-0.03835010528564453,0.0063915252685546875,0.011717796325683594,-0.6032676696777344,-0.2608928680419922,0.7484951019287109,-0.0883026123046875
376,652666304.0,9.304150581359863,-1.8747167587280273,2.5091991424560547,-0.02982807159423828,0.009587287902832031,0.012783050537109375,-0.6032676696777344,-0.2608928680419922,0.7484951019287109,-0.0883026123046875
377,652666304.0,9.222745895385742,-1.7406368255615234,2.554690361022949,-0.02982807159423828,0.009587287902832031,0.012783050537109375,-0.6032676696777344,-0.2608928680419922,0.7484951019287109,-0.0883026123046875
378,652666304.0,9.188028335571289,-1.7609882354736328,2.5475082397460938,-0.02982807159423828,0.009587287902832031,0.012783050537109375,-0.6032676696777344,-0.2608928680419922,0.7484951019287109,-0.0883026123046875
379,652666368.0,9.229928970336914,-1.8052825927734375,2.5870132446289062,-0.034089088439941406,0.0,-0.0021305084228515625,-0.6032676696777344,-0.2608928680419922,0.7484951019287109,-0.0883026123046875
380,652666368.0,9.220351219177246,-1.818450927734375,2.5139875411987305,-0.034089088439941406,0.0,-0.0021305084228515625,-0.6032676696777344,-0.2608928680419922,0.7484951019287109,-0.0883026123046875
381,652666368.0,9.158100128173828,-1.8615484237670898,2.522367477416992,-0.034089088439941406,0.0,-0.0021305084228515625,-0.6032676696777344,-0.2608928680419922,0.7484951019287109,-0.0883026123046875
382,652666368.0,9.178451538085938,-1.822042465209961,2.5187768936157227,-0.034089088439941406,0.0,-0.0021305084228515625,-0.6032676696777344,-0.2608928680419922,0.7484951019287109,-0.0883026123046875
383,652666432.0,9.228731155395508,-1.818450927734375,2.554690361022949,-0.034089088439941406,0.0,-0.0021305084228515625,-0.6032676696777344,-0.2608928680419922,0.7484951019287109,-0.0883026123046875
384,652666432.0,9.295770645141602,-1.824437141418457,2.5678586959838867,-0.034089088439941406,0.0,-0.0021305084228515625,-0.6032676696777344,-0.2608928680419922,0.7484951019287109,-0.0883026123046875
385,652666432.0,9.244294166564941,-1.8052825927734375,2.5534934997558594,-0.034089088439941406,0.0,-0.0021305084228515625,-0.6032676696777344,-0.2608928680419922,0.7484951019287109,-0.0883026123046875
386,652666496.0,9.11739730834961,-1.8519706726074219,2.536733627319336,-0.034089088439941406,0.0,-0.0021305084228515625,-0.6032676696777344,-0.2608928680419922,0.7484951019287109,-0.0883026123046875
387,652666496.0,9.190423011779785,-1.9261932373046875,2.5415220260620117,-0.034089088439941406,0.0,-0.0021305084228515625,-0.6032676696777344,-0.2608928680419922,0.7484951019287109,-0.0883026123046875
388,652666496.0,9.342459678649902,-1.9285879135131836,2.5463104248046875,-0.034089088439941406,0.0,-0.0021305084228515625,-0.6032676696777344,-0.2608928680419922,0.7484951019287109,-0.0883026123046875
389,652666560.0,9.316122055053711,-1.9010534286499023,2.5415220260620117,-0.024501800537109375,-0.0021305084228515625,-0.009587287902832031,-0.6032676696777344,-0.2608928680419922,0.7484951019287109,-0.0883026123046875
390,652666752.0,9.273025512695312,-1.8818998336791992,2.4900455474853516,-0.034089088439941406,0.0021305084228515625,0.0021305084228515625,-0.6044769287109375,-0.25700855255126953,0.7493581771850586,-0.08407306671142578
391,652666752.0,9.273025512695312,-1.8818998336791992,2.4900455474853516,-0.034089088439941406,0.0021305084228515625,0.0021305084228515625,-0.6044769287109375,-0.25700855255126953,0.7493581771850586,-0.08407306671142578
392,652666752.0,9.273025512695312,-1.8818998336791992,2.4900455474853516,-0.034089088439941406,0.0021305084228515625,0.0021305084228515625,-0.6044769287109375,-0.25700855255126953,0.7493581771850586,-0.08407306671142578
393,652666816.0,9.296968460083008,-1.854365348815918,2.474482536315918,-0.034089088439941406,0.0021305084228515625,0.0021305084228515625,-0.6044769287109375,-0.25700855255126953,0.7493581771850586,-0.08407306671142578
394,652666816.0,9.301756858825684,-1.856760025024414,2.4936370849609375,-0.034089088439941406,0.0021305084228515625,0.0021305084228515625,-0.6044769287109375,-0.25700855255126953,0.7493581771850586,-0.08407306671142578
395,652666816.0,9.228731155395508,-1.9573192596435547,2.468496322631836,-0.034089088439941406,0.0021305084228515625,0.0021305084228515625,-0.6044769287109375,-0.25700855255126953,0.7493581771850586,-0.08407306671142578
396,652666816.0,9.204788208007812,-1.9333763122558594,2.497227668762207,-0.034089088439941406,0.0021305084228515625,0.0021305084228515625,-0.6044769287109375,-0.25700855255126953,0.7493581771850586,-0.08407306671142578
397,652666816.0,9.296968460083008,-1.854365348815918,2.474482536315918,-0.034089088439941406,0.0021305084228515625,0.0021305084228515625,-0.6044769287109375,-0.25700855255126953,0.7493581771850586,-0.08407306671142578
398,652666816.0,9.301756858825684,-1.856760025024414,2.4936370849609375,-0.034089088439941406,0.0021305084228515625,0.0021305084228515625,-0.6044769287109375,-0.25700855255126953,0.7493581771850586,-0.08407306671142578
399,652666816.0,9.228731155395508,-1.9573192596435547,2.468496322631836,-0.034089088439941406,0.0021305084228515625,0.0021305084228515625,-0.6044769287109375,-0.25700855255126953,0.7493581771850586,-0.08407306671142578
400,652666816.0,9.204788208007812,-1.9333763122558594,2.497227668762207,-0.034089088439941406,0.0021305084228515625,0.0021305084228515625,-0.6044769287109375,-0.25700855255126953,0.7493581771850586,-0.08407306671142578
401,652666816.0,9.296968460083008,-1.854365348815918,2.474482536315918,-0.034089088439941406,0.0021305084228515625,0.0021305084228515625,-0.6044769287109375,-0.25700855255126953,0.7493581771850586,-0.08407306671142578
402,652666816.0,9.301756858825684,-1.856760025024414,2.4936370849609375,-0.034089088439941406,0.0021305084228515625,0.0021305084228515625,-0.6044769287109375,-0.25700855255126953,0.7493581771850586,-0.08407306671142578
403,652666816.0,9.228731155395508,-1.9573192596435547,2.468496322631836,-0.034089088439941406,0.0021305084228515625,0.0021305084228515625,-0.6044769287109375,-0.25700855255126953,0.7493581771850586,-0.08407306671142578
404,652666816.0,9.204788208007812,-1.9333763122558594,2.497227668762207,-0.034089088439941406,0.0021305084228515625,0.0021305084228515625,-0.6044769287109375,-0.25700855255126953,0.7493581771850586,-0.08407306671142578
405,652666944.0,9.68603801727295,-1.5024070739746094,3.5124006271362305,-0.08948421478271484,0.009587287902832031,0.04687213897705078,-0.6050806045532227,-0.25575733184814453,0.7494878768920898,-0.08217430114746094
406,652667008.0,9.745894432067871,-2.03273868560791,3.955341339111328,-0.08948421478271484,0.009587287902832031,0.04687213897705078,-0.6050806045532227,-0.25575733184814453,0.7494878768920898,-0.08217430114746094
407,652667008.0,9.739909172058105,-2.286531448364258,4.805309295654297,-0.08948421478271484,0.009587287902832031,0.04687213897705078,-0.6050806045532227,-0.25575733184814453,0.7494878768920898,-0.08217430114746094
408,652667008.0,10.28700065612793,-3.347195625305176,5.6792192459106445,-0.08948421478271484,0.009587287902832031,0.04687213897705078,-0.6050806045532227,-0.25575733184814453,0.7494878768920898,-0.08217430114746094
409,652667072.0,11.148940086364746,-4.695172309875488,6.696785926818848,-3.233175277709961,2.112483024597168,2.204098701477051,-0.6050806045532227,-0.25575733184814453,0.7494878768920898,-0.08217430114746094
410,652667136.0,11.205204963684082,-11.83609676361084,7.7550554275512695,-0.26312828063964844,2.8635177612304688,4.146135330200195,-0.6050806045532227,-0.25575733184814453,0.7494878768920898,-0.08217430114746094
411,652667200.0,10.819726943969727,-13.041613578796387,5.243461608886719,1.1675653457641602,2.049631118774414,5.47029972076416,-0.6050806045532227,-0.25575733184814453,0.7494878768920898,-0.08217430114746094
412,652667200.0,10.260663986206055,-13.395966529846191,3.0131940841674805,1.1675653457641602,2.049631118774414,5.47029972076416,-0.6050806045532227,-0.25575733184814453,0.7494878768920898,-0.08217430114746094
413,652667200.0,9.414287567138672,-13.525257110595703,2.014781951904297,1.1675653457641602,2.049631118774414,5.47029972076416,-0.6050806045532227,-0.25575733184814453,0.7494878768920898,-0.08217430114746094
414,652667264.0,8.390735626220703,-12.736343383789062,1.752608299255371,1.6980829238891602,1.8557472229003906,5.780301094055176,-0.6050806045532227,-0.25575733184814453,0.7494878768920898,-0.08217430114746094
415,652667392.0,2.071046829223633,-5.941391944885254,-0.4489259719848633,-0.9278736114501953,0.033023834228515625,5.031396865844727,-0.6050806045532227,-0.25575733184814453,0.7494878768920898,-0.08217430114746094
416,652667392.0,0.9517240524291992,-5.0004425048828125,-0.6189193725585938,-0.9278736114501953,0.033023834228515625,5.031396865844727,-0.6050806045532227,-0.25575733184814453,0.7494878768920898,-0.08217430114746094
417,652667392.0,0.5171632766723633,-5.2518415451049805,0.41181468963623047,-0.9278736114501953,0.033023834228515625,5.031396865844727,-0.6050806045532227,-0.25575733184814453,0.7494878768920898,-0.08217430114746094
418,652667392.0,0.39026641845703125,-6.117371559143066,0.9457378387451172,-0.9278736114501953,0.033023834228515625,5.031396865844727,-0.6050806045532227,-0.25575733184814453,0.7494878768920898,-0.08217430114746094
419,652667392.0,2.071046829223633,-5.941391944885254,-0.4489259719848633,-0.9278736114501953,0.033023834228515625,5.031396865844727,-0.6050806045532227,-0.25575733184814453,0.7494878768920898,-0.08217430114746094
420,652667392.0,0.9517240524291992,-5.0004425048828125,-0.6189193725585938,-0.9278736114501953,0.033023834228515625,5.031396865844727,-0.6050806045532227,-0.25575733184814453,0.7494878768920898,-0.08217430114746094
421,652667392.0,0.5171632766723633,-5.2518415451049805,0.41181468963623047,-0.9278736114501953,0.033023834228515625,5.031396865844727,-0.6050806045532227,-0.25575733184814453,0.7494878768920898,-0.08217430114746094
422,652667392.0,0.39026641845703125,-6.117371559143066,0.9457378387451172,-0.9278736114501953,0.033023834228515625,5.031396865844727,-0.6050806045532227,-0.25575733184814453,0.7494878768920898,-0.08217430114746094
423,652667456.0,-0.678776741027832,-5.086636543273926,0.8834867477416992,-0.9278736114501953,0.033023834228515625,5.031396865844727,-0.6050806045532227,-0.25575733184814453,0.7494878768920898,-0.08217430114746094
424,652667456.0,-0.678776741027832,-5.086636543273926,0.8834867477416992,-0.9278736114501953,0.033023834228515625,5.031396865844727,-0.6050806045532227,-0.25575733184814453,0.7494878768920898,-0.08217430114746094
425,652667584.0,-5.364372253417969,-7.579075813293457,-2.8013010025024414,-0.9278736114501953,0.033023834228515625,5.031396865844727,-0.6050806045532227,-0.25575733184814453,0.7494878768920898,-0.08217430114746094
426,652667584.0,-2.522367477416992,-5.687599182128906,0.8739099502563477,-0.9278736114501953,0.033023834228515625,5.031396865844727,-0.6050806045532227,-0.25575733184814453,0.7494878768920898,-0.08217430114746094
427,652667584.0,-0.04309654235839844,-4.003227233886719,7.866389274597168,-0.9278736114501953,0.033023834228515625,5.031396865844727,-0.6050806045532227,-0.25575733184814453,0.7494878768920898,-0.08217430114746094
428,652667584.0,-5.364372253417969,-7.579075813293457,-2.8013010025024414,-0.9278736114501953,0.033023834228515625,5.031396865844727,-0.6050806045532227,-0.25575733184814453,0.7494878768920898,-0.08217430114746094
429,652667584.0,-2.522367477416992,-5.687599182128906,0.8739099502563477,-0.9278736114501953,0.033023834228515625,5.031396865844727,-0.6050806045532227,-0.25575733184814453,0.7494878768920898,-0.08217430114746094
430,652667584.0,-0.04309654235839844,-4.003227233886719,7.866389274597168,-0.9278736114501953,0.033023834228515625,5.031396865844727,-0.6050806045532227,-0.25575733184814453,0.7494878768920898,-0.08217430114746094
431,652667584.0,-5.364372253417969,-7.579075813293457,-2.8013010025024414,-0.9278736114501953,0.033023834228515625,5.031396865844727,-0.6050806045532227,-0.25575733184814453,0.7494878768920898,-0.08217430114746094
432,652667584.0,-2.522367477416992,-5.687599182128906,0.8739099502563477,-0.9278736114501953,0.033023834228515625,5.031396865844727,-0.6050806045532227,-0.25575733184814453,0.7494878768920898,-0.08217430114746094
433,652667584.0,-0.04309654235839844,-4.003227233886719,7.866389274597168,-0.9278736114501953,0.033023834228515625,5.031396865844727,-0.6050806045532227,-0.25575733184814453,0.7494878768920898,-0.08217430114746094
434,652667648.0,1.665217399597168,-0.8332071304321289,-10.508471488952637,2.810253143310547,0.6338510513305664,-1.008835792541504,-0.6050806045532227,-0.25575733184814453,0.7494878768920898,-0.08217430114746094
435,652667648.0,20.061626434326172,10.233129501342773,34.63438034057617,2.810253143310547,0.6338510513305664,-1.008835792541504,-0.6050806045532227,-0.25575733184814453,0.7494878768920898,-0.08217430114746094
436,652667648.0,1.665217399597168,-0.8332071304321289,-10.508471488952637,2.810253143310547,0.6338510513305664,-1.008835792541504,-0.6050806045532227,-0.25575733184814453,0.7494878768920898,-0.08217430114746094
437,652667648.0,20.061626434326172,10.233129501342773,34.63438034057617,2.810253143310547,0.6338510513305664,-1.008835792541504,-0.6050806045532227,-0.25575733184814453,0.7494878768920898,-0.08217430114746094
438,652667648.0,1.665217399597168,-0.8332071304321289,-10.508471488952637,2.810253143310547,0.6338510513305664,-1.008835792541504,-0.6050806045532227,-0.25575733184814453,0.7494878768920898,-0.08217430114746094
439,652667648.0,20.061626434326172,10.233129501342773,34.63438034057617,2.810253143310547,0.6338510513305664,-1.008835792541504,-0.6050806045532227,-0.25575733184814453,0.7494878768920898,-0.08217430114746094
440,652667840.0,-7.954977035522461,-5.345217704772949,-0.32202911376953125,-1.3412084579467773,-3.1096010208129883,1.274094581604004,-0.2372417449951172,-0.8733530044555664,0.03875541687011719,0.42368507385253906
441,652667904.0,-8.363201141357422,-1.075028419494629,-4.866362571716309,1.3880815505981445,3.62200927734375,-1.5734434127807617,-0.2372417449951172,-0.8733530044555664,0.03875541687011719,0.42368507385253906
442,652667904.0,34.62480163574219,4.01280403137207,39.08892822265625,1.3880815505981445,3.62200927734375,-1.5734434127807617,-0.2372417449951172,-0.8733530044555664,0.03875541687011719,0.42368507385253906
443,652667904.0,-4.855588912963867,-2.1153411865234375,10.440234184265137,1.3880815505981445,3.62200927734375,-1.5734434127807617,-0.2372417449951172,-0.8733530044555664,0.03875541687011719,0.42368507385253906
444,652667968.0,-14.761899948120117,0.8451786041259766,5.213532447814941,-0.37072277069091797,2.467226982116699,-0.2993478775024414,-0.2372417449951172,-0.8733530044555664,0.03875541687011719,0.42368507385253906
445,652667968.0,-1.877110481262207,0.2657642364501953,10.969368934631348,-0.37072277069091797,2.467226982116699,-0.2993478775024414,-0.2372417449951172,-0.8733530044555664,0.03875541687011719,0.42368507385253906
446,652667968.0,6.191594123840332,-5.524788856506348,11.687651634216309,-0.37072277069091797,2.467226982116699,-0.2993478775024414,-0.2372417449951172,-0.8733530044555664,0.03875541687011719,0.42368507385253906
447,652668032.0,-1.5862064361572266,-7.54555606842041,11.375198364257812,0.5060157775878906,2.7037229537963867,-2.602519989013672,-0.2372417449951172,-0.8733530044555664,0.03875541687011719,0.42368507385253906
448,652668032.0,-3.6524658203125,-3.708730697631836,10.88796329498291,0.5060157775878906,2.7037229537963867,-2.602519989013672,-0.2372417449951172,-0.8733530044555664,0.03875541687011719,0.42368507385253906
449,652668032.0,-0.3543519973754883,-3.7171106338500977,7.0176191329956055,0.5060157775878906,2.7037229537963867,-2.602519989013672,-0.2372417449951172,-0.8733530044555664,0.03875541687011719,0.42368507385253906
450,652668032.0,-1.5000123977661133,-4.816082954406738,3.3448009490966797,0.5060157775878906,2.7037229537963867,-2.602519989013672,-0.2372417449951172,-0.8733530044555664,0.03875541687011719,0.42368507385253906
451,652668032.0,-1.5000123977661133,-4.816082954406738,3.3448009490966797,0.5060157775878906,2.7037229537963867,-2.602519989013672,-0.2372417449951172,-0.8733530044555664,0.03875541687011719,0.42368507385253906
452,652668032.0,-1.5000123977661133,-4.816082954406738,3.3448009490966797,0.5060157775878906,2.7037229537963867,-2.602519989013672,-0.2372417449951172,-0.8733530044555664,0.03875541687011719,0.42368507385253906
453,652668096.0,-2.7965126037597656,-5.425426483154297,1.0917892456054688,3.3109426498413086,1.6810379028320312,-4.058780670166016,-0.2372417449951172,-0.8733530044555664,0.03875541687011719,0.42368507385253906
454,652668096.0,-2.175198554992676,-3.591411590576172,0.4094209671020508,3.3109426498413086,1.6810379028320312,-4.058780670166016,-0.2372417449951172,-0.8733530044555664,0.03875541687011719,0.42368507385253906
455,652668096.0,-1.668808937072754,-3.0239686965942383,0.3962516784667969,3.3109426498413086,1.6810379028320312,-4.058780670166016,-0.2372417449951172,-0.8733530044555664,0.03875541687011719,0.42368507385253906
456,652668096.0,-2.7965126037597656,-5.425426483154297,1.0917892456054688,3.3109426498413086,1.6810379028320312,-4.058780670166016,-0.2372417449951172,-0.8733530044555664,0.03875541687011719,0.42368507385253906
457,652668096.0,-2.175198554992676,-3.591411590576172,0.4094209671020508,3.3109426498413086,1.6810379028320312,-4.058780670166016,-0.2372417449951172,-0.8733530044555664,0.03875541687011719,0.42368507385253906
458,652668096.0,-1.668808937072754,-3.0239686965942383,0.3962516784667969,3.3109426498413086,1.6810379028320312,-4.058780670166016,-0.2372417449951172,-0.8733530044555664,0.03875541687011719,0.42368507385253906
459,652668096.0,-2.7965126037597656,-5.425426483154297,1.0917892456054688,3.3109426498413086,1.6810379028320312,-4.058780670166016,-0.2372417449951172,-0.8733530044555664,0.03875541687011719,0.42368507385253906
460,652668096.0,-2.175198554992676,-3.591411590576172,0.4094209671020508,3.3109426498413086,1.6810379028320312,-4.058780670166016,-0.2372417449951172,-0.8733530044555664,0.03875541687011719,0.42368507385253906
461,652668096.0,-1.668808937072754,-3.0239686965942383,0.3962516784667969,3.3109426498413086,1.6810379028320312,-4.058780670166016,-0.2372417449951172,-0.8733530044555664,0.03875541687011719,0.42368507385253906
462,652668160.0,-1.0235519409179688,-4.494052886962891,1.1049575805664062,3.2949628829956055,1.1558465957641602,-4.46146297454834,-0.2372417449951172,-0.8733530044555664,0.03875541687011719,0.42368507385253906
463,652668160.0,-1.0235519409179688,-4.494052886962891,1.1049575805664062,3.2949628829956055,1.1558465957641602,-4.46146297454834,-0.2372417449951172,-0.8733530044555664,0.03875541687011719,0.42368507385253906
464,652668160.0,-1.0235519409179688,-4.494052886962891,1.1049575805664062,3.2949628829956055,1.1558465957641602,-4.46146297454834,-0.2372417449951172,-0.8733530044555664,0.03875541687011719,0.42368507385253906
465,652668352.0,4.257019996643066,-11.439844131469727,4.761014938354492,-0.5251913070678711,-2.022998809814453,-5.227411270141602,-0.3048715591430664,-0.5311069488525391,0.7443952560424805,0.26620006561279297
466,652668352.0,3.065868377685547,-8.333272933959961,4.698763847351074,-0.5251913070678711,-2.022998809814453,-5.227411270141602,-0.3048715591430664,-0.5311069488525391,0.7443952560424805,0.26620006561279297
467,652668416.0,4.982484817504883,-7.023604393005371,4.666440963745117,-0.5251913070678711,-2.022998809814453,-5.227411270141602,-0.3048715591430664,-0.5311069488525391,0.7443952560424805,0.26620006561279297
468,652668416.0,8.010046005249023,-6.597423553466797,5.2422637939453125,-0.5251913070678711,-2.022998809814453,-5.227411270141602,-0.3048715591430664,-0.5311069488525391,0.7443952560424805,0.26620006561279297
469,652668416.0,10.899934768676758,-5.6109819412231445,4.922628402709961,-0.5251913070678711,-2.022998809814453,-5.227411270141602,-0.3048715591430664,-0.5311069488525391,0.7443952560424805,0.26620006561279297
470,652668544.0,9.399922370910645,-6.6453094482421875,8.701991081237793,0.8000373840332031,-0.5752601623535156,-1.841897964477539,-0.3048715591430664,-0.5311069488525391,0.7443952560424805,0.26620006561279297
471,652668608.0,6.557917594909668,-1.854365348815918,7.506051063537598,-0.8096256256103516,0.184295654296875,1.4839582443237305,-0.3048715591430664,-0.5311069488525391,0.7443952560424805,0.26620006561279297
472,652668608.0,8.239895820617676,-0.4285745620727539,6.5770721435546875,-0.8096256256103516,0.184295654296875,1.4839582443237305,-0.3048715591430664,-0.5311069488525391,0.7443952560424805,0.26620006561279297
473,652668608.0,10.636565208435059,-3.5064144134521484,5.355992317199707,-0.8096256256103516,0.184295654296875,1.4839582443237305,-0.3048715591430664,-0.5311069488525391,0.7443952560424805,0.26620006561279297
474,652668608.0,10.850852966308594,-4.006817817687988,4.179205894470215,-0.8096256256103516,0.184295654296875,1.4839582443237305,-0.3048715591430664,-0.5311069488525391,0.7443952560424805,0.26620006561279297
475,652668736.0,9.779414176940918,-1.9836559295654297,3.251424789428711,-0.8096256256103516,0.184295654296875,1.4839582443237305,-0.5851850509643555,-0.23530006408691406,0.7674417495727539,-0.11510372161865234
476,652668736.0,9.759062767028809,-2.091398239135742,3.4489526748657227,-0.8096256256103516,0.184295654296875,1.4839582443237305,-0.5851850509643555,-0.23530006408691406,0.7674417495727539,-0.11510372161865234
477,652668800.0,9.553155899047852,-2.0866098403930664,2.6444759368896484,-0.8096256256103516,0.184295654296875,1.4839582443237305,-0.5851850509643555,-0.23530006408691406,0.7674417495727539,-0.11510372161865234
478,652668800.0,9.337671279907227,-2.511593818664551,2.3008975982666016,-0.8096256256103516,0.184295654296875,1.4839582443237305,-0.5851850509643555,-0.23530006408691406,0.7674417495727539,-0.11510372161865234
479,652668800.0,9.4071044921875,-2.5056076049804688,2.1488609313964844,-0.8096256256103516,0.184295654296875,1.4839582443237305,-0.5851850509643555,-0.23530006408691406,0.7674417495727539,-0.11510372161865234
480,652668800.0,9.7171630859375,-1.9896421432495117,2.968899726867676,-0.8096256256103516,0.184295654296875,1.4839582443237305,-0.5851850509643555,-0.23530006408691406,0.7674417495727539,-0.11510372161865234
481,652668800.0,9.384359359741211,-2.3032913208007812,2.478074073791504,-0.8096256256103516,0.184295654296875,1.4839582443237305,-0.5851850509643555,-0.23530006408691406,0.7674417495727539,-0.11510372161865234
482,652668800.0,9.392739295959473,-2.5810279846191406,2.1692123413085938,-0.8096256256103516,0.184295654296875,1.4839582443237305,-0.5851850509643555,-0.23530006408691406,0.7674417495727539,-0.11510372161865234
483,652668800.0,9.348444938659668,-2.260194778442383,2.097384452819824,-0.8096256256103516,0.184295654296875,1.4839582443237305,-0.5851850509643555,-0.23530006408691406,0.7674417495727539,-0.11510372161865234
484,652668864.0,9.253870964050293,-2.066258430480957,2.0878067016601562,-0.8096256256103516,0.184295654296875,1.4839582443237305,-0.5851850509643555,-0.23530006408691406,0.7674417495727539,-0.11510372161865234
485,652668864.0,9.087469100952148,-1.883096694946289,2.047104835510254,-0.8096256256103516,0.184295654296875,1.4839582443237305,-0.5851850509643555,-0.23530006408691406,0.7674417495727539,-0.11510372161865234
486,652668864.0,8.643331527709961,-1.5455036163330078,2.0794267654418945,-0.8096256256103516,0.184295654296875,1.4839582443237305,-0.5851850509643555,-0.23530006408691406,0.7674417495727539,-0.11510372161865234
487,652668864.0,8.608613967895508,-1.547898292541504,2.3643455505371094,-0.8096256256103516,0.184295654296875,1.4839582443237305,-0.5851850509643555,-0.23530006408691406,0.7674417495727539,-0.11510372161865234
488,652668928.0,8.816916465759277,-1.4952239990234375,2.2398433685302734,-0.8096256256103516,0.184295654296875,1.4839582443237305,-0.5851850509643555,-0.23530006408691406,0.7674417495727539,-0.11510372161865234
489,652668928.0,8.967755317687988,-1.508392333984375,2.0279502868652344,-0.8096256256103516,0.184295654296875,1.4839582443237305,-0.5851850509643555,-0.23530006408691406,0.7674417495727539,-0.11510372161865234
490,652668928.0,8.907898902893066,-1.3934669494628906,2.130904197692871,-0.8096256256103516,0.184295654296875,1.4839582443237305,-0.5851850509643555,-0.23530006408691406,0.7674417495727539,-0.11510372161865234
491,652668928.0,8.928250312805176,-1.5323352813720703,2.189563751220703,-0.8096256256103516,0.184295654296875,1.4839582443237305,-0.5851850509643555,-0.23530006408691406,0.7674417495727539,-0.11510372161865234
492,652668992.0,9.003669738769531,-1.7609882354736328,2.2314634323120117,0.18109989166259766,-0.2354297637939453,0.2183856964111328,-0.5851850509643555,-0.23530006408691406,0.7674417495727539,-0.11510372161865234
493,652668992.0,9.080286026000977,-1.8687305450439453,2.2721662521362305,0.18109989166259766,-0.2354297637939453,0.2183856964111328,-0.5851850509643555,-0.23530006408691406,0.7674417495727539,-0.11510372161865234
494,652668992.0,9.152114868164062,-1.4952239990234375,2.226675033569336,0.18109989166259766,-0.2354297637939453,0.2183856964111328,-0.5851850509643555,-0.23530006408691406,0.7674417495727539,-0.11510372161865234
495,652668992.0,9.061132431030273,-1.9465446472167969,2.22188663482666,0.18109989166259766,-0.2354297637939453,0.2183856964111328,-0.5851850509643555,-0.23530006408691406,0.7674417495727539,-0.11510372161865234
496,652668992.0,9.126975059509277,-1.6400775909423828,2.320052146911621,0.18109989166259766,-0.2354297637939453,0.2183856964111328,-0.5851850509643555,-0.23530006408691406,0.7674417495727539,-0.11510372161865234
497,652668992.0,9.177254676818848,-1.4808588027954102,2.135692596435547,0.18109989166259766,-0.2354297637939453,0.2183856964111328,-0.5851850509643555,-0.23530006408691406,0.7674417495727539,-0.11510372161865234
498,652669056.0,9.19640827178955,-1.4904356002807617,2.2374496459960938,0.03515434265136719,-0.22371196746826172,0.11931324005126953,-0.5851850509643555,-0.23530006408691406,0.7674417495727539,-0.11510372161865234
499,652669056.0,9.21436595916748,-1.4736757278442383,2.4182167053222656,0.03515434265136719,-0.22371196746826172,0.11931324005126953,-0.5851850509643555,-0.23530006408691406,0.7674417495727539,-0.11510372161865234
500,652669248.0,9.205986022949219,-2.094989776611328,3.001222610473633,0.17683887481689453,-0.24075698852539062,0.031958580017089844,-0.632054328918457,-0.2552824020385742,0.7269153594970703,-0.08308029174804688
501,652669248.0,9.228731155395508,-2.1548471450805664,3.0467138290405273,0.17683887481689453,-0.24075698852539062,0.031958580017089844,-0.632054328918457,-0.2552824020385742,0.7269153594970703,-0.08308029174804688
502,652669312.0,9.302953720092773,-2.191958427429199,2.9581260681152344,0.17683887481689453,-0.24075698852539062,0.031958580017089844,-0.632054328918457,-0.2552824020385742,0.7269153594970703,-0.08308029174804688
503,652669312.0,9.19640827178955,-2.2422380447387695,2.84200382232666,0.17683887481689453,-0.24075698852539062,0.031958580017089844,-0.632054328918457,-0.2552824020385742,0.7269153594970703,-0.08308029174804688
504,652669312.0,9.137748718261719,-2.2709693908691406,2.7282752990722656,0.17683887481689453,-0.24075698852539062,0.031958580017089844,-0.632054328918457,-0.2552824020385742,0.7269153594970703,-0.08308029174804688
505,652669376.0,9.062329292297363,-2.133297920227051,2.864748954772949,0.06711292266845703,0.042611122131347656,-0.0021305084228515625,-0.632054328918457,-0.2552824020385742,0.7269153594970703,-0.08308029174804688
506,652669376.0,9.131763458251953,-2.0782299041748047,2.847989082336426,0.06711292266845703,0.042611122131347656,-0.0021305084228515625,-0.632054328918457,-0.2552824020385742,0.7269153594970703,-0.08308029174804688
507,652669376.0,9.158100128173828,-2.17160701751709,2.6708126068115234,0.06711292266845703,0.042611122131347656,-0.0021305084228515625,-0.632054328918457,-0.2552824020385742,0.7269153594970703,-0.08308029174804688
508,652669376.0,9.062329292297363,-2.133297920227051,2.864748954772949,0.06711292266845703,0.042611122131347656,-0.0021305084228515625,-0.632054328918457,-0.2552824020385742,0.7269153594970703,-0.08308029174804688
509,652669376.0,9.131763458251953,-2.0782299041748047,2.847989082336426,0.06711292266845703,0.042611122131347656,-0.0021305084228515625,-0.632054328918457,-0.2552824020385742,0.7269153594970703,-0.08308029174804688
510,652669376.0,9.158100128173828,-2.17160701751709,2.6708126068115234,0.06711292266845703,0.042611122131347656,-0.0021305084228515625,-0.632054328918457,-0.2552824020385742,0.7269153594970703,-0.08308029174804688
511,652669440.0,9.070709228515625,-2.159635543823242,2.667222023010254,-0.033023834228515625,0.033023834228515625,-0.057525634765625,-0.632054328918457,-0.2552824020385742,0.7269153594970703,-0.08308029174804688
512,652669440.0,9.191619873046875,-2.2170982360839844,2.818060874938965,-0.033023834228515625,0.033023834228515625,-0.057525634765625,-0.632054328918457,-0.2552824020385742,0.7269153594970703,-0.08308029174804688
513,652669440.0,9.070709228515625,-2.159635543823242,2.667222023010254,-0.033023834228515625,0.033023834228515625,-0.057525634765625,-0.632054328918457,-0.2552824020385742,0.7269153594970703,-0.08308029174804688
514,652669440.0,9.191619873046875,-2.2170982360839844,2.818060874938965,-0.033023834228515625,0.033023834228515625,-0.057525634765625,-0.632054328918457,-0.2552824020385742,0.7269153594970703,-0.08308029174804688
515,652669440.0,9.18563461303711,-2.2769546508789062,2.6372928619384766,-0.033023834228515625,0.033023834228515625,-0.057525634765625,-0.632054328918457,-0.2552824020385742,0.7269153594970703,-0.08308029174804688
516,652669504.0,9.149720191955566,-2.4277944564819336,2.554690361022949,-0.033023834228515625,0.033023834228515625,-0.057525634765625,-0.632054328918457,-0.2552824020385742,0.7269153594970703,-0.08308029174804688
517,652669504.0,9.208379745483398,-2.34279727935791,2.6037731170654297,-0.033023834228515625,0.033023834228515625,-0.057525634765625,-0.632054328918457,-0.2552824020385742,0.7269153594970703,-0.08308029174804688
518,652669504.0,9.147326469421387,-2.445751190185547,2.5894079208374023,-0.033023834228515625,0.033023834228515625,-0.057525634765625,-0.632054328918457,-0.2552824020385742,0.7269153594970703,-0.08308029174804688
519,652669504.0,9.079089164733887,-2.266180992126465,2.475679397583008,-0.033023834228515625,0.033023834228515625,-0.057525634765625,-0.632054328918457,-0.2552824020385742,0.7269153594970703,-0.08308029174804688
520,652669568.0,9.082680702209473,-2.2087182998657227,2.4661026000976562,-0.07670116424560547,0.060721397399902344,-0.05646038055419922,-0.632054328918457,-0.2552824020385742,0.7269153594970703,-0.08308029174804688
521,652669568.0,9.111412048339844,-2.470890998840332,2.437371253967285,-0.07670116424560547,0.060721397399902344,-0.05646038055419922,-0.632054328918457,-0.2552824020385742,0.7269153594970703,-0.08308029174804688
522,652669568.0,9.030006408691406,-2.475679397583008,2.4553279876708984,-0.07670116424560547,0.060721397399902344,-0.05646038055419922,-0.632054328918457,-0.2552824020385742,0.7269153594970703,-0.08308029174804688
523,652669568.0,9.106623649597168,-2.3308258056640625,2.4469480514526367,-0.07670116424560547,0.060721397399902344,-0.05646038055419922,-0.632054328918457,-0.2552824020385742,0.7269153594970703,-0.08308029174804688
524,652669568.0,9.07669448852539,-2.5091991424560547,2.4325828552246094,-0.07670116424560547,0.060721397399902344,-0.05646038055419922,-0.632054328918457,-0.2552824020385742,0.7269153594970703,-0.08308029174804688
525,652669632.0,8.998881340026855,-2.306882858276367,2.496030807495117,-0.15872859954833984,0.04793834686279297,-0.03515434265136719,-0.632054328918457,-0.2552824020385742,0.7269153594970703,-0.08308029174804688
526,652669632.0,9.068314552307129,-2.3308258056640625,2.4182167053222656,-0.15872859954833984,0.04793834686279297,-0.03515434265136719,-0.632054328918457,-0.2552824020385742,0.7269153594970703,-0.08308029174804688
527,652669632.0,9.012049674987793,-2.390683174133301,2.5463104248046875,-0.15872859954833984,0.04793834686279297,-0.03515434265136719,-0.632054328918457,-0.2552824020385742,0.7269153594970703,-0.08308029174804688
528,652669632.0,8.99768352508545,-2.2709693908691406,2.445751190185547,-0.15872859954833984,0.04793834686279297,-0.03515434265136719,-0.632054328918457,-0.2552824020385742,0.7269153594970703,-0.08308029174804688
529,652669760.0,9.162888526916504,-2.4649057388305664,2.3559656143188477,-0.07030868530273438,-0.0031957626342773438,-0.034089088439941406,-0.632054328918457,-0.2552824020385742,0.7269153594970703,-0.08308029174804688
530,652669760.0,9.077892303466797,-2.5187768936157227,2.4325828552246094,-0.07030868530273438,-0.0031957626342773438,-0.034089088439941406,-0.632054328918457,-0.2552824020385742,0.7269153594970703,-0.08308029174804688
531,652669760.0,9.083877563476562,-2.500819206237793,2.5235652923583984,-0.07030868530273438,-0.0031957626342773438,-0.034089088439941406,-0.632054328918457,-0.2552824020385742,0.7269153594970703,-0.08308029174804688
532,652669760.0,9.09345531463623,-2.472087860107422,2.401456832885742,-0.07030868530273438,-0.0031957626342773438,-0.034089088439941406,-0.632054328918457,-0.2552824020385742,0.7269153594970703,-0.08308029174804688
533,652669760.0,9.069512367248535,-2.540325164794922,2.4589195251464844,-0.07030868530273438,-0.0031957626342773438,-0.034089088439941406,-0.632054328918457,-0.2552824020385742,0.7269153594970703,-0.08308029174804688
534,652669824.0,9.153311729431152,-2.375120162963867,2.5534934997558594,-0.07030868530273438,-0.0031957626342773438,-0.034089088439941406,-0.632054328918457,-0.2552824020385742,0.7269153594970703,-0.08308029174804688
535,652669824.0,9.172466278076172,-2.4122314453125,2.472087860107422,-0.07030868530273438,-0.0031957626342773438,-0.034089088439941406,-0.632054328918457,-0.2552824020385742,0.7269153594970703,-0.08308029174804688
536,652669824.0,9.122185707092285,-2.448145866394043,2.5163822174072266,-0.07030868530273438,-0.0031957626342773438,-0.034089088439941406,-0.632054328918457,-0.2552824020385742,0.7269153594970703,-0.08308029174804688
537,652669824.0,9.119791984558105,-2.434976577758789,2.5499019622802734,-0.07030868530273438,-0.0031957626342773438,-0.034089088439941406,-0.632054328918457,-0.2552824020385742,0.7269153594970703,-0.08308029174804688
538,652669824.0,9.172466278076172,-2.3954715728759766,2.508002281188965,-0.07030868530273438,-0.0031957626342773438,-0.034089088439941406,-0.632054328918457,-0.2552824020385742,0.7269153594970703,-0.08308029174804688
539,652669824.0,9.159296989440918,-2.4325828552246094,2.5127906799316406,-0.07030868530273438,-0.0031957626342773438,-0.034089088439941406,-0.632054328918457,-0.2552824020385742,0.7269153594970703,-0.08308029174804688
540,652670016.0,9.101835250854492,-2.3679370880126953,2.620532989501953,0.040480613708496094,0.009587287902832031,0.014913558959960938,-0.6098709106445312,-0.2664175033569336,0.7434883117675781,-0.06581687927246094
541,652670016.0,9.101835250854492,-2.3679370880126953,2.620532989501953,0.040480613708496094,0.009587287902832031,0.014913558959960938,-0.6098709106445312,-0.2664175033569336,0.7434883117675781,-0.06581687927246094
542,652670016.0,9.101835250854492,-2.3679370880126953,2.620532989501953,0.040480613708496094,0.009587287902832031,0.014913558959960938,-0.6098709106445312,-0.2664175033569336,0.7434883117675781,-0.06581687927246094
543,652670080.0,9.091060638427734,-2.244631767272949,2.5175790786743164,0.040480613708496094,0.009587287902832031,0.014913558959960938,-0.6098709106445312,-0.2664175033569336,0.7434883117675781,-0.06581687927246094
544,652670080.0,9.128171920776367,-2.3296289443969727,2.4768762588500977,0.040480613708496094,0.009587287902832031,0.014913558959960938,-0.6098709106445312,-0.2664175033569336,0.7434883117675781,-0.06581687927246094
545,652670080.0,9.092257499694824,-2.4325828552246094,2.4529342651367188,0.040480613708496094,0.009587287902832031,0.014913558959960938,-0.6098709106445312,-0.2664175033569336,0.7434883117675781,-0.06581687927246094
546,652670080.0,9.091060638427734,-2.244631767272949,2.5175790786743164,0.040480613708496094,0.009587287902832031,0.014913558959960938,-0.6098709106445312,-0.2664175033569336,0.7434883117675781,-0.06581687927246094
547,652670080.0,9.128171920776367,-2.3296289443969727,2.4768762588500977,0.040480613708496094,0.009587287902832031,0.014913558959960938,-0.6098709106445312,-0.2664175033569336,0.7434883117675781,-0.06581687927246094
548,652670080.0,9.092257499694824,-2.4325828552246094,2.4529342651367188,0.040480613708496094,0.009587287902832031,0.014913558959960938,-0.6098709106445312,-0.2664175033569336,0.7434883117675781,-0.06581687927246094
549,652670080.0,9.091060638427734,-2.244631767272949,2.5175790786743164,0.040480613708496094,0.009587287902832031,0.014913558959960938,-0.6098709106445312,-0.2664175033569336,0.7434883117675781,-0.06581687927246094
550,652670080.0,9.128171920776367,-2.3296289443969727,2.4768762588500977,0.040480613708496094,0.009587287902832031,0.014913558959960938,-0.6098709106445312,-0.2664175033569336,0.7434883117675781,-0.06581687927246094
551,652670080.0,9.092257499694824,-2.4325828552246094,2.4529342651367188,0.040480613708496094,0.009587287902832031,0.014913558959960938,-0.6098709106445312,-0.2664175033569336,0.7434883117675781,-0.06581687927246094
552,652670144.0,9.087469100952148,-2.473285675048828,2.4948339462280273,-0.034089088439941406,0.0063915252685546875,0.024501800537109375,-0.6098709106445312,-0.2664175033569336,0.7434883117675781,-0.06581687927246094
553,652670144.0,9.087469100952148,-2.473285675048828,2.4948339462280273,-0.034089088439941406,0.0063915252685546875,0.024501800537109375,-0.6098709106445312,-0.2664175033569336,0.7434883117675781,-0.06581687927246094
554,652670144.0,9.087469100952148,-2.473285675048828,2.4948339462280273,-0.034089088439941406,0.0063915252685546875,0.024501800537109375,-0.6098709106445312,-0.2664175033569336,0.7434883117675781,-0.06581687927246094
555,652670336.0,9.138946533203125,-2.2985029220581055,2.5558881759643555,0.041545867919921875,-0.0010652542114257812,-0.004261016845703125,-0.6087923049926758,-0.2674531936645508,0.7442655563354492,-0.062320709228515625
556,652670400.0,9.11739730834961,-2.3739233016967773,2.5271568298339844,0.041545867919921875,-0.0010652542114257812,-0.004261016845703125,-0.6087923049926758,-0.2674531936645508,0.7442655563354492,-0.062320709228515625
557,652670400.0,9.09465217590332,-2.5091991424560547,2.5487051010131836,0.041545867919921875,-0.0010652542114257812,-0.004261016845703125,-0.6087923049926758,-0.2674531936645508,0.7442655563354492,-0.062320709228515625
558,652670400.0,9.135354995727539,-2.439764976501465,2.6181392669677734,0.041545867919921875,-0.0010652542114257812,-0.004261016845703125,-0.6087923049926758,-0.2674531936645508,0.7442655563354492,-0.062320709228515625
559,652670400.0,9.154508590698242,-2.34279727935791,2.6217308044433594,0.041545867919921875,-0.0010652542114257812,-0.004261016845703125,-0.6087923049926758,-0.2674531936645508,0.7442655563354492,-0.062320709228515625
560,652670464.0,9.106623649597168,-2.343994140625,2.590604782104492,-0.030893325805664062,0.0031957626342773438,-0.012783050537109375,-0.6088352203369141,-0.26676273345947266,0.7445240020751953,-0.061501502990722656
561,652670464.0,9.082680702209473,-2.3918800354003906,2.53194522857666,-0.030893325805664062,0.0031957626342773438,-0.012783050537109375,-0.6088352203369141,-0.26676273345947266,0.7445240020751953,-0.061501502990722656
562,652670464.0,9.129368782043457,-2.4469480514526367,2.6073646545410156,-0.030893325805664062,0.0031957626342773438,-0.012783050537109375,-0.6088352203369141,-0.26676273345947266,0.7445240020751953,-0.061501502990722656
