,timestamp,accel_x,accel_y,accel_z,gyro_x,gyro_y,gyro_z,ori_scalar,ori_x,ori_y,ori_z
0,610705984.0,9.239505767822266,-2.190760612487793,2.539128303527832,0.06711292266845703,-0.22158145904541016,0.04900360107421875,0.39079856872558594,0.7264842987060547,-0.3497123718261719,0.44405555725097656
1,610705984.0,9.04437255859375,-2.1201295852661133,2.5463104248046875,0.06711292266845703,-0.22158145904541016,0.04900360107421875,0.39079856872558594,0.7264842987060547,-0.3497123718261719,0.44405555725097656
2,610706048.0,9.079089164733887,-1.8639421463012695,3.249030113220215,-0.1896219253540039,-0.2641935348510742,-0.09907245635986328,0.3911008834838867,0.7256641387939453,-0.34828853607177734,0.44634342193603516
3,610706048.0,9.301756858825684,-1.9956274032592773,3.0479116439819336,-0.1896219253540039,-0.2641935348510742,-0.09907245635986328,0.3911008834838867,0.7256641387939453,-0.34828853607177734,0.44634342193603516
4,610706048.0,9.123383522033691,-2.0171756744384766,2.6181392669677734,-0.1896219253540039,-0.2641935348510742,-0.09907245635986328,0.3911008834838867,0.7256641387939453,-0.34828853607177734,0.44634342193603516
5,610706112.0,8.948601722717285,-2.162029266357422,2.6480674743652344,-0.12890052795410156,-0.30254364013671875,-0.2812376022338867,0.3981351852416992,0.710688591003418,-0.35351085662841797,0.4598522186279297
6,610706112.0,9.325699806213379,-2.3020944595336914,2.8839035034179688,-0.12890052795410156,-0.30254364013671875,-0.2812376022338867,0.3981351852416992,0.710688591003418,-0.35351085662841797,0.4598522186279297
7,610706112.0,9.681249618530273,-2.4146251678466797,2.6624326705932617,-0.12890052795410156,-0.30254364013671875,-0.2812376022338867,0.3981351852416992,0.710688591003418,-0.35351085662841797,0.4598522186279297
8,610706304.0,9.76624584197998,-2.106961250305176,2.5570850372314453,-0.12890052795410156,-0.30254364013671875,-0.2812376022338867,0.40206241607666016,0.7004165649414062,-0.36162471771240234,0.46576499938964844
9,610706304.0,9.602238655090332,-2.1728038787841797,2.442159652709961,-0.12890052795410156,-0.30254364013671875,-0.2812376022338867,0.40206241607666016,0.7004165649414062,-0.36162471771240234,0.46576499938964844
10,610706304.0,9.37597942352295,-2.1404809951782227,2.4122314453125,-0.12890052795410156,-0.30254364013671875,-0.2812376022338867,0.40206241607666016,0.7004165649414062,-0.36162471771240234,0.46576499938964844
11,610706304.0,9.33647346496582,-2.0782299041748047,2.558281898498535,-0.12890052795410156,-0.30254364013671875,-0.2812376022338867,0.40206241607666016,0.7004165649414062,-0.36162471771240234,0.46576499938964844
12,610706368.0,9.294573783874512,-2.168015480041504,2.570253372192383,-0.0809621810913086,0.1555328369140625,0.09267997741699219,0.4141044616699219,0.6964025497436523,-0.37521934509277344,0.4502706527709961
13,610706368.0,9.197606086730957,-2.248223304748535,2.460116386413574,-0.0809621810913086,0.1555328369140625,0.09267997741699219,0.4141044616699219,0.6964025497436523,-0.37521934509277344,0.4502706527709961
14,610706368.0,9.225139617919922,-2.218295097351074,2.522367477416992,-0.0809621810913086,0.1555328369140625,0.09267997741699219,0.4141044616699219,0.6964025497436523,-0.37521934509277344,0.4502706527709961
15,610706432.0,9.09465217590332,-2.2350549697875977,2.437371253967285,0.0745706558227539,0.06391716003417969,-0.026632308959960938,0.4135427474975586,0.6986904144287109,-0.37595272064208984,0.4466886520385742
16,610706432.0,8.888744354248047,-2.2206897735595703,2.3056859970092773,0.0745706558227539,0.06391716003417969,-0.026632308959960938,0.4135427474975586,0.6986904144287109,-0.37595272064208984,0.4466886520385742
17,610706432.0,8.962966918945312,-2.2709693908691406,2.340402603149414,0.0745706558227539,0.06391716003417969,-0.026632308959960938,0.4135427474975586,0.6986904144287109,-0.37595272064208984,0.4466886520385742
18,610706752.0,9.353233337402344,-2.0483016967773438,2.187169075012207,-0.0745706558227539,-0.010652542114257812,-0.0916147232055664,0.4137582778930664,0.6906194686889648,-0.3816070556640625,0.45415496826171875
19,610706816.0,9.129368782043457,-2.077033042907715,2.121326446533203,-0.0745706558227539,-0.010652542114257812,-0.0916147232055664,0.4137582778930664,0.6906194686889648,-0.3816070556640625,0.45415496826171875
20,610706816.0,8.968952178955078,-2.0758352279663086,2.2111120223999023,-0.0745706558227539,-0.010652542114257812,-0.0916147232055664,0.4137582778930664,0.6906194686889648,-0.3816070556640625,0.45415496826171875
21,610706816.0,9.009654998779297,-2.044710159301758,2.1823806762695312,-0.0745706558227539,-0.010652542114257812,-0.0916147232055664,0.4137582778930664,0.6906194686889648,-0.3816070556640625,0.45415496826171875
22,610706880.0,9.134157180786133,-2.1811838150024414,2.0602731704711914,-0.08202743530273438,-0.01810932159423828,0.010652542114257812,0.4137582778930664,0.6906194686889648,-0.3816070556640625,0.45415496826171875
23,610706880.0,9.207182884216309,-2.1692123413085938,2.164423942565918,-0.08202743530273438,-0.01810932159423828,0.010652542114257812,0.4137582778930664,0.6906194686889648,-0.3816070556640625,0.45415496826171875
24,610706880.0,9.361613273620605,-2.2973060607910156,2.227871894836426,-0.08202743530273438,-0.01810932159423828,0.010652542114257812,0.4137582778930664,0.6906194686889648,-0.3816070556640625,0.45415496826171875
25,610706944.0,9.419075965881348,-2.349980354309082,2.132101058959961,-0.08202743530273438,-0.01810932159423828,0.010652542114257812,0.4137582778930664,0.6906194686889648,-0.3816070556640625,0.45415496826171875
26,610706944.0,9.411893844604492,-2.354768753051758,2.22188663482666,-0.08202743530273438,-0.01810932159423828,0.010652542114257812,0.4137582778930664,0.6906194686889648,-0.3816070556640625,0.45415496826171875
27,610707264.0,9.282602310180664,-2.218295097351074,2.278151512145996,0.07244014739990234,0.0170440673828125,0.013848304748535156,0.41690921783447266,0.6896705627441406,-0.3772907257080078,0.4563560485839844
28,610707264.0,9.249082565307617,-2.200338363647461,2.215900421142578,0.07244014739990234,0.0170440673828125,0.013848304748535156,0.41690921783447266,0.6896705627441406,-0.3772907257080078,0.4563560485839844
29,610707328.0,9.23711109161377,-2.2314634323120117,2.2649831771850586,0.01597881317138672,0.05965614318847656,0.014913558959960938,0.41591644287109375,0.6915693283081055,-0.37815380096435547,0.4535503387451172
30,610707328.0,9.298165321350098,-2.3092775344848633,2.2637863159179688,0.01597881317138672,0.05965614318847656,0.014913558959960938,0.41591644287109375,0.6915693283081055,-0.37815380096435547,0.4535503387451172
31,610707328.0,9.299362182617188,-2.2039289474487305,2.229069709777832,0.01597881317138672,0.05965614318847656,0.014913558959960938,0.41591644287109375,0.6915693283081055,-0.37815380096435547,0.4535503387451172
32,610707456.0,9.275420188903809,-2.2314634323120117,2.260194778442383,0.054329872131347656,0.02982807159423828,0.023435592651367188,0.4150533676147461,0.6927776336669922,-0.3778953552246094,0.4527740478515625
33,610707456.0,9.23591423034668,-2.2673778533935547,2.3032913208007812,0.054329872131347656,0.02982807159423828,0.023435592651367188,0.4150533676147461,0.6927776336669922,-0.3778953552246094,0.4527740478515625
34,610707520.0,9.208379745483398,-2.212308883666992,2.4242029190063477,0.054329872131347656,0.02982807159423828,0.023435592651367188,0.4150533676147461,0.6927776336669922,-0.3778953552246094,0.4527740478515625
35,610707520.0,9.152114868164062,-2.1799869537353516,2.372725486755371,0.054329872131347656,0.02982807159423828,0.023435592651367188,0.4150533676147461,0.6927776336669922,-0.3778953552246094,0.4527740478515625
36,610707520.0,9.177254676818848,-2.2135066986083984,2.3703317642211914,0.054329872131347656,0.02982807159423828,0.023435592651367188,0.4150533676147461,0.6927776336669922,-0.3778953552246094,0.4527740478515625
37,610707648.0,9.136551856994629,-2.3655433654785156,2.29251766204834,0.024501800537109375,0.022370338439941406,0.012783050537109375,0.4124641418457031,0.6967048645019531,-0.3750896453857422,0.45139312744140625
38,610707712.0,9.226337432861328,-2.2386465072631836,2.346388816833496,0.024501800537109375,0.022370338439941406,0.012783050537109375,0.4119892120361328,0.6970500946044922,-0.37439918518066406,0.45186710357666016
39,610707712.0,9.241899490356445,-2.2985029220581055,2.312869071960449,0.024501800537109375,0.022370338439941406,0.012783050537109375,0.4119892120361328,0.6970500946044922,-0.37439918518066406,0.45186710357666016
40,610707712.0,9.128171920776367,-2.255406379699707,2.3056859970092773,0.024501800537109375,0.022370338439941406,0.012783050537109375,0.4119892120361328,0.6970500946044922,-0.37439918518066406,0.45186710357666016
41,610707776.0,9.180846214294434,-2.3451919555664062,2.348782539367676,0.024501800537109375,0.022370338439941406,0.012783050537109375,0.4119892120361328,0.6970500946044922,-0.37439918518066406,0.45186710357666016
42,610707776.0,9.142537117004395,-2.3272342681884766,2.3667402267456055,0.024501800537109375,0.022370338439941406,0.012783050537109375,0.4119892120361328,0.6970500946044922,-0.37439918518066406,0.45186710357666016
43,610707776.0,9.168874740600586,-2.2697715759277344,2.353571891784668,0.024501800537109375,0.022370338439941406,0.012783050537109375,0.4119892120361328,0.6970500946044922,-0.37439918518066406,0.45186710357666016
44,610707776.0,9.18563461303711,-2.2350549697875977,2.3954715728759766,0.024501800537109375,0.022370338439941406,0.012783050537109375,0.4119892120361328,0.6970500946044922,-0.37439918518066406,0.45186710357666016
45,610707840.0,9.21556282043457,-2.194352149963379,2.4301881790161133,0.054329872131347656,-0.03941535949707031,0.045806884765625,0.4119892120361328,0.6970500946044922,-0.37439918518066406,0.45186710357666016
46,610707840.0,9.229928970336914,-2.191958427429199,2.4253997802734375,0.054329872131347656,-0.03941535949707031,0.045806884765625,0.4119892120361328,0.6970500946044922,-0.37439918518066406,0.45186710357666016
47,610707840.0,9.262250900268555,-2.1775922775268555,2.442159652709961,0.054329872131347656,-0.03941535949707031,0.045806884765625,0.4119892120361328,0.6970500946044922,-0.37439918518066406,0.45186710357666016
48,610707904.0,9.19640827178955,-2.225478172302246,2.4936370849609375,0.06391716003417969,-0.045806884765625,0.011717796325683594,0.4119892120361328,0.6970500946044922,-0.37439918518066406,0.45186710357666016
49,610707904.0,9.1868314743042,-2.1991405487060547,2.5810279846191406,0.06391716003417969,-0.045806884765625,0.011717796325683594,0.4119892120361328,0.6970500946044922,-0.37439918518066406,0.45186710357666016
50,610707904.0,9.18443775177002,-2.1704092025756836,2.5822248458862305,0.06391716003417969,-0.045806884765625,0.011717796325683594,0.4119892120361328,0.6970500946044922,-0.37439918518066406,0.45186710357666016
51,610707968.0,9.130566596984863,-2.1787891387939453,2.5463104248046875,0.057525634765625,-0.031958580017089844,0.005326271057128906,0.41017627716064453,0.6992511749267578,-0.36788272857666016,0.4554929733276367
52,610707968.0,9.103032112121582,-2.187169075012207,2.5570850372314453,0.057525634765625,-0.031958580017089844,0.005326271057128906,0.41017627716064453,0.6992511749267578,-0.36788272857666016,0.4554929733276367
53,610707968.0,9.120988845825195,-2.2709693908691406,2.594196319580078,0.057525634765625,-0.031958580017089844,0.005326271057128906,0.41017627716064453,0.6992511749267578,-0.36788272857666016,0.4554929733276367
54,610708032.0,9.226337432861328,-2.254209518432617,2.5091991424560547,0.057525634765625,-0.031958580017089844,0.005326271057128906,0.4097452163696289,0.6996393203735352,-0.3674936294555664,0.45566558837890625
55,610708032.0,9.156903266906738,-2.284137725830078,2.4505395889282227,0.057525634765625,-0.031958580017089844,0.005326271057128906,0.4097452163696289,0.6996393203735352,-0.3674936294555664,0.45566558837890625
56,610708032.0,9.194014549255371,-2.285334587097168,2.4182167053222656,0.057525634765625,-0.031958580017089844,0.005326271057128906,0.4097452163696289,0.6996393203735352,-0.3674936294555664,0.45566558837890625
57,610708096.0,9.227534294128418,-2.2613916397094727,2.4565258026123047,0.057525634765625,-0.031958580017089844,0.005326271057128906,0.4097452163696289,0.6996393203735352,-0.3674936294555664,0.45566558837890625
58,610708096.0,9.221549034118652,-2.233858108520508,2.408639907836914,0.057525634765625,-0.031958580017089844,0.005326271057128906,0.4097452163696289,0.6996393203735352,-0.3674936294555664,0.45566558837890625
59,610708096.0,9.226337432861328,-2.1955490112304688,2.2937145233154297,0.057525634765625,-0.031958580017089844,0.005326271057128906,0.4097452163696289,0.6996393203735352,-0.3674936294555664,0.45566558837890625
60,610708096.0,9.16648006439209,-2.2697715759277344,2.3092775344848633,0.057525634765625,-0.031958580017089844,0.005326271057128906,0.4097452163696289,0.6996393203735352,-0.3674936294555664,0.45566558837890625
61,610708160.0,9.155706405639648,-2.3344173431396484,2.3272342681884766,-0.011717796325683594,-0.011717796325683594,-0.00852203369140625,0.4097452163696289,0.6996393203735352,-0.3674936294555664,0.45566558837890625
62,610708160.0,9.207182884216309,-2.266180992126465,2.340402603149414,-0.011717796325683594,-0.011717796325683594,-0.00852203369140625,0.4097452163696289,0.6996393203735352,-0.3674936294555664,0.45566558837890625
63,610708160.0,9.201197624206543,-2.29251766204834,2.2398433685302734,-0.011717796325683594,-0.011717796325683594,-0.00852203369140625,0.4097452163696289,0.6996393203735352,-0.3674936294555664,0.45566558837890625
64,610708160.0,9.207182884216309,-2.266180992126465,2.340402603149414,-0.011717796325683594,-0.011717796325683594,-0.00852203369140625,0.4097452163696289,0.6996393203735352,-0.3674936294555664,0.45566558837890625
65,610708160.0,9.201197624206543,-2.29251766204834,2.2398433685302734,-0.011717796325683594,-0.011717796325683594,-0.00852203369140625,0.4097452163696289,0.6996393203735352,-0.3674936294555664,0.45566558837890625
66,610708224.0,9.183239936828613,-2.2721662521362305,2.2769546508789062,-0.009587287902832031,-0.023435592651367188,-0.0063915252685546875,0.4097452163696289,0.6996393203735352,-0.3674936294555664,0.45566558837890625
67,610708224.0,9.174860000610352,-2.3523740768432617,2.3236427307128906,-0.009587287902832031,-0.023435592651367188,-0.0063915252685546875,0.4097452163696289,0.6996393203735352,-0.3674936294555664,0.45566558837890625
68,610708224.0,9.16767692565918,-2.3044891357421875,2.3380088806152344,-0.009587287902832031,-0.023435592651367188,-0.0063915252685546875,0.4097452163696289,0.6996393203735352,-0.3674936294555664,0.45566558837890625
69,610708224.0,9.183239936828613,-2.2721662521362305,2.2769546508789062,-0.009587287902832031,-0.023435592651367188,-0.0063915252685546875,0.4097452163696289,0.6996393203735352,-0.3674936294555664,0.45566558837890625
70,610708224.0,9.174860000610352,-2.3523740768432617,2.3236427307128906,-0.009587287902832031,-0.023435592651367188,-0.0063915252685546875,0.4097452163696289,0.6996393203735352,-0.3674936294555664,0.45566558837890625
71,610708224.0,9.16767692565918,-2.3044891357421875,2.3380088806152344,-0.009587287902832031,-0.023435592651367188,-0.0063915252685546875,0.4097452163696289,0.6996393203735352,-0.3674936294555664,0.45566558837890625
72,610708352.0,9.233519554138184,-2.322445869445801,2.3715286254882812,-0.00852203369140625,-0.031958580017089844,-0.0021305084228515625,0.4097452163696289,0.6996393203735352,-0.3674936294555664,0.45566558837890625
73,610708352.0,9.233519554138184,-2.322445869445801,2.3715286254882812,-0.00852203369140625,-0.031958580017089844,-0.0021305084228515625,0.4097452163696289,0.6996393203735352,-0.3674936294555664,0.45566558837890625
74,610708416.0,9.183239936828613,-2.348782539367676,2.3655433654785156,-0.0021305084228515625,-0.0287628173828125,0.0010652542114257812,0.4097452163696289,0.6996393203735352,-0.3674936294555664,0.45566558837890625
75,610708416.0,9.269433975219727,-2.3679370880126953,2.3918800354003906,-0.0021305084228515625,-0.0287628173828125,0.0010652542114257812,0.4097452163696289,0.6996393203735352,-0.3674936294555664,0.45566558837890625
76,610708416.0,9.290982246398926,-2.2829408645629883,2.4469480514526367,-0.0021305084228515625,-0.0287628173828125,0.0010652542114257812,0.4097452163696289,0.6996393203735352,-0.3674936294555664,0.45566558837890625
77,610708416.0,9.26584243774414,-2.3092775344848633,2.381105422973633,-0.0021305084228515625,-0.0287628173828125,0.0010652542114257812,0.4097452163696289,0.6996393203735352,-0.3674936294555664,0.45566558837890625
78,610708416.0,9.183239936828613,-2.348782539367676,2.3655433654785156,-0.0021305084228515625,-0.0287628173828125,0.0010652542114257812,0.4097452163696289,0.6996393203735352,-0.3674936294555664,0.45566558837890625
79,610708416.0,9.269433975219727,-2.3679370880126953,2.3918800354003906,-0.0021305084228515625,-0.0287628173828125,0.0010652542114257812,0.4097452163696289,0.6996393203735352,-0.3674936294555664,0.45566558837890625
80,610708416.0,9.290982246398926,-2.2829408645629883,2.4469480514526367,-0.0021305084228515625,-0.0287628173828125,0.0010652542114257812,0.4097452163696289,0.6996393203735352,-0.3674936294555664,0.45566558837890625
81,610708416.0,9.26584243774414,-2.3092775344848633,2.381105422973633,-0.0021305084228515625,-0.0287628173828125,0.0010652542114257812,0.4097452163696289,0.6996393203735352,-0.3674936294555664,0.45566558837890625
82,610708480.0,9.271828651428223,-2.310474395751953,2.41342830657959,-0.0031957626342773438,-0.013848304748535156,-0.0010652542114257812,0.4097452163696289,0.6996393203735352,-0.3674936294555664,0.45566558837890625
83,610708480.0,9.199999809265137,-2.387091636657715,2.4206113815307617,-0.0031957626342773438,-0.013848304748535156,-0.0010652542114257812,0.4097452163696289,0.6996393203735352,-0.3674936294555664,0.45566558837890625
84,610708480.0,9.238308906555176,-2.3092775344848633,2.475679397583008,-0.0031957626342773438,-0.013848304748535156,-0.0010652542114257812,0.4097452163696289,0.6996393203735352,-0.3674936294555664,0.45566558837890625
85,610708544.0,9.275420188903809,-2.260194778442383,2.445751190185547,-0.014913558959960938,0.0021305084228515625,0.014913558959960938,0.4097452163696289,0.6996393203735352,-0.3674936294555664,0.45566558837890625
86,610708544.0,9.256265640258789,-2.2949113845825195,2.4253997802734375,-0.014913558959960938,0.0021305084228515625,0.014913558959960938,0.4097452163696289,0.6996393203735352,-0.3674936294555664,0.45566558837890625
87,610708672.0,9.227534294128418,-2.3044891357421875,2.378711700439453,0.0287628173828125,0.00852203369140625,-0.004261016845703125,0.4097452163696289,0.6996393203735352,-0.3674936294555664,0.45566558837890625
88,610708672.0,9.311333656311035,-2.280546188354492,2.372725486755371,0.0287628173828125,0.00852203369140625,-0.004261016845703125,0.4097452163696289,0.6996393203735352,-0.3674936294555664,0.45566558837890625
89,610708736.0,9.279010772705078,-2.22428035736084,2.3703317642211914,-0.010652542114257812,0.022370338439941406,0.0010652542114257812,0.4097452163696289,0.6996393203735352,-0.3674936294555664,0.45566558837890625
90,610708736.0,9.209577560424805,-2.281743049621582,2.321249008178711,-0.010652542114257812,0.022370338439941406,0.0010652542114257812,0.4097452163696289,0.6996393203735352,-0.3674936294555664,0.45566558837890625
91,610708736.0,9.211971282958984,-2.3368120193481445,2.306882858276367,-0.010652542114257812,0.022370338439941406,0.0010652542114257812,0.4097452163696289,0.6996393203735352,-0.3674936294555664,0.45566558837890625
92,610708736.0,9.19640827178955,-2.318854331970215,2.34279727935791,-0.010652542114257812,0.022370338439941406,0.0010652542114257812,0.4097452163696289,0.6996393203735352,-0.3674936294555664,0.45566558837890625
93,610708800.0,9.21436595916748,-2.2206897735595703,2.346388816833496,-0.010652542114257812,0.022370338439941406,0.0010652542114257812,0.4097452163696289,0.6996393203735352,-0.3674936294555664,0.45566558837890625
94,610708800.0,9.190423011779785,-2.215900421142578,2.2470264434814453,-0.010652542114257812,0.022370338439941406,0.0010652542114257812,0.4097452163696289,0.6996393203735352,-0.3674936294555664,0.45566558837890625
95,610708800.0,9.190423011779785,-2.281743049621582,2.2578001022338867,-0.010652542114257812,0.022370338439941406,0.0010652542114257812,0.4097452163696289,0.6996393203735352,-0.3674936294555664,0.45566558837890625
96,610708864.0,9.211971282958984,-2.3703317642211914,2.256603240966797,0.013848304748535156,0.0,-0.009587287902832031,0.4097452163696289,0.6996393203735352,-0.3674936294555664,0.45566558837890625
97,610708864.0,9.257462501525879,-2.3044891357421875,2.288926124572754,0.013848304748535156,0.0,-0.009587287902832031,0.4097452163696289,0.6996393203735352,-0.3674936294555664,0.45566558837890625
98,610708864.0,9.226337432861328,-2.3116722106933594,2.2793493270874023,0.013848304748535156,0.0,-0.009587287902832031,0.4097452163696289,0.6996393203735352,-0.3674936294555664,0.45566558837890625
99,610708928.0,9.194014549255371,-2.286531448364258,2.2470264434814453,0.01597881317138672,-0.004261016845703125,-0.013848304748535156,0.4097452163696289,0.6996393203735352,-0.3674936294555664,0.45566558837890625
100,610708928.0,9.189226150512695,-2.3296289443969727,2.2613916397094727,0.01597881317138672,-0.004261016845703125,-0.013848304748535156,0.4097452163696289,0.6996393203735352,-0.3674936294555664,0.45566558837890625
101,610708928.0,9.228731155395508,-2.320052146911621,2.343994140625,0.01597881317138672,-0.004261016845703125,-0.013848304748535156,0.4097452163696289,0.6996393203735352,-0.3674936294555664,0.45566558837890625
102,610708992.0,9.197606086730957,-2.2398433685302734,2.3368120193481445,0.01597881317138672,-0.004261016845703125,-0.013848304748535156,0.4097452163696289,0.6996393203735352,-0.3674936294555664,0.45566558837890625
103,610708992.0,9.202394485473633,-2.310474395751953,2.317657470703125,0.01597881317138672,-0.004261016845703125,-0.013848304748535156,0.4097452163696289,0.6996393203735352,-0.3674936294555664,0.45566558837890625
104,610708992.0,9.189226150512695,-2.340402603149414,2.318854331970215,0.01597881317138672,-0.004261016845703125,-0.013848304748535156,0.4097452163696289,0.6996393203735352,-0.3674936294555664,0.45566558837890625
105,610708992.0,9.202394485473633,-2.316460609436035,2.3583602905273438,0.01597881317138672,-0.004261016845703125,-0.013848304748535156,0.4097452163696289,0.6996393203735352,-0.3674936294555664,0.45566558837890625
106,610709056.0,9.240702629089355,-2.2721662521362305,2.3679370880126953,-0.0021305084228515625,-0.007456779479980469,-0.004261016845703125,0.4104785919189453,0.6979999542236328,-0.36585426330566406,0.45872974395751953
107,610709056.0,9.262250900268555,-2.254209518432617,2.354768753051758,-0.0021305084228515625,-0.007456779479980469,-0.004261016845703125,0.4104785919189453,0.6979999542236328,-0.36585426330566406,0.45872974395751953
108,610709056.0,9.19640827178955,-2.312869071960449,2.3595571517944336,-0.0021305084228515625,-0.007456779479980469,-0.004261016845703125,0.4104785919189453,0.6979999542236328,-0.36585426330566406,0.45872974395751953
109,610709120.0,9.223942756652832,-2.348782539367676,2.343994140625,0.03515434265136719,-0.009587287902832031,-0.0021305084228515625,0.41009044647216797,0.6982583999633789,-0.36559486389160156,0.45894527435302734
110,610709120.0,9.238308906555176,-2.287729263305664,2.4242029190063477,0.03515434265136719,-0.009587287902832031,-0.0021305084228515625,0.41009044647216797,0.6982583999633789,-0.36559486389160156,0.45894527435302734
111,610709120.0,9.23711109161377,-2.260194778442383,2.3954715728759766,0.03515434265136719,-0.009587287902832031,-0.0021305084228515625,0.41009044647216797,0.6982583999633789,-0.36559486389160156,0.45894527435302734
112,610709184.0,9.165283203125,-2.2458295822143555,2.3954715728759766,0.03515434265136719,-0.009587287902832031,-0.0021305084228515625,0.41009044647216797,0.6982583999633789,-0.36559486389160156,0.45894527435302734
113,610709184.0,9.213168144226074,-2.321249008178711,2.387091636657715,0.03515434265136719,-0.009587287902832031,-0.0021305084228515625,0.41009044647216797,0.6982583999633789,-0.36559486389160156,0.45894527435302734
114,610709184.0,9.293376922607422,-2.29251766204834,2.408639907836914,0.03515434265136719,-0.009587287902832031,-0.0021305084228515625,0.41009044647216797,0.6982583999633789,-0.36559486389160156,0.45894527435302734
115,610709248.0,9.270630836486816,-2.281743049621582,2.4301881790161133,0.0063915252685546875,0.0170440673828125,0.007456779479980469,0.40935611724853516,0.6986904144287109,-0.3652496337890625,0.45916175842285156
116,610709248.0,9.259857177734375,-2.286531448364258,2.401456832885742,0.0063915252685546875,0.0170440673828125,0.007456779479980469,0.40935611724853516,0.6986904144287109,-0.3652496337890625,0.45916175842285156
117,610709376.0,9.18443775177002,-2.2745609283447266,2.4182167053222656,0.01810932159423828,0.014913558959960938,0.01810932159423828,0.40909767150878906,0.6991653442382812,-0.3649473190307617,0.45890235900878906
118,610709376.0,9.199999809265137,-2.2374496459960938,2.4146251678466797,0.01810932159423828,0.014913558959960938,0.01810932159423828,0.40909767150878906,0.6991653442382812,-0.3649473190307617,0.45890235900878906
119,610709376.0,9.19640827178955,-2.285334587097168,2.4122314453125,0.01810932159423828,0.014913558959960938,0.01810932159423828,0.40909767150878906,0.6991653442382812,-0.3649473190307617,0.45890235900878906
120,610709440.0,9.197606086730957,-2.2697715759277344,2.349980354309082,0.0287628173828125,0.01597881317138672,0.004261016845703125,0.40909767150878906,0.6991653442382812,-0.3649473190307617,0.45890235900878906
121,610709440.0,9.173663139343262,-2.328432083129883,2.3595571517944336,0.0287628173828125,0.01597881317138672,0.004261016845703125,0.40909767150878906,0.6991653442382812,-0.3649473190307617,0.45890235900878906
122,610709440.0,9.1868314743042,-2.2709693908691406,2.3703317642211914,0.0287628173828125,0.01597881317138672,0.004261016845703125,0.40909767150878906,0.6991653442382812,-0.3649473190307617,0.45890235900878906
123,610709440.0,9.1868314743042,-2.2709693908691406,2.3703317642211914,0.0287628173828125,0.01597881317138672,0.004261016845703125,0.40909767150878906,0.6991653442382812,-0.3649473190307617,0.45890235900878906
124,610709504.0,9.201197624206543,-2.29132080078125,2.3739233016967773,0.021305084228515625,0.013848304748535156,0.013848304748535156,0.40909767150878906,0.6991653442382812,-0.3649473190307617,0.45890235900878906
125,610709504.0,9.194014549255371,-2.3020944595336914,2.3643455505371094,0.021305084228515625,0.013848304748535156,0.013848304748535156,0.40909767150878906,0.6991653442382812,-0.3649473190307617,0.45890235900878906
126,610709504.0,9.162888526916504,-2.3080806732177734,2.348782539367676,0.021305084228515625,0.013848304748535156,0.013848304748535156,0.40909767150878906,0.6991653442382812,-0.3649473190307617,0.45890235900878906
127,610709504.0,9.201197624206543,-2.29132080078125,2.3739233016967773,0.021305084228515625,0.013848304748535156,0.013848304748535156,0.40909767150878906,0.6991653442382812,-0.3649473190307617,0.45890235900878906
128,610709504.0,9.194014549255371,-2.3020944595336914,2.3643455505371094,0.021305084228515625,0.013848304748535156,0.013848304748535156,0.40909767150878906,0.6991653442382812,-0.3649473190307617,0.45890235900878906
129,610709504.0,9.162888526916504,-2.3080806732177734,2.348782539367676,0.021305084228515625,0.013848304748535156,0.013848304748535156,0.40909767150878906,0.6991653442382812,-0.3649473190307617,0.45890235900878906
130,610709568.0,9.16408634185791,-2.3092775344848633,2.3332204818725586,0.021305084228515625,0.013848304748535156,0.013848304748535156,0.40909767150878906,0.6991653442382812,-0.3649473190307617,0.45890235900878906
131,610709568.0,9.16408634185791,-2.3092775344848633,2.3332204818725586,0.021305084228515625,0.013848304748535156,0.013848304748535156,0.40909767150878906,0.6991653442382812,-0.3649473190307617,0.45890235900878906
132,610709632.0,9.223942756652832,-2.2506179809570312,2.376317024230957,0.013848304748535156,-0.010652542114257812,0.023435592651367188,0.40909767150878906,0.6991653442382812,-0.3649473190307617,0.45890235900878906
133,610709632.0,9.223942756652832,-2.2506179809570312,2.376317024230957,0.013848304748535156,-0.010652542114257812,0.023435592651367188,0.40909767150878906,0.6991653442382812,-0.3649473190307617,0.45890235900878906
134,610709696.0,9.21436595916748,-2.2398433685302734,2.381105422973633,-0.01810932159423828,-0.005326271057128906,0.023435592651367188,0.40909767150878906,0.6991653442382812,-0.3649473190307617,0.45890235900878906
135,610709696.0,9.197606086730957,-2.262589454650879,2.407443046569824,-0.01810932159423828,-0.005326271057128906,0.023435592651367188,0.40909767150878906,0.6991653442382812,-0.3649473190307617,0.45890235900878906
136,610709696.0,9.147326469421387,-2.280546188354492,2.3954715728759766,-0.01810932159423828,-0.005326271057128906,0.023435592651367188,0.40909767150878906,0.6991653442382812,-0.3649473190307617,0.45890235900878906
137,610709696.0,9.21436595916748,-2.2398433685302734,2.381105422973633,-0.01810932159423828,-0.005326271057128906,0.023435592651367188,0.40909767150878906,0.6991653442382812,-0.3649473190307617,0.45890235900878906
138,610709696.0,9.197606086730957,-2.262589454650879,2.407443046569824,-0.01810932159423828,-0.005326271057128906,0.023435592651367188,0.40909767150878906,0.6991653442382812,-0.3649473190307617,0.45890235900878906
139,610709696.0,9.147326469421387,-2.280546188354492,2.3954715728759766,-0.01810932159423828,-0.005326271057128906,0.023435592651367188,0.40909767150878906,0.6991653442382812,-0.3649473190307617,0.45890235900878906
140,610709760.0,9.179648399353027,-2.2422380447387695,2.3930768966674805,0.0,-0.0063915252685546875,0.020239830017089844,0.40909767150878906,0.6991653442382812,-0.3649473190307617,0.45890235900878906
141,610709760.0,9.179648399353027,-2.2422380447387695,2.3930768966674805,0.0,-0.0063915252685546875,0.020239830017089844,0.40909767150878906,0.6991653442382812,-0.3649473190307617,0.45890235900878906
142,610709888.0,9.226337432861328,-2.249420166015625,2.439764976501465,-0.012783050537109375,-0.007456779479980469,-0.0021305084228515625,0.40862274169921875,0.7017545700073242,-0.3620128631591797,0.4577369689941406
143,610709888.0,9.189226150512695,-2.2350549697875977,2.4277944564819336,-0.012783050537109375,-0.007456779479980469,-0.0021305084228515625,0.40862274169921875,0.7017545700073242,-0.3620128631591797,0.4577369689941406
144,610709888.0,9.23591423034668,-2.194352149963379,2.41103458404541,-0.012783050537109375,-0.007456779479980469,-0.0021305084228515625,0.40862274169921875,0.7017545700073242,-0.3620128631591797,0.4577369689941406
145,610709888.0,9.23471736907959,-2.215900421142578,2.431385040283203,-0.012783050537109375,-0.007456779479980469,-0.0021305084228515625,0.40862274169921875,0.7017545700073242,-0.3620128631591797,0.4577369689941406
146,610709888.0,9.226337432861328,-2.249420166015625,2.439764976501465,-0.012783050537109375,-0.007456779479980469,-0.0021305084228515625,0.40862274169921875,0.7017545700073242,-0.3620128631591797,0.4577369689941406
147,610709888.0,9.189226150512695,-2.2350549697875977,2.4277944564819336,-0.012783050537109375,-0.007456779479980469,-0.0021305084228515625,0.40862274169921875,0.7017545700073242,-0.3620128631591797,0.4577369689941406
148,610709888.0,9.23591423034668,-2.194352149963379,2.41103458404541,-0.012783050537109375,-0.007456779479980469,-0.0021305084228515625,0.40862274169921875,0.7017545700073242,-0.3620128631591797,0.4577369689941406
149,610709888.0,9.23471736907959,-2.215900421142578,2.431385040283203,-0.012783050537109375,-0.007456779479980469,-0.0021305084228515625,0.40862274169921875,0.7017545700073242,-0.3620128631591797,0.4577369689941406
150,610709952.0,9.19640827178955,-2.2434349060058594,2.439764976501465,-0.026632308959960938,0.0,-0.0063915252685546875,0.4087953567504883,0.7016677856445312,-0.36209869384765625,0.45765113830566406
151,610709952.0,9.19640827178955,-2.2434349060058594,2.439764976501465,-0.026632308959960938,0.0,-0.0063915252685546875,0.4087953567504883,0.7016677856445312,-0.36209869384765625,0.45765113830566406
152,610710080.0,9.210774421691895,-2.29132080078125,2.390683174133301,-0.026632308959960938,0.0,-0.0063915252685546875,0.4087953567504883,0.7016677856445312,-0.36209869384765625,0.45765113830566406
153,610710080.0,9.191619873046875,-2.317657470703125,2.375120162963867,-0.026632308959960938,0.0,-0.0063915252685546875,0.4087953567504883,0.7016677856445312,-0.36209869384765625,0.45765113830566406
154,610710080.0,9.1868314743042,-2.3451919555664062,2.378711700439453,-0.026632308959960938,0.0,-0.0063915252685546875,0.4087953567504883,0.7016677856445312,-0.36209869384765625,0.45765113830566406
155,610710144.0,9.173663139343262,-2.349980354309082,2.41342830657959,-0.021305084228515625,-0.005326271057128906,-0.0170440673828125,0.4087953567504883,0.7016677856445312,-0.36209869384765625,0.45765113830566406
156,610710144.0,9.188028335571289,-2.288926124572754,2.3451919555664062,-0.021305084228515625,-0.005326271057128906,-0.0170440673828125,0.4087953567504883,0.7016677856445312,-0.36209869384765625,0.45765113830566406
157,610710144.0,9.192817687988281,-2.317657470703125,2.3942737579345703,-0.021305084228515625,-0.005326271057128906,-0.0170440673828125,0.4087953567504883,0.7016677856445312,-0.36209869384765625,0.45765113830566406
158,610710144.0,9.192817687988281,-2.317657470703125,2.3942737579345703,-0.021305084228515625,-0.005326271057128906,-0.0170440673828125,0.4087953567504883,0.7016677856445312,-0.36209869384765625,0.45765113830566406
159,610710144.0,9.192817687988281,-2.317657470703125,2.3942737579345703,-0.021305084228515625,-0.005326271057128906,-0.0170440673828125,0.4087953567504883,0.7016677856445312,-0.36209869384765625,0.45765113830566406
160,610710208.0,9.246688842773438,-2.340402603149414,2.3559656143188477,-0.0021305084228515625,-0.007456779479980469,-0.007456779479980469,0.4087953567504883,0.7016677856445312,-0.36209869384765625,0.45765113830566406
161,610710208.0,9.199999809265137,-2.34279727935791,2.3523740768432617,-0.0021305084228515625,-0.007456779479980469,-0.007456779479980469,0.4087953567504883,0.7016677856445312,-0.36209869384765625,0.45765113830566406
162,610710208.0,9.201197624206543,-2.3236427307128906,2.3260374069213867,-0.0021305084228515625,-0.007456779479980469,-0.007456779479980469,0.4087953567504883,0.7016677856445312,-0.36209869384765625,0.45765113830566406
163,610710208.0,9.21556282043457,-2.321249008178711,2.347585678100586,-0.0021305084228515625,-0.007456779479980469,-0.007456779479980469,0.4087953567504883,0.7016677856445312,-0.36209869384765625,0.45765113830566406
164,610710208.0,9.246688842773438,-2.340402603149414,2.3559656143188477,-0.0021305084228515625,-0.007456779479980469,-0.007456779479980469,0.4087953567504883,0.7016677856445312,-0.36209869384765625,0.45765113830566406
165,610710208.0,9.199999809265137,-2.34279727935791,2.3523740768432617,-0.0021305084228515625,-0.007456779479980469,-0.007456779479980469,0.4087953567504883,0.7016677856445312,-0.36209869384765625,0.45765113830566406
166,610710208.0,9.201197624206543,-2.3236427307128906,2.3260374069213867,-0.0021305084228515625,-0.007456779479980469,-0.007456779479980469,0.4087953567504883,0.7016677856445312,-0.36209869384765625,0.45765113830566406
167,610710208.0,9.21556282043457,-2.321249008178711,2.347585678100586,-0.0021305084228515625,-0.007456779479980469,-0.007456779479980469,0.4087953567504883,0.7016677856445312,-0.36209869384765625,0.45765113830566406
168,610710208.0,9.246688842773438,-2.340402603149414,2.3559656143188477,-0.0021305084228515625,-0.007456779479980469,-0.007456779479980469,0.4087953567504883,0.7016677856445312,-0.36209869384765625,0.45765113830566406
169,610710208.0,9.199999809265137,-2.34279727935791,2.3523740768432617,-0.0021305084228515625,-0.007456779479980469,-0.007456779479980469,0.4087953567504883,0.7016677856445312,-0.36209869384765625,0.45765113830566406
170,610710208.0,9.201197624206543,-2.3236427307128906,2.3260374069213867,-0.0021305084228515625,-0.007456779479980469,-0.007456779479980469,0.4087953567504883,0.7016677856445312,-0.36209869384765625,0.45765113830566406
171,610710208.0,9.21556282043457,-2.321249008178711,2.347585678100586,-0.0021305084228515625,-0.007456779479980469,-0.007456779479980469,0.4087953567504883,0.7016677856445312,-0.36209869384765625,0.45765113830566406
172,610710464.0,9.220351219177246,-2.3332204818725586,2.406245231628418,-0.022370338439941406,0.0063915252685546875,0.014913558959960938,0.4092702865600586,0.6997261047363281,-0.36490440368652344,0.45795249938964844
173,610710464.0,9.245491027832031,-2.296109199523926,2.4206113815307617,-0.022370338439941406,0.0063915252685546875,0.014913558959960938,0.4092702865600586,0.6997261047363281,-0.36490440368652344,0.45795249938964844
174,610710528.0,9.252674102783203,-2.2506179809570312,2.405048370361328,-0.004261016845703125,0.00852203369140625,0.010652542114257812,0.40991783142089844,0.6999416351318359,-0.36434364318847656,0.45747852325439453
175,610710528.0,9.232322692871094,-2.2410402297973633,2.372725486755371,-0.004261016845703125,0.00852203369140625,0.010652542114257812,0.40991783142089844,0.6999416351318359,-0.36434364318847656,0.45747852325439453
176,610710528.0,9.1868314743042,-2.280546188354492,2.3990631103515625,-0.004261016845703125,0.00852203369140625,0.010652542114257812,0.40991783142089844,0.6999416351318359,-0.36434364318847656,0.45747852325439453
177,610710528.0,9.180846214294434,-2.3020944595336914,2.3679370880126953,-0.004261016845703125,0.00852203369140625,0.010652542114257812,0.40991783142089844,0.6999416351318359,-0.36434364318847656,0.45747852325439453
178,610710592.0,9.217957496643066,-2.2398433685302734,2.408639907836914,0.004261016845703125,0.005326271057128906,0.011717796325683594,0.40983104705810547,0.7002439498901367,-0.3639545440673828,0.45747852325439453
179,610710592.0,9.239505767822266,-2.22308349609375,2.369133949279785,0.004261016845703125,0.005326271057128906,0.011717796325683594,0.40983104705810547,0.7002439498901367,-0.3639545440673828,0.45747852325439453
180,610710592.0,9.220351219177246,-2.258997917175293,2.3595571517944336,0.004261016845703125,0.005326271057128906,0.011717796325683594,0.40983104705810547,0.7002439498901367,-0.3639545440673828,0.45747852325439453
181,610710656.0,9.221549034118652,-2.2901229858398438,2.348782539367676,-0.0010652542114257812,0.00852203369140625,0.0063915252685546875,0.40983104705810547,0.7002439498901367,-0.3639545440673828,0.45747852325439453
182,610710656.0,9.192817687988281,-2.2757577896118164,2.3631486892700195,-0.0010652542114257812,0.00852203369140625,0.0063915252685546875,0.40983104705810547,0.7002439498901367,-0.3639545440673828,0.45747852325439453
183,610710656.0,9.190423011779785,-2.2087182998657227,2.3703317642211914,-0.0010652542114257812,0.00852203369140625,0.0063915252685546875,0.40983104705810547,0.7002439498901367,-0.3639545440673828,0.45747852325439453
184,610710720.0,9.205986022949219,-2.2733631134033203,2.3523740768432617,0.02769756317138672,0.0021305084228515625,0.0,0.40983104705810547,0.7002439498901367,-0.3639545440673828,0.45747852325439453
185,610710720.0,9.23471736907959,-2.3032913208007812,2.406245231628418,0.02769756317138672,0.0021305084228515625,0.0,0.40983104705810547,0.7002439498901367,-0.3639545440673828,0.45747852325439453
186,610710720.0,9.18443775177002,-2.3631486892700195,2.379908561706543,0.02769756317138672,0.0021305084228515625,0.0,0.40983104705810547,0.7002439498901367,-0.3639545440673828,0.45747852325439453
187,610710976.0,12.771060943603516,-7.047547340393066,5.603799819946289,0.15340232849121094,-0.010652542114257812,0.06498241424560547,0.4005088806152344,0.730799674987793,-0.3194150924682617,0.45117664337158203
188,610710976.0,13.251112937927246,-7.68442440032959,6.585452079772949,0.15340232849121094,-0.010652542114257812,0.06498241424560547,0.4005088806152344,0.730799674987793,-0.3194150924682617,0.45117664337158203
189,610710976.0,14.429096221923828,-9.409499168395996,7.416265487670898,0.15340232849121094,-0.010652542114257812,0.06498241424560547,0.4005088806152344,0.730799674987793,-0.3194150924682617,0.45117664337158203
190,610710976.0,12.771060943603516,-7.047547340393066,5.603799819946289,0.15340232849121094,-0.010652542114257812,0.06498241424560547,0.4005088806152344,0.730799674987793,-0.3194150924682617,0.45117664337158203
191,610710976.0,13.251112937927246,-7.68442440032959,6.585452079772949,0.15340232849121094,-0.010652542114257812,0.06498241424560547,0.4005088806152344,0.730799674987793,-0.3194150924682617,0.45117664337158203
192,610710976.0,14.429096221923828,-9.409499168395996,7.416265487670898,0.15340232849121094,-0.010652542114257812,0.06498241424560547,0.4005088806152344,0.730799674987793,-0.3194150924682617,0.45117664337158203
193,610711040.0,15.221600532531738,-12.537618637084961,5.838438034057617,1.3092498779296875,3.006267547607422,5.0218095779418945,0.3860940933227539,0.8682594299316406,-0.08847522735595703,0.29865550994873047
194,610711040.0,14.32015609741211,-12.420299530029297,6.592635154724121,1.3092498779296875,3.006267547607422,5.0218095779418945,0.3860940933227539,0.8682594299316406,-0.08847522735595703,0.29865550994873047
195,610711040.0,15.221600532531738,-12.537618637084961,5.838438034057617,1.3092498779296875,3.006267547607422,5.0218095779418945,0.3860940933227539,0.8682594299316406,-0.08847522735595703,0.29865550994873047
196,610711040.0,14.32015609741211,-12.420299530029297,6.592635154724121,1.3092498779296875,3.006267547607422,5.0218095779418945,0.3860940933227539,0.8682594299316406,-0.08847522735595703,0.29865550994873047
197,610711040.0,11.721171379089355,-9.262250900268555,7.7849836349487305,1.3092498779296875,3.006267547607422,5.0218095779418945,0.3860940933227539,0.8682594299316406,-0.08847522735595703,0.29865550994873047
198,610711104.0,8.992895126342773,-8.719947814941406,7.454573631286621,1.2112417221069336,3.632661819458008,5.147514343261719,0.39826488494873047,0.9052457809448242,0.0130767822265625,0.14751434326171875
199,610711104.0,6.888327598571777,-10.324111938476562,5.810904502868652,1.2112417221069336,3.632661819458008,5.147514343261719,0.39826488494873047,0.9052457809448242,0.0130767822265625,0.14751434326171875
200,610711104.0,5.213532447814941,-9.90750789642334,3.565074920654297,1.2112417221069336,3.632661819458008,5.147514343261719,0.39826488494873047,0.9052457809448242,0.0130767822265625,0.14751434326171875
201,610711104.0,2.7462329864501953,-8.302146911621094,3.274169921875,1.2112417221069336,3.632661819458008,5.147514343261719,0.39826488494873047,0.9052457809448242,0.0130767822265625,0.14751434326171875
202,610711168.0,1.2821340560913086,-3.9481582641601562,3.8511905670166016,1.2112417221069336,3.632661819458008,5.147514343261719,0.39826488494873047,0.9052457809448242,0.0130767822265625,0.14751434326171875
203,610711168.0,0.5794143676757812,-3.46451473236084,2.8707351684570312,1.2112417221069336,3.632661819458008,5.147514343261719,0.39826488494873047,0.9052457809448242,0.0130767822265625,0.14751434326171875
204,610711168.0,-0.4680805206298828,-5.713935852050781,1.5850095748901367,1.2112417221069336,3.632661819458008,5.147514343261719,0.39826488494873047,0.9052457809448242,0.0130767822265625,0.14751434326171875
205,610711232.0,-0.7470130920410156,-5.117761611938477,1.2498111724853516,0.7286624908447266,2.4981212615966797,4.6063432693481445,0.39826488494873047,0.9052457809448242,0.0130767822265625,0.14751434326171875
206,610711232.0,-0.7745475769042969,-4.265399932861328,1.9214048385620117,0.7286624908447266,2.4981212615966797,4.6063432693481445,0.39826488494873047,0.9052457809448242,0.0130767822265625,0.14751434326171875
207,610711232.0,-1.4617042541503906,-4.15406608581543,1.321639060974121,0.7286624908447266,2.4981212615966797,4.6063432693481445,0.39826488494873047,0.9052457809448242,0.0130767822265625,0.14751434326171875
208,610711296.0,-1.9405593872070312,-4.4748992919921875,0.6691989898681641,-1.5191125869750977,1.2868785858154297,3.748779296875,0.39826488494873047,0.9052457809448242,0.0130767822265625,0.14751434326171875
209,610711296.0,-2.158437728881836,-4.63531494140625,0.36871814727783203,-1.5191125869750977,1.2868785858154297,3.748779296875,0.39826488494873047,0.9052457809448242,0.0130767822265625,0.14751434326171875
210,610711296.0,-3.065868377685547,-4.350397109985352,0.2286529541015625,-1.5191125869750977,1.2868785858154297,3.748779296875,0.39826488494873047,0.9052457809448242,0.0130767822265625,0.14751434326171875
211,610711360.0,-3.4549379348754883,-5.158464431762695,0.43815135955810547,-1.5191125869750977,1.2868785858154297,3.748779296875,0.39826488494873047,0.9052457809448242,0.0130767822265625,0.14751434326171875
212,610711360.0,-3.6943655014038086,-4.851997375488281,0.5542745590209961,-1.5191125869750977,1.2868785858154297,3.748779296875,0.39826488494873047,0.9052457809448242,0.0130767822265625,0.14751434326171875
213,610711360.0,-4.629329681396484,-4.387508392333984,-0.33759212493896484,-1.5191125869750977,1.2868785858154297,3.748779296875,0.39826488494873047,0.9052457809448242,0.0130767822265625,0.14751434326171875
214,610711360.0,-3.6943655014038086,-4.851997375488281,0.5542745590209961,-1.5191125869750977,1.2868785858154297,3.748779296875,0.39826488494873047,0.9052457809448242,0.0130767822265625,0.14751434326171875
215,610711360.0,-4.629329681396484,-4.387508392333984,-0.33759212493896484,-1.5191125869750977,1.2868785858154297,3.748779296875,0.39826488494873047,0.9052457809448242,0.0130767822265625,0.14751434326171875
216,610711424.0,-5.575068473815918,-4.160052299499512,-1.7681713104248047,-4.48063850402832,-2.0261945724487305,2.342587471008301,0.39826488494873047,0.9052457809448242,0.0130767822265625,0.14751434326171875
217,610711424.0,-5.680416107177734,-4.719115257263184,-2.966506004333496,-4.48063850402832,-2.0261945724487305,2.342587471008301,0.39826488494873047,0.9052457809448242,0.0130767822265625,0.14751434326171875
218,610711424.0,-5.560702323913574,-4.610175132751465,-3.1341047286987305,-4.48063850402832,-2.0261945724487305,2.342587471008301,0.39826488494873047,0.9052457809448242,0.0130767822265625,0.14751434326171875
219,610711424.0,-5.575068473815918,-4.160052299499512,-1.7681713104248047,-4.48063850402832,-2.0261945724487305,2.342587471008301,0.39826488494873047,0.9052457809448242,0.0130767822265625,0.14751434326171875
220,610711424.0,-5.680416107177734,-4.719115257263184,-2.966506004333496,-4.48063850402832,-2.0261945724487305,2.342587471008301,0.39826488494873047,0.9052457809448242,0.0130767822265625,0.14751434326171875
221,610711424.0,-5.560702323913574,-4.610175132751465,-3.1341047286987305,-4.48063850402832,-2.0261945724487305,2.342587471008301,0.39826488494873047,0.9052457809448242,0.0130767822265625,0.14751434326171875
222,610711680.0,-13.047599792480469,-6.926636695861816,-8.320104598999023,4.72672176361084,-0.9608974456787109,-0.09481048583984375,0.43809986114501953,0.6529855728149414,0.5904922485351562,-0.1816539764404297
223,610711680.0,-17.00533676147461,-5.470917701721191,-14.964216232299805,4.72672176361084,-0.9608974456787109,-0.09481048583984375,0.43809986114501953,0.6529855728149414,0.5904922485351562,-0.1816539764404297
224,610711680.0,-15.231178283691406,-6.215537071228027,-12.31614875793457,4.72672176361084,-0.9608974456787109,-0.09481048583984375,0.43809986114501953,0.6529855728149414,0.5904922485351562,-0.1816539764404297
225,610711680.0,-13.047599792480469,-6.926636695861816,-8.320104598999023,4.72672176361084,-0.9608974456787109,-0.09481048583984375,0.43809986114501953,0.6529855728149414,0.5904922485351562,-0.1816539764404297
226,610711680.0,-17.00533676147461,-5.470917701721191,-14.964216232299805,4.72672176361084,-0.9608974456787109,-0.09481048583984375,0.43809986114501953,0.6529855728149414,0.5904922485351562,-0.1816539764404297
227,610711680.0,-15.231178283691406,-6.215537071228027,-12.31614875793457,4.72672176361084,-0.9608974456787109,-0.09481048583984375,0.43809986114501953,0.6529855728149414,0.5904922485351562,-0.1816539764404297
228,610711680.0,-13.047599792480469,-6.926636695861816,-8.320104598999023,4.72672176361084,-0.9608974456787109,-0.09481048583984375,0.43809986114501953,0.6529855728149414,0.5904922485351562,-0.1816539764404297
229,610711680.0,-17.00533676147461,-5.470917701721191,-14.964216232299805,4.72672176361084,-0.9608974456787109,-0.09481048583984375,0.43809986114501953,0.6529855728149414,0.5904922485351562,-0.1816539764404297
230,610711680.0,-15.231178283691406,-6.215537071228027,-12.31614875793457,4.72672176361084,-0.9608974456787109,-0.09481048583984375,0.43809986114501953,0.6529855728149414,0.5904922485351562,-0.1816539764404297
231,610711744.0,-10.26664924621582,-0.773350715637207,-6.100611686706543,4.72672176361084,-0.9608974456787109,-0.09481048583984375,0.43809986114501953,0.6529855728149414,0.5904922485351562,-0.1816539764404297
232,610711744.0,-9.490904808044434,-0.4860372543334961,-2.4026546478271484,4.72672176361084,-0.9608974456787109,-0.09481048583984375,0.43809986114501953,0.6529855728149414,0.5904922485351562,-0.1816539764404297
233,610711744.0,-10.26664924621582,-0.773350715637207,-6.100611686706543,4.72672176361084,-0.9608974456787109,-0.09481048583984375,0.43809986114501953,0.6529855728149414,0.5904922485351562,-0.1816539764404297
234,610711744.0,-9.490904808044434,-0.4860372543334961,-2.4026546478271484,4.72672176361084,-0.9608974456787109,-0.09481048583984375,0.43809986114501953,0.6529855728149414,0.5904922485351562,-0.1816539764404297
235,610711744.0,-10.26664924621582,-0.773350715637207,-6.100611686706543,4.72672176361084,-0.9608974456787109,-0.09481048583984375,0.43809986114501953,0.6529855728149414,0.5904922485351562,-0.1816539764404297
236,610711744.0,-9.490904808044434,-0.4860372543334961,-2.4026546478271484,4.72672176361084,-0.9608974456787109,-0.09481048583984375,0.43809986114501953,0.6529855728149414,0.5904922485351562,-0.1816539764404297
237,610711744.0,25.833026885986328,8.518829345703125,39.08892822265625,4.72672176361084,-0.9608974456787109,-0.09481048583984375,0.43809986114501953,0.6529855728149414,0.5904922485351562,-0.1816539764404297
238,610711744.0,-9.92546558380127,-14.098686218261719,-0.15203571319580078,4.72672176361084,-0.9608974456787109,-0.09481048583984375,0.43809986114501953,0.6529855728149414,0.5904922485351562,-0.1816539764404297
239,610711808.0,-13.351672172546387,-0.3100576400756836,3.1724138259887695,4.72672176361084,-0.9608974456787109,-0.09481048583984375,0.43809986114501953,0.6529855728149414,0.5904922485351562,-0.1816539764404297
240,610711808.0,3.5399351119995117,-0.2130899429321289,7.951385498046875,4.72672176361084,-0.9608974456787109,-0.09481048583984375,0.43809986114501953,0.6529855728149414,0.5904922485351562,-0.1816539764404297
241,610711808.0,-0.04429340362548828,-1.045100212097168,10.983735084533691,4.72672176361084,-0.9608974456787109,-0.09481048583984375,0.43809986114501953,0.6529855728149414,0.5904922485351562,-0.1816539764404297
242,610711872.0,-2.266180992126465,-4.480884552001953,8.753467559814453,1.789698600769043,0.005326271057128906,-2.446986198425293,0.43809986114501953,0.6529855728149414,0.5904922485351562,-0.1816539764404297
243,610711872.0,-2.196746826171875,-4.576655387878418,6.621366500854492,1.789698600769043,0.005326271057128906,-2.446986198425293,0.43809986114501953,0.6529855728149414,0.5904922485351562,-0.1816539764404297
244,610711872.0,-2.094989776611328,-3.595003128051758,4.121743202209473,1.789698600769043,0.005326271057128906,-2.446986198425293,0.43809986114501953,0.6529855728149414,0.5904922485351562,-0.1816539764404297
245,610711936.0,-2.7366552352905273,-3.7853479385375977,3.123331069946289,1.0024442672729492,-0.5944347381591797,-3.7210817337036133,0.39930057525634766,0.7723617553710938,0.4678363800048828,-0.15856456756591797
246,610711936.0,-2.53433895111084,-3.987664222717285,3.525568962097168,1.0024442672729492,-0.5944347381591797,-3.7210817337036133,0.39930057525634766,0.7723617553710938,0.4678363800048828,-0.15856456756591797
247,610712064.0,-0.9421463012695312,-3.5734548568725586,2.3523740768432617,2.0943737030029297,-1.4040613174438477,-4.90888786315918,0.3592061996459961,0.8530673980712891,0.3634796142578125,-0.10535049438476562
248,610712064.0,0.02035045623779297,-3.208327293395996,2.5271568298339844,2.0943737030029297,-1.4040613174438477,-4.90888786315918,0.3592061996459961,0.8530673980712891,0.3634796142578125,-0.10535049438476562
249,610712064.0,0.26456642150878906,-4.115757942199707,2.7426414489746094,2.0943737030029297,-1.4040613174438477,-4.90888786315918,0.3592061996459961,0.8530673980712891,0.3634796142578125,-0.10535049438476562
250,610712128.0,0.3974494934082031,-4.1325178146362305,3.5710601806640625,2.0943737030029297,-1.4040613174438477,-4.90888786315918,0.3592061996459961,0.8530673980712891,0.3634796142578125,-0.10535049438476562
251,610712128.0,1.9070396423339844,-6.593832015991211,6.1365251541137695,2.0943737030029297,-1.4040613174438477,-4.90888786315918,0.3592061996459961,0.8530673980712891,0.3634796142578125,-0.10535049438476562
252,610712128.0,5.227898597717285,-11.617020606994629,8.794170379638672,2.0943737030029297,-1.4040613174438477,-4.90888786315918,0.3592061996459961,0.8530673980712891,0.3634796142578125,-0.10535049438476562
253,610712192.0,5.599010467529297,-8.611008644104004,7.868782997131348,2.0943737030029297,-1.4040613174438477,-4.90888786315918,0.3592061996459961,0.8530673980712891,0.3634796142578125,-0.10535049438476562
254,610712192.0,4.246245384216309,-7.143318176269531,5.869564056396484,2.0943737030029297,-1.4040613174438477,-4.90888786315918,0.3592061996459961,0.8530673980712891,0.3634796142578125,-0.10535049438476562
255,610712192.0,5.328457832336426,-4.9417829513549805,6.142511367797852,2.0943737030029297,-1.4040613174438477,-4.90888786315918,0.3592061996459961,0.8530673980712891,0.3634796142578125,-0.10535049438476562
256,610712256.0,7.858009338378906,-4.195965766906738,5.674430847167969,2.0943737030029297,-1.4040613174438477,-4.90888786315918,0.3592061996459961,0.8530673980712891,0.3634796142578125,-0.10535049438476562
257,610712384.0,15.640599250793457,-4.9417829513549805,5.444580078125,-0.8522367477416992,-0.8415842056274414,-1.2911396026611328,0.3592061996459961,0.8530673980712891,0.3634796142578125,-0.10535049438476562
258,610712384.0,12.844086647033691,-4.574261665344238,6.033572196960449,-0.8522367477416992,-0.8415842056274414,-1.2911396026611328,0.3592061996459961,0.8530673980712891,0.3634796142578125,-0.10535049438476562
259,610712384.0,10.479740142822266,-3.003617286682129,5.962940216064453,-0.8522367477416992,-0.8415842056274414,-1.2911396026611328,0.3592061996459961,0.8530673980712891,0.3634796142578125,-0.10535049438476562
260,610712448.0,9.580689430236816,-0.9409494400024414,5.523591041564941,-0.8426494598388672,-0.4655342102050781,-0.18642616271972656,0.3592061996459961,0.8530673980712891,0.3634796142578125,-0.10535049438476562
261,610712448.0,10.310943603515625,-0.1975269317626953,5.078256607055664,-0.8426494598388672,-0.4655342102050781,-0.18642616271972656,0.3592061996459961,0.8530673980712891,0.3634796142578125,-0.10535049438476562
262,610712448.0,10.198412895202637,-0.0790109634399414,4.298919677734375,-0.8426494598388672,-0.4655342102050781,-0.18642616271972656,0.3592061996459961,0.8530673980712891,0.3634796142578125,-0.10535049438476562
263,610712512.0,9.203591346740723,0.027533531188964844,3.713520050048828,-0.8426494598388672,-0.4655342102050781,-0.18642616271972656,0.3592061996459961,0.8530673980712891,0.3634796142578125,-0.10535049438476562
264,610712512.0,8.733116149902344,-0.2968893051147461,3.714716911315918,-0.8426494598388672,-0.4655342102050781,-0.18642616271972656,0.3592061996459961,0.8530673980712891,0.3634796142578125,-0.10535049438476562
265,610712512.0,8.861209869384766,-0.6560306549072266,3.7913331985473633,-0.8426494598388672,-0.4655342102050781,-0.18642616271972656,0.3592061996459961,0.8530673980712891,0.3634796142578125,-0.10535049438476562
266,610712576.0,8.97733211517334,-0.30646705627441406,4.2270917892456055,-0.8426494598388672,-0.4655342102050781,-0.18642616271972656,0.3592061996459961,0.8530673980712891,0.3634796142578125,-0.10535049438476562
267,610712576.0,9.223942756652832,-0.15203571319580078,4.377930641174316,-0.8426494598388672,-0.4655342102050781,-0.18642616271972656,0.3592061996459961,0.8530673980712891,0.3634796142578125,-0.10535049438476562
268,610712576.0,9.652518272399902,-0.028730392456054688,4.334834098815918,-0.8426494598388672,-0.4655342102050781,-0.18642616271972656,0.3592061996459961,0.8530673980712891,0.3634796142578125,-0.10535049438476562
269,610712640.0,9.889551162719727,-0.3028755187988281,3.8918933868408203,-0.6967039108276367,0.04793834686279297,0.3515472412109375,0.3592061996459961,0.8530673980712891,0.3634796142578125,-0.10535049438476562
270,610712640.0,9.723149299621582,-0.17478179931640625,3.3783206939697266,-0.6967039108276367,0.04793834686279297,0.3515472412109375,0.3592061996459961,0.8530673980712891,0.3634796142578125,-0.10535049438476562
271,610712640.0,9.571112632751465,-0.1975269317626953,3.0419254302978516,-0.6967039108276367,0.04793834686279297,0.3515472412109375,0.3592061996459961,0.8530673980712891,0.3634796142578125,-0.10535049438476562
272,610712640.0,9.680051803588867,-0.3998432159423828,2.625321388244629,-0.6967039108276367,0.04793834686279297,0.3515472412109375,0.3592061996459961,0.8530673980712891,0.3634796142578125,-0.10535049438476562
273,610712704.0,9.549564361572266,-0.2418212890625,2.340402603149414,-0.6381120681762695,0.19921016693115234,0.4250526428222656,0.3592061996459961,0.8530673980712891,0.3634796142578125,-0.10535049438476562
274,610712704.0,9.350839614868164,-0.11971282958984375,2.4206113815307617,-0.6381120681762695,0.19921016693115234,0.4250526428222656,0.3592061996459961,0.8530673980712891,0.3634796142578125,-0.10535049438476562
275,610712704.0,9.35443115234375,-0.14365577697753906,2.5846195220947266,-0.6381120681762695,0.19921016693115234,0.4250526428222656,0.3592061996459961,0.8530673980712891,0.3634796142578125,-0.10535049438476562
276,610712768.0,9.511256217956543,-0.26097583770751953,2.595393180847168,-0.7606210708618164,0.2024059295654297,0.43464088439941406,0.3592061996459961,0.8530673980712891,0.3634796142578125,-0.10535049438476562
277,610712768.0,9.38675308227539,-0.3447751998901367,2.4984254837036133,-0.7606210708618164,0.2024059295654297,0.43464088439941406,0.3592061996459961,0.8530673980712891,0.3634796142578125,-0.10535049438476562
278,610712768.0,9.325699806213379,-0.45610904693603516,2.503213882446289,-0.7606210708618164,0.2024059295654297,0.43464088439941406,0.3592061996459961,0.8530673980712891,0.3634796142578125,-0.10535049438476562
279,610712832.0,9.379570960998535,-0.5889911651611328,2.4146251678466797,-0.17151260375976562,0.061786651611328125,0.3185234069824219,0.3592061996459961,0.8530673980712891,0.3634796142578125,-0.10535049438476562
280,610712832.0,9.372387886047363,-0.8691215515136719,2.256603240966797,-0.17151260375976562,0.061786651611328125,0.3185234069824219,0.3592061996459961,0.8530673980712891,0.3634796142578125,-0.10535049438476562
281,610712832.0,9.381964683532715,-0.9086265563964844,2.2398433685302734,-0.17151260375976562,0.061786651611328125,0.3185234069824219,0.3592061996459961,0.8530673980712891,0.3634796142578125,-0.10535049438476562
282,610712896.0,9.277813911437988,-0.9122180938720703,2.3715286254882812,0.14807605743408203,-0.031958580017089844,0.2141246795654297,0.3592061996459961,0.8530673980712891,0.3634796142578125,-0.10535049438476562
283,610712896.0,9.244294166564941,-0.8715152740478516,2.529550552368164,0.14807605743408203,-0.031958580017089844,0.2141246795654297,0.3592061996459961,0.8530673980712891,0.3634796142578125,-0.10535049438476562
284,610712896.0,9.225139617919922,-0.8248271942138672,2.5510988235473633,0.14807605743408203,-0.031958580017089844,0.2141246795654297,0.3592061996459961,0.8530673980712891,0.3634796142578125,-0.10535049438476562
285,610712960.0,9.211971282958984,-0.8798952102661133,2.53433895111084,0.13422679901123047,-0.06817817687988281,0.08735370635986328,0.3592061996459961,0.8530673980712891,0.3634796142578125,-0.10535049438476562
286,610712960.0,9.233519554138184,-1.011580467224121,2.5487051010131836,0.13422679901123047,-0.06817817687988281,0.08735370635986328,0.3592061996459961,0.8530673980712891,0.3634796142578125,-0.10535049438476562
287,610712960.0,9.220351219177246,-1.0139751434326172,2.650461196899414,0.13422679901123047,-0.06817817687988281,0.08735370635986328,0.3592061996459961,0.8530673980712891,0.3634796142578125,-0.10535049438476562
288,610712960.0,9.274222373962402,-1.0032005310058594,2.7031354904174805,0.13422679901123047,-0.06817817687988281,0.08735370635986328,0.3592061996459961,0.8530673980712891,0.3634796142578125,-0.10535049438476562
289,610713024.0,9.308939933776855,-1.0055952072143555,2.7055301666259766,0.00852203369140625,-0.09054946899414062,0.0010652542114257812,0.3592061996459961,0.8530673980712891,0.3634796142578125,-0.10535049438476562
290,610713024.0,9.241899490356445,-1.0307350158691406,2.717501640319824,0.00852203369140625,-0.09054946899414062,0.0010652542114257812,0.3592061996459961,0.8530673980712891,0.3634796142578125,-0.10535049438476562
291,610713024.0,9.30774211883545,-1.2294597625732422,2.806089401245117,0.00852203369140625,-0.09054946899414062,0.0010652542114257812,0.3592061996459961,0.8530673980712891,0.3634796142578125,-0.10535049438476562
292,610713088.0,9.359219551086426,-1.3072738647460938,2.875523567199707,0.00852203369140625,-0.09054946899414062,0.0010652542114257812,0.3592061996459961,0.8530673980712891,0.3634796142578125,-0.10535049438476562
293,610713088.0,9.364007949829102,-1.325230598449707,2.8252439498901367,0.00852203369140625,-0.09054946899414062,0.0010652542114257812,0.3592061996459961,0.8530673980712891,0.3634796142578125,-0.10535049438476562
294,610713088.0,9.330488204956055,-1.321639060974121,2.898268699645996,0.00852203369140625,-0.09054946899414062,0.0010652542114257812,0.3592061996459961,0.8530673980712891,0.3634796142578125,-0.10535049438476562
295,610713152.0,9.316122055053711,-1.289316177368164,2.9461545944213867,0.00852203369140625,-0.09054946899414062,0.0010652542114257812,0.3592061996459961,0.8530673980712891,0.3634796142578125,-0.10535049438476562
296,610713152.0,9.312531471252441,-1.2976961135864258,2.9724912643432617,0.00852203369140625,-0.09054946899414062,0.0010652542114257812,0.3592061996459961,0.8530673980712891,0.3634796142578125,-0.10535049438476562
297,610713152.0,9.30654525756836,-1.2845277786254883,2.8839035034179688,0.00852203369140625,-0.09054946899414062,0.0010652542114257812,0.3592061996459961,0.8530673980712891,0.3634796142578125,-0.10535049438476562
298,610713216.0,9.290982246398926,-1.3192453384399414,2.8994665145874023,0.00852203369140625,-0.09054946899414062,0.0010652542114257812,0.3592061996459961,0.8530673980712891,0.3634796142578125,-0.10535049438476562
299,610713216.0,9.247885704040527,-1.332413673400879,2.9210147857666016,0.00852203369140625,-0.09054946899414062,0.0010652542114257812,0.3592061996459961,0.8530673980712891,0.3634796142578125,-0.10535049438476562
300,610713216.0,9.320911407470703,-1.383890151977539,2.875523567199707,0.00852203369140625,-0.09054946899414062,0.0010652542114257812,0.3592061996459961,0.8530673980712891,0.3634796142578125,-0.10535049438476562
301,610713216.0,9.249082565307617,-1.3862848281860352,2.845595359802246,0.00852203369140625,-0.09054946899414062,0.0010652542114257812,0.3592061996459961,0.8530673980712891,0.3634796142578125,-0.10535049438476562
302,610713280.0,9.342459678649902,-1.4605073928833008,2.7761611938476562,0.026632308959960938,-0.0287628173828125,-0.0628519058227539,0.32234954833984375,0.7144861221313477,-0.34746837615966797,0.5146627426147461
303,610713280.0,9.434638977050781,-1.4569158554077148,2.8515806198120117,0.026632308959960938,-0.0287628173828125,-0.0628519058227539,0.32234954833984375,0.7144861221313477,-0.34746837615966797,0.5146627426147461
304,610713280.0,9.378373146057129,-1.3994531631469727,2.847989082336426,0.026632308959960938,-0.0287628173828125,-0.0628519058227539,0.32234954833984375,0.7144861221313477,-0.34746837615966797,0.5146627426147461
305,610713344.0,9.33527660369873,-1.3970584869384766,2.7749643325805664,0.011717796325683594,-0.014913558959960938,-0.04474163055419922,0.3221769332885742,0.7146587371826172,-0.34746837615966797,0.5145769119262695
306,610713344.0,9.353233337402344,-1.3982563018798828,2.7929210662841797,0.011717796325683594,-0.014913558959960938,-0.04474163055419922,0.3221769332885742,0.7146587371826172,-0.34746837615966797,0.5145769119262695
307,610713472.0,9.330488204956055,-1.2557964324951172,2.783344268798828,0.011717796325683594,-0.014913558959960938,-0.04474163055419922,0.3221769332885742,0.7146587371826172,-0.34746837615966797,0.5145769119262695
308,610713472.0,9.21675968170166,-1.2318534851074219,2.7139101028442383,0.011717796325683594,-0.014913558959960938,-0.04474163055419922,0.3221769332885742,0.7146587371826172,-0.34746837615966797,0.5145769119262695
309,610713472.0,9.330488204956055,-1.2557964324951172,2.783344268798828,0.011717796325683594,-0.014913558959960938,-0.04474163055419922,0.3221769332885742,0.7146587371826172,-0.34746837615966797,0.5145769119262695
310,610713472.0,9.21675968170166,-1.2318534851074219,2.7139101028442383,0.011717796325683594,-0.014913558959960938,-0.04474163055419922,0.3221769332885742,0.7146587371826172,-0.34746837615966797,0.5145769119262695
311,610713536.0,9.30654525756836,-1.3036823272705078,2.7222900390625,0.011717796325683594,-0.014913558959960938,-0.04474163055419922,0.3221769332885742,0.7146587371826172,-0.34746837615966797,0.5145769119262695
312,610713536.0,9.349641799926758,-1.2438249588012695,2.72348690032959,0.011717796325683594,-0.014913558959960938,-0.04474163055419922,0.3221769332885742,0.7146587371826172,-0.34746837615966797,0.5145769119262695
313,610713536.0,9.341261863708496,-1.200728416442871,2.7019386291503906,0.011717796325683594,-0.014913558959960938,-0.04474163055419922,0.3221769332885742,0.7146587371826172,-0.34746837615966797,0.5145769119262695
314,610713536.0,9.30654525756836,-1.3036823272705078,2.7222900390625,0.011717796325683594,-0.014913558959960938,-0.04474163055419922,0.3221769332885742,0.7146587371826172,-0.34746837615966797,0.5145769119262695
315,610713536.0,9.349641799926758,-1.2438249588012695,2.72348690032959,0.011717796325683594,-0.014913558959960938,-0.04474163055419922,0.3221769332885742,0.7146587371826172,-0.34746837615966797,0.5145769119262695
316,610713536.0,9.341261863708496,-1.200728416442871,2.7019386291503906,0.011717796325683594,-0.014913558959960938,-0.04474163055419922,0.3221769332885742,0.7146587371826172,-0.34746837615966797,0.5145769119262695
317,610713600.0,9.319713592529297,-1.1181259155273438,2.6516590118408203,0.011717796325683594,-0.014913558959960938,-0.04474163055419922,0.3221769332885742,0.7146587371826172,-0.34746837615966797,0.5145769119262695
318,610713600.0,9.233519554138184,-1.1803770065307617,2.6193361282348633,0.011717796325683594,-0.014913558959960938,-0.04474163055419922,0.3221769332885742,0.7146587371826172,-0.34746837615966797,0.5145769119262695
319,610713600.0,9.320911407470703,-1.2426280975341797,2.6480674743652344,0.011717796325683594,-0.014913558959960938,-0.04474163055419922,0.3221769332885742,0.7146587371826172,-0.34746837615966797,0.5145769119262695
320,610713600.0,9.371191024780273,-1.2318534851074219,2.649264335632324,0.011717796325683594,-0.014913558959960938,-0.04474163055419922,0.3221769332885742,0.7146587371826172,-0.34746837615966797,0.5145769119262695
321,610713664.0,9.28619384765625,-1.169602394104004,2.6444759368896484,-0.03941535949707031,0.010652542114257812,-0.019174575805664062,0.3239889144897461,0.7166872024536133,-0.3494110107421875,0.5092248916625977
322,610713664.0,9.312531471252441,-1.230656623840332,2.606167793273926,-0.03941535949707031,0.010652542114257812,-0.019174575805664062,0.3239889144897461,0.7166872024536133,-0.3494110107421875,0.5092248916625977
323,610713664.0,9.340065002441406,-1.200728416442871,2.590604782104492,-0.03941535949707031,0.010652542114257812,-0.019174575805664062,0.3239889144897461,0.7166872024536133,-0.3494110107421875,0.5092248916625977
324,610713728.0,9.347248077392578,-1.2222766876220703,2.6097593307495117,-0.021305084228515625,-0.00852203369140625,0.00852203369140625,0.3249387741088867,0.7163419723510742,-0.3498420715332031,0.508793830871582
325,610713728.0,9.326896667480469,-1.2186851501464844,2.656447410583496,-0.021305084228515625,-0.00852203369140625,0.00852203369140625,0.3249387741088867,0.7163419723510742,-0.3498420715332031,0.508793830871582
326,610713728.0,9.372387886047363,-1.1731939315795898,2.6684188842773438,-0.021305084228515625,-0.00852203369140625,0.00852203369140625,0.3249387741088867,0.7163419723510742,-0.3498420715332031,0.508793830871582
327,610713792.0,9.340065002441406,-1.1528425216674805,2.656447410583496,-0.0010652542114257812,-0.021305084228515625,-0.00852203369140625,0.3249387741088867,0.7163419723510742,-0.3498420715332031,0.508793830871582
328,610713792.0,9.289785385131836,-1.1923484802246094,2.6684188842773438,-0.0010652542114257812,-0.021305084228515625,-0.00852203369140625,0.3249387741088867,0.7163419723510742,-0.3498420715332031,0.508793830871582
329,610713792.0,9.313728332519531,-1.2162914276123047,2.6744041442871094,-0.0010652542114257812,-0.021305084228515625,-0.00852203369140625,0.3249387741088867,0.7163419723510742,-0.3498420715332031,0.508793830871582
330,610713856.0,9.296968460083008,-1.2091083526611328,2.716303825378418,0.004261016845703125,-0.022370338439941406,-0.024501800537109375,0.3249387741088867,0.7163419723510742,-0.3498420715332031,0.508793830871582
331,610713856.0,9.33527660369873,-1.227065086364746,2.747429847717285,0.004261016845703125,-0.022370338439941406,-0.024501800537109375,0.3249387741088867,0.7163419723510742,-0.3498420715332031,0.508793830871582
332,610713856.0,9.347248077392578,-1.1600255966186523,2.7641897201538086,0.004261016845703125,-0.022370338439941406,-0.024501800537109375,0.3249387741088867,0.7163419723510742,-0.3498420715332031,0.508793830871582
333,610713856.0,9.343656539916992,-1.2138967514038086,2.779752731323242,0.004261016845703125,-0.022370338439941406,-0.024501800537109375,0.3249387741088867,0.7163419723510742,-0.3498420715332031,0.508793830871582
334,610713920.0,9.323305130004883,-1.234248161315918,2.777358055114746,0.013848304748535156,-0.014913558959960938,-0.040480613708496094,0.3249387741088867,0.7163419723510742,-0.3498420715332031,0.508793830871582
335,610713920.0,9.30774211883545,-1.1648139953613281,2.7641897201538086,0.013848304748535156,-0.014913558959960938,-0.040480613708496094,0.3249387741088867,0.7163419723510742,-0.3498420715332031,0.508793830871582
336,610713920.0,9.304150581359863,-1.2126998901367188,2.758204460144043,0.013848304748535156,-0.014913558959960938,-0.040480613708496094,0.3249387741088867,0.7163419723510742,-0.3498420715332031,0.508793830871582
337,610713984.0,9.280208587646484,-1.1779823303222656,2.7713727951049805,0.013848304748535156,-0.014913558959960938,-0.040480613708496094,0.3249387741088867,0.7163419723510742,-0.3498420715332031,0.508793830871582
338,610713984.0,9.205986022949219,-1.1564340591430664,2.7402467727661133,0.013848304748535156,-0.014913558959960938,-0.040480613708496094,0.3249387741088867,0.7163419723510742,-0.3498420715332031,0.508793830871582
339,610713984.0,9.259857177734375,-1.168405532836914,2.759401321411133,0.013848304748535156,-0.014913558959960938,-0.040480613708496094,0.3249387741088867,0.7163419723510742,-0.3498420715332031,0.508793830871582
340,610714048.0,9.401119232177734,-1.142068862915039,2.7079238891601562,-0.019174575805664062,0.010652542114257812,-0.04793834686279297,0.3249387741088867,0.7163419723510742,-0.3498420715332031,0.508793830871582
341,610714048.0,9.40471076965332,-1.1528425216674805,2.6983470916748047,-0.019174575805664062,0.010652542114257812,-0.04793834686279297,0.3249387741088867,0.7163419723510742,-0.3498420715332031,0.508793830871582
342,610714048.0,9.342459678649902,-1.1827716827392578,2.6983470916748047,-0.019174575805664062,0.010652542114257812,-0.04793834686279297,0.3249387741088867,0.7163419723510742,-0.3498420715332031,0.508793830871582
343,610714048.0,9.342459678649902,-1.1827716827392578,2.6983470916748047,-0.019174575805664062,0.010652542114257812,-0.04793834686279297,0.3249387741088867,0.7163419723510742,-0.3498420715332031,0.508793830871582
344,610714112.0,9.342459678649902,-1.1731939315795898,2.6660242080688477,-0.02982807159423828,0.013848304748535156,0.005326271057128906,0.3249387741088867,0.7163419723510742,-0.3498420715332031,0.508793830871582
345,610714112.0,9.361613273620605,-1.1827716827392578,2.6516590118408203,-0.02982807159423828,0.013848304748535156,0.005326271057128906,0.3249387741088867,0.7163419723510742,-0.3498420715332031,0.508793830871582
346,610714112.0,9.352036476135254,-1.139674186706543,2.588210105895996,-0.02982807159423828,0.013848304748535156,0.005326271057128906,0.3249387741088867,0.7163419723510742,-0.3498420715332031,0.508793830871582
347,610714112.0,9.342459678649902,-1.1731939315795898,2.6660242080688477,-0.02982807159423828,0.013848304748535156,0.005326271057128906,0.3249387741088867,0.7163419723510742,-0.3498420715332031,0.508793830871582
348,610714112.0,9.361613273620605,-1.1827716827392578,2.6516590118408203,-0.02982807159423828,0.013848304748535156,0.005326271057128906,0.3249387741088867,0.7163419723510742,-0.3498420715332031,0.508793830871582
349,610714112.0,9.352036476135254,-1.139674186706543,2.588210105895996,-0.02982807159423828,0.013848304748535156,0.005326271057128906,0.3249387741088867,0.7163419723510742,-0.3498420715332031,0.508793830871582
350,610714176.0,9.369993209838867,-1.142068862915039,2.5846195220947266,-0.02982807159423828,0.013848304748535156,0.005326271057128906,0.32459354400634766,0.7147884368896484,-0.3528633117675781,0.5091390609741211
351,610714176.0,9.369993209838867,-1.142068862915039,2.5846195220947266,-0.02982807159423828,0.013848304748535156,0.005326271057128906,0.32459354400634766,0.7147884368896484,-0.3528633117675781,0.5091390609741211
352,610714176.0,9.369993209838867,-1.106154441833496,2.588210105895996,-0.02982807159423828,0.013848304748535156,0.005326271057128906,0.32459354400634766,0.7147884368896484,-0.3528633117675781,0.5091390609741211
353,610714176.0,9.38675308227539,-1.1193227767944336,2.597787857055664,-0.02982807159423828,0.013848304748535156,0.005326271057128906,0.32459354400634766,0.7147884368896484,-0.3528633117675781,0.5091390609741211
354,610714176.0,9.446610450744629,-1.0594663619995117,2.6121530532836914,-0.02982807159423828,0.013848304748535156,0.005326271057128906,0.32459354400634766,0.7147884368896484,-0.3528633117675781,0.5091390609741211
355,610714240.0,9.308939933776855,-1.0618600845336914,2.626519203186035,0.01597881317138672,-0.020239830017089844,-0.020239830017089844,0.3247661590576172,0.7149181365966797,-0.3526477813720703,0.5089664459228516
356,610714240.0,9.28619384765625,-1.0762262344360352,2.6456727981567383,0.01597881317138672,-0.020239830017089844,-0.020239830017089844,0.3247661590576172,0.7149181365966797,-0.3526477813720703,0.5089664459228516
357,610714368.0,9.349641799926758,-1.1528425216674805,2.7318668365478516,0.00852203369140625,-0.021305084228515625,-0.042611122131347656,0.3247661590576172,0.7149181365966797,-0.3526477813720703,0.5089664459228516
358,610714368.0,9.37597942352295,-1.1336889266967773,2.693558692932129,0.00852203369140625,-0.021305084228515625,-0.042611122131347656,0.3247661590576172,0.7149181365966797,-0.3526477813720703,0.5089664459228516
359,610714368.0,9.349641799926758,-1.1528425216674805,2.7318668365478516,0.00852203369140625,-0.021305084228515625,-0.042611122131347656,0.3247661590576172,0.7149181365966797,-0.3526477813720703,0.5089664459228516
360,610714368.0,9.37597942352295,-1.1336889266967773,2.693558692932129,0.00852203369140625,-0.021305084228515625,-0.042611122131347656,0.3247661590576172,0.7149181365966797,-0.3526477813720703,0.5089664459228516
361,610714432.0,9.38675308227539,-1.166010856628418,2.7043323516845703,-0.0010652542114257812,-0.0010652542114257812,0.004261016845703125,0.3247661590576172,0.7149181365966797,-0.3526477813720703,0.5089664459228516
362,610714432.0,9.42625904083252,-1.1863622665405273,2.686375617980957,-0.0010652542114257812,-0.0010652542114257812,0.004261016845703125,0.3247661590576172,0.7149181365966797,-0.3526477813720703,0.5089664459228516
363,610714432.0,9.397527694702148,-1.1719970703125,2.685178756713867,-0.0010652542114257812,-0.0010652542114257812,0.004261016845703125,0.3247661590576172,0.7149181365966797,-0.3526477813720703,0.5089664459228516
364,610714432.0,9.38675308227539,-1.166010856628418,2.7043323516845703,-0.0010652542114257812,-0.0010652542114257812,0.004261016845703125,0.3247661590576172,0.7149181365966797,-0.3526477813720703,0.5089664459228516
365,610714432.0,9.42625904083252,-1.1863622665405273,2.686375617980957,-0.0010652542114257812,-0.0010652542114257812,0.004261016845703125,0.3247661590576172,0.7149181365966797,-0.3526477813720703,0.5089664459228516
366,610714432.0,9.397527694702148,-1.1719970703125,2.685178756713867,-0.0010652542114257812,-0.0010652542114257812,0.004261016845703125,0.3247661590576172,0.7149181365966797,-0.3526477813720703,0.5089664459228516
367,610714496.0,9.401119232177734,-1.0977745056152344,2.692361831665039,0.0,-0.0021305084228515625,0.00852203369140625,0.3247661590576172,0.7149181365966797,-0.3526477813720703,0.5089664459228516
368,610714496.0,9.358022689819336,-1.1229143142700195,2.685178756713867,0.0,-0.0021305084228515625,0.00852203369140625,0.3247661590576172,0.7149181365966797,-0.3526477813720703,0.5089664459228516
369,610714496.0,9.37478256225586,-1.142068862915039,2.6839818954467773,0.0,-0.0021305084228515625,0.00852203369140625,0.3247661590576172,0.7149181365966797,-0.3526477813720703,0.5089664459228516
370,610714496.0,9.360416412353516,-1.073831558227539,2.6779956817626953,0.0,-0.0021305084228515625,0.00852203369140625,0.3247661590576172,0.7149181365966797,-0.3526477813720703,0.5089664459228516
371,610714560.0,9.324501991271973,-1.0558748245239258,2.7330636978149414,0.004261016845703125,-0.0063915252685546875,0.0,0.3247661590576172,0.7149181365966797,-0.3526477813720703,0.5089664459228516
372,610714688.0,9.383162498474121,-1.0594663619995117,2.6624326705932617,0.011717796325683594,0.0,-0.014913558959960938,0.3247661590576172,0.7149181365966797,-0.3526477813720703,0.5089664459228516
373,610714688.0,9.326896667480469,-1.0846061706542969,2.6708126068115234,0.011717796325683594,0.0,-0.014913558959960938,0.3247661590576172,0.7149181365966797,-0.3526477813720703,0.5089664459228516
374,610714688.0,9.277813911437988,-1.0594663619995117,2.6516590118408203,0.011717796325683594,0.0,-0.014913558959960938,0.3247661590576172,0.7149181365966797,-0.3526477813720703,0.5089664459228516
375,610714752.0,9.324501991271973,-1.0905914306640625,2.6432790756225586,0.004261016845703125,-0.0063915252685546875,-0.009587287902832031,0.3247661590576172,0.7149181365966797,-0.3526477813720703,0.5089664459228516
376,610714752.0,9.422667503356934,-1.0690431594848633,2.627716064453125,0.004261016845703125,-0.0063915252685546875,-0.009587287902832031,0.3247661590576172,0.7149181365966797,-0.3526477813720703,0.5089664459228516
377,610714752.0,9.416682243347168,-1.079817771911621,2.649264335632324,0.004261016845703125,-0.0063915252685546875,-0.009587287902832031,0.3247661590576172,0.7149181365966797,-0.3526477813720703,0.5089664459228516
378,610714752.0,9.372387886047363,-1.1205196380615234,2.654052734375,0.004261016845703125,-0.0063915252685546875,-0.009587287902832031,0.3247661590576172,0.7149181365966797,-0.3526477813720703,0.5089664459228516
379,610714752.0,9.416682243347168,-1.079817771911621,2.649264335632324,0.004261016845703125,-0.0063915252685546875,-0.009587287902832031,0.3247661590576172,0.7149181365966797,-0.3526477813720703,0.5089664459228516
380,610714752.0,9.372387886047363,-1.1205196380615234,2.654052734375,0.004261016845703125,-0.0063915252685546875,-0.009587287902832031,0.3247661590576172,0.7149181365966797,-0.3526477813720703,0.5089664459228516
381,610714816.0,9.369993209838867,-1.0690431594848633,2.6396875381469727,0.004261016845703125,-0.0063915252685546875,-0.009587287902832031,0.3247661590576172,0.7149181365966797,-0.3526477813720703,0.5089664459228516
382,610714816.0,9.33527660369873,-1.0654516220092773,2.6432790756225586,0.004261016845703125,-0.0063915252685546875,-0.009587287902832031,0.3247661590576172,0.7149181365966797,-0.3526477813720703,0.5089664459228516
383,610714816.0,9.346051216125488,-1.054677963256836,2.6756019592285156,0.004261016845703125,-0.0063915252685546875,-0.009587287902832031,0.3247661590576172,0.7149181365966797,-0.3526477813720703,0.5089664459228516
384,610714816.0,9.369993209838867,-1.0690431594848633,2.6396875381469727,0.004261016845703125,-0.0063915252685546875,-0.009587287902832031,0.3247661590576172,0.7149181365966797,-0.3526477813720703,0.5089664459228516
385,610714816.0,9.33527660369873,-1.0654516220092773,2.6432790756225586,0.004261016845703125,-0.0063915252685546875,-0.009587287902832031,0.3247661590576172,0.7149181365966797,-0.3526477813720703,0.5089664459228516
386,610714816.0,9.346051216125488,-1.054677963256836,2.6756019592285156,0.004261016845703125,-0.0063915252685546875,-0.009587287902832031,0.3247661590576172,0.7149181365966797,-0.3526477813720703,0.5089664459228516
387,610714944.0,9.240702629089355,-0.9900321960449219,2.6396875381469727,0.0,-0.0063915252685546875,0.0,0.32386016845703125,0.7142276763916016,-0.35307884216308594,0.5102176666259766
388,610715008.0,9.26584243774414,-1.0259466171264648,2.6037731170654297,0.0,-0.0063915252685546875,0.0,0.32411861419677734,0.7138824462890625,-0.35359668731689453,0.5101308822631836
389,610715008.0,9.273025512695312,-1.0618600845336914,2.5714502334594727,0.0,-0.0063915252685546875,0.0,0.32411861419677734,0.7138824462890625,-0.35359668731689453,0.5101308822631836
390,610715008.0,9.318516731262207,-1.0403118133544922,2.5463104248046875,0.0,-0.0063915252685546875,0.0,0.32411861419677734,0.7138824462890625,-0.35359668731689453,0.5101308822631836
391,610715072.0,9.28619384765625,-1.0498886108398438,2.5510988235473633,0.023435592651367188,-0.03941535949707031,-0.009587287902832031,0.32411861419677734,0.7138824462890625,-0.35359668731689453,0.5101308822631836
392,610715136.0,9.487313270568848,-1.0690431594848633,2.697150230407715,0.034089088439941406,-0.04687213897705078,-0.00852203369140625,0.32411861419677734,0.7138824462890625,-0.35359668731689453,0.5101308822631836
393,610715136.0,9.487313270568848,-1.0690431594848633,2.697150230407715,0.034089088439941406,-0.04687213897705078,-0.00852203369140625,0.32411861419677734,0.7138824462890625,-0.35359668731689453,0.5101308822631836
394,610715200.0,9.440624237060547,-1.015172004699707,2.688770294189453,0.034089088439941406,-0.04687213897705078,-0.00852203369140625,0.32411861419677734,0.7138824462890625,-0.35359668731689453,0.5101308822631836
395,610715200.0,9.433442115783691,-1.015172004699707,2.7318668365478516,0.034089088439941406,-0.04687213897705078,-0.00852203369140625,0.32411861419677734,0.7138824462890625,-0.35359668731689453,0.5101308822631836
396,610715200.0,9.392739295959473,-1.0534801483154297,2.7629928588867188,0.034089088439941406,-0.04687213897705078,-0.00852203369140625,0.32411861419677734,0.7138824462890625,-0.35359668731689453,0.5101308822631836
397,610715200.0,9.440624237060547,-1.015172004699707,2.688770294189453,0.034089088439941406,-0.04687213897705078,-0.00852203369140625,0.32411861419677734,0.7138824462890625,-0.35359668731689453,0.5101308822631836
398,610715200.0,9.433442115783691,-1.015172004699707,2.7318668365478516,0.034089088439941406,-0.04687213897705078,-0.00852203369140625,0.32411861419677734,0.7138824462890625,-0.35359668731689453,0.5101308822631836
399,610715200.0,9.392739295959473,-1.0534801483154297,2.7629928588867188,0.034089088439941406,-0.04687213897705078,-0.00852203369140625,0.32411861419677734,0.7138824462890625,-0.35359668731689453,0.5101308822631836
400,610715264.0,9.393936157226562,-1.079817771911621,2.700741767883301,-0.04793834686279297,0.005326271057128906,0.013848304748535156,0.32411861419677734,0.7138824462890625,-0.35359668731689453,0.5101308822631836
401,610715264.0,9.393936157226562,-1.079817771911621,2.700741767883301,-0.04793834686279297,0.005326271057128906,0.013848304748535156,0.32411861419677734,0.7138824462890625,-0.35359668731689453,0.5101308822631836
402,610715392.0,9.444215774536133,-1.012777328491211,2.661235809326172,-0.02982807159423828,0.009587287902832031,0.013848304748535156,0.32631969451904297,0.7117242813110352,-0.35307884216308594,0.5120735168457031
403,610715392.0,9.387950897216797,-1.0498886108398438,2.6097593307495117,-0.02982807159423828,0.009587287902832031,0.013848304748535156,0.32631969451904297,0.7117242813110352,-0.35307884216308594,0.5120735168457031
404,610715392.0,9.398724555969238,-1.0869998931884766,2.60137939453125,-0.02982807159423828,0.009587287902832031,0.013848304748535156,0.32631969451904297,0.7117242813110352,-0.35307884216308594,0.5120735168457031
405,610715392.0,9.35682487487793,-1.047494888305664,2.627716064453125,-0.02982807159423828,0.009587287902832031,0.013848304748535156,0.32631969451904297,0.7117242813110352,-0.35307884216308594,0.5120735168457031
406,610715456.0,9.322108268737793,-1.0259466171264648,2.598984718322754,-0.020239830017089844,0.0021305084228515625,-0.004261016845703125,0.32631969451904297,0.7118101119995117,-0.35307884216308594,0.5120735168457031
407,610715456.0,9.414287567138672,-1.073831558227539,2.561873435974121,-0.020239830017089844,0.0021305084228515625,-0.004261016845703125,0.32631969451904297,0.7118101119995117,-0.35307884216308594,0.5120735168457031
408,610715456.0,9.371191024780273,-1.0762262344360352,2.572648048400879,-0.020239830017089844,0.0021305084228515625,-0.004261016845703125,0.32631969451904297,0.7118101119995117,-0.35307884216308594,0.5120735168457031
409,610715520.0,9.42625904083252,-1.0666484832763672,2.5929994583129883,-0.011717796325683594,0.0021305084228515625,-0.007456779479980469,0.32631969451904297,0.7118101119995117,-0.35307884216308594,0.5120735168457031
410,610715520.0,9.393936157226562,-1.0175666809082031,2.6001815795898438,-0.011717796325683594,0.0021305084228515625,-0.007456779479980469,0.32631969451904297,0.7118101119995117,-0.35307884216308594,0.5120735168457031
411,610715520.0,9.338868141174316,-1.0606632232666016,2.5929994583129883,-0.011717796325683594,0.0021305084228515625,-0.007456779479980469,0.32631969451904297,0.7118101119995117,-0.35307884216308594,0.5120735168457031
412,610715584.0,9.390344619750977,-1.079817771911621,2.60137939453125,-0.011717796325683594,0.0021305084228515625,-0.007456779479980469,0.32631969451904297,0.7118101119995117,-0.35307884216308594,0.5120735168457031
413,610715584.0,9.401119232177734,-1.0881977081298828,2.6396875381469727,-0.011717796325683594,0.0021305084228515625,-0.007456779479980469,0.32631969451904297,0.7118101119995117,-0.35307884216308594,0.5120735168457031
414,610715584.0,9.384359359741211,-1.0654516220092773,2.626519203186035,-0.011717796325683594,0.0021305084228515625,-0.007456779479980469,0.32631969451904297,0.7118101119995117,-0.35307884216308594,0.5120735168457031
415,610715648.0,9.346051216125488,-1.0666484832763672,2.624124526977539,0.0,-0.0021305084228515625,0.013848304748535156,0.32631969451904297,0.7118101119995117,-0.35307884216308594,0.5120735168457031
416,610715648.0,9.395133018493652,-1.0690431594848633,2.597787857055664,0.0,-0.0021305084228515625,0.013848304748535156,0.32631969451904297,0.7118101119995117,-0.35307884216308594,0.5120735168457031
417,610715648.0,9.346051216125488,-1.0917892456054688,2.576239585876465,0.0,-0.0021305084228515625,0.013848304748535156,0.32631969451904297,0.7118101119995117,-0.35307884216308594,0.5120735168457031
418,610715648.0,9.316122055053711,-1.1300973892211914,2.632504463195801,0.0,-0.0021305084228515625,0.013848304748535156,0.32631969451904297,0.7118101119995117,-0.35307884216308594,0.5120735168457031
419,610715712.0,9.3855562210083,-1.047494888305664,2.654052734375,0.02982807159423828,-0.010652542114257812,0.005326271057128906,0.32631969451904297,0.7118101119995117,-0.35307884216308594,0.5120735168457031
420,610715712.0,9.434638977050781,-1.0020036697387695,2.616941452026367,0.02982807159423828,-0.010652542114257812,0.005326271057128906,0.32631969451904297,0.7118101119995117,-0.35307884216308594,0.5120735168457031
421,610715712.0,9.417879104614258,-1.0043973922729492,2.6145477294921875,0.02982807159423828,-0.010652542114257812,0.005326271057128906,0.32631969451904297,0.7118101119995117,-0.35307884216308594,0.5120735168457031
422,610715776.0,9.379570960998535,-1.0726346969604492,2.6085615158081055,0.02982807159423828,-0.010652542114257812,0.005326271057128906,0.32631969451904297,0.7118101119995117,-0.35307884216308594,0.5120735168457031
423,610715776.0,9.379570960998535,-1.0905914306640625,2.597787857055664,0.02982807159423828,-0.010652542114257812,0.005326271057128906,0.32631969451904297,0.7118101119995117,-0.35307884216308594,0.5120735168457031
424,610715776.0,9.393936157226562,-1.0702400207519531,2.5929994583129883,0.02982807159423828,-0.010652542114257812,0.005326271057128906,0.32631969451904297,0.7118101119995117,-0.35307884216308594,0.5120735168457031
425,610715776.0,9.379570960998535,-1.0726346969604492,2.6085615158081055,0.02982807159423828,-0.010652542114257812,0.005326271057128906,0.32631969451904297,0.7118101119995117,-0.35307884216308594,0.5120735168457031
426,610715776.0,9.379570960998535,-1.0905914306640625,2.597787857055664,0.02982807159423828,-0.010652542114257812,0.005326271057128906,0.32631969451904297,0.7118101119995117,-0.35307884216308594,0.5120735168457031
427,610715776.0,9.393936157226562,-1.0702400207519531,2.5929994583129883,0.02982807159423828,-0.010652542114257812,0.005326271057128906,0.32631969451904297,0.7118101119995117,-0.35307884216308594,0.5120735168457031
428,610715840.0,9.368796348571777,-1.0343265533447266,2.588210105895996,-0.023435592651367188,-0.0031957626342773438,0.005326271057128906,0.32631969451904297,0.7118101119995117,-0.35307884216308594,0.5120735168457031
429,610715840.0,9.328093528747559,-1.0846061706542969,2.5487051010131836,-0.023435592651367188,-0.0031957626342773438,0.005326271057128906,0.32631969451904297,0.7118101119995117,-0.35307884216308594,0.5120735168457031
430,610715840.0,9.368796348571777,-1.0343265533447266,2.588210105895996,-0.023435592651367188,-0.0031957626342773438,0.005326271057128906,0.32631969451904297,0.7118101119995117,-0.35307884216308594,0.5120735168457031
431,610715840.0,9.328093528747559,-1.0846061706542969,2.5487051010131836,-0.023435592651367188,-0.0031957626342773438,0.005326271057128906,0.32631969451904297,0.7118101119995117,-0.35307884216308594,0.5120735168457031
432,610715840.0,9.40351390838623,-1.0834083557128906,2.595393180847168,-0.023435592651367188,-0.0031957626342773438,0.005326271057128906,0.32631969451904297,0.7118101119995117,-0.35307884216308594,0.5120735168457031
433,610715904.0,9.437033653259277,-1.0618600845336914,2.5522966384887695,-0.0170440673828125,-0.010652542114257812,0.019174575805664062,0.32631969451904297,0.7118101119995117,-0.35307884216308594,0.5120735168457031
434,610715904.0,9.413090705871582,-1.073831558227539,2.558281898498535,-0.0170440673828125,-0.010652542114257812,0.019174575805664062,0.32631969451904297,0.7118101119995117,-0.35307884216308594,0.5120735168457031
435,610715904.0,9.391542434692383,-1.1253089904785156,2.558281898498535,-0.0170440673828125,-0.010652542114257812,0.019174575805664062,0.32631969451904297,0.7118101119995117,-0.35307884216308594,0.5120735168457031
436,610715968.0,9.364007949829102,-1.1001691818237305,2.558281898498535,0.0010652542114257812,-0.009587287902832031,0.014913558959960938,0.32631969451904297,0.7118101119995117,-0.35307884216308594,0.5120735168457031
437,610715968.0,9.384359359741211,-1.1241111755371094,2.5714502334594727,0.0010652542114257812,-0.009587287902832031,0.014913558959960938,0.32631969451904297,0.7118101119995117,-0.35307884216308594,0.5120735168457031
438,610715968.0,9.397527694702148,-1.1336889266967773,2.6085615158081055,0.0010652542114257812,-0.009587287902832031,0.014913558959960938,0.32631969451904297,0.7118101119995117,-0.35307884216308594,0.5120735168457031
439,610716032.0,9.422667503356934,-1.2067136764526367,2.634899139404297,0.0010652542114257812,-0.012783050537109375,0.060721397399902344,0.32631969451904297,0.7118101119995117,-0.35307884216308594,0.5120735168457031
440,610716032.0,9.4071044921875,-1.2881193161010742,2.6744041442871094,0.0010652542114257812,-0.012783050537109375,0.060721397399902344,0.32631969451904297,0.7118101119995117,-0.35307884216308594,0.5120735168457031
441,610716032.0,9.551958084106445,-1.508392333984375,2.832426071166992,0.0010652542114257812,-0.012783050537109375,0.060721397399902344,0.32631969451904297,0.7118101119995117,-0.35307884216308594,0.5120735168457031
442,610716032.0,9.83687686920166,-1.727468490600586,2.9832658767700195,0.0010652542114257812,-0.012783050537109375,0.060721397399902344,0.32631969451904297,0.7118101119995117,-0.35307884216308594,0.5120735168457031
443,610716032.0,9.83687686920166,-1.727468490600586,2.9832658767700195,0.0010652542114257812,-0.012783050537109375,0.060721397399902344,0.32631969451904297,0.7118101119995117,-0.35307884216308594,0.5120735168457031
444,610716096.0,10.489316940307617,-1.4377613067626953,3.6357059478759766,0.0010652542114257812,-0.012783050537109375,0.060721397399902344,0.32631969451904297,0.7118101119995117,-0.35307884216308594,0.5120735168457031
445,610716096.0,11.362030029296875,-1.7813396453857422,4.77298641204834,0.0010652542114257812,-0.012783050537109375,0.060721397399902344,0.32631969451904297,0.7118101119995117,-0.35307884216308594,0.5120735168457031
446,610716096.0,11.840885162353516,-3.247833251953125,4.890305519104004,0.0010652542114257812,-0.012783050537109375,0.060721397399902344,0.32631969451904297,0.7118101119995117,-0.35307884216308594,0.5120735168457031
447,610716096.0,10.489316940307617,-1.4377613067626953,3.6357059478759766,0.0010652542114257812,-0.012783050537109375,0.060721397399902344,0.32631969451904297,0.7118101119995117,-0.35307884216308594,0.5120735168457031
448,610716096.0,11.362030029296875,-1.7813396453857422,4.77298641204834,0.0010652542114257812,-0.012783050537109375,0.060721397399902344,0.32631969451904297,0.7118101119995117,-0.35307884216308594,0.5120735168457031
449,610716096.0,11.840885162353516,-3.247833251953125,4.890305519104004,0.0010652542114257812,-0.012783050537109375,0.060721397399902344,0.32631969451904297,0.7118101119995117,-0.35307884216308594,0.5120735168457031
450,610716160.0,12.451425552368164,-3.8535842895507812,5.572673797607422,-1.4882192611694336,2.0155410766601562,3.366337776184082,0.32631969451904297,0.7118101119995117,-0.35307884216308594,0.5120735168457031
451,610716160.0,12.451425552368164,-3.8535842895507812,5.572673797607422,-1.4882192611694336,2.0155410766601562,3.366337776184082,0.32631969451904297,0.7118101119995117,-0.35307884216308594,0.5120735168457031
452,610716288.0,11.372804641723633,-12.784229278564453,6.884736061096191,0.5656719207763672,2.910390853881836,5.3925323486328125,0.32631969451904297,0.7118101119995117,-0.35307884216308594,0.5120735168457031
453,610716288.0,9.539987564086914,-13.0380220413208,6.021600723266602,0.5656719207763672,2.910390853881836,5.3925323486328125,0.32631969451904297,0.7118101119995117,-0.35307884216308594,0.5120735168457031
454,610716288.0,7.333662986755371,-12.666910171508789,5.250643730163574,0.5656719207763672,2.910390853881836,5.3925323486328125,0.32631969451904297,0.7118101119995117,-0.35307884216308594,0.5120735168457031
455,610716288.0,5.662459373474121,-11.114222526550293,3.7637996673583984,0.5656719207763672,2.910390853881836,5.3925323486328125,0.32631969451904297,0.7118101119995117,-0.35307884216308594,0.5120735168457031
456,610716288.0,11.372804641723633,-12.784229278564453,6.884736061096191,0.5656719207763672,2.910390853881836,5.3925323486328125,0.32631969451904297,0.7118101119995117,-0.35307884216308594,0.5120735168457031
457,610716288.0,9.539987564086914,-13.0380220413208,6.021600723266602,0.5656719207763672,2.910390853881836,5.3925323486328125,0.32631969451904297,0.7118101119995117,-0.35307884216308594,0.5120735168457031
458,610716288.0,7.333662986755371,-12.666910171508789,5.250643730163574,0.5656719207763672,2.910390853881836,5.3925323486328125,0.32631969451904297,0.7118101119995117,-0.35307884216308594,0.5120735168457031
459,610716288.0,5.662459373474121,-11.114222526550293,3.7637996673583984,0.5656719207763672,2.910390853881836,5.3925323486328125,0.32631969451904297,0.7118101119995117,-0.35307884216308594,0.5120735168457031
460,610716352.0,3.6297197341918945,-11.085491180419922,3.4393749237060547,0.07563591003417969,2.346848487854004,5.823977470397949,0.32631969451904297,0.7118101119995117,-0.35307884216308594,0.5120735168457031
461,610716352.0,3.6297197341918945,-11.085491180419922,3.4393749237060547,0.07563591003417969,2.346848487854004,5.823977470397949,0.32631969451904297,0.7118101119995117,-0.35307884216308594,0.5120735168457031
462,610716480.0,0.33998680114746094,-5.790553092956543,-0.35914039611816406,-0.8905878067016602,0.9779424667358398,5.250847816467285,0.32631969451904297,0.7118101119995117,-0.35307884216308594,0.5120735168457031
463,610716480.0,-0.9110212326049805,-4.971711158752441,-0.9110212326049805,-0.8905878067016602,0.9779424667358398,5.250847816467285,0.32631969451904297,0.7118101119995117,-0.35307884216308594,0.5120735168457031
464,610716480.0,-1.3419904708862305,-4.630526542663574,-0.6512422561645508,-0.8905878067016602,0.9779424667358398,5.250847816467285,0.32631969451904297,0.7118101119995117,-0.35307884216308594,0.5120735168457031
465,610716544.0,-1.824437141418457,-4.726297378540039,-0.23822975158691406,-1.416844367980957,0.6881809234619141,4.89716911315918,0.32631969451904297,0.7118101119995117,-0.35307884216308594,0.5120735168457031
466,610716544.0,-2.4289913177490234,-4.4689130783081055,-0.5734281539916992,-1.416844367980957,0.6881809234619141,4.89716911315918,0.32631969451904297,0.7118101119995117,-0.35307884216308594,0.5120735168457031
467,610716544.0,-3.1879758834838867,-4.647286415100098,-1.077423095703125,-1.416844367980957,0.6881809234619141,4.89716911315918,0.32631969451904297,0.7118101119995117,-0.35307884216308594,0.5120735168457031
468,610716608.0,-3.5662717819213867,-4.461730003356934,-1.3467788696289062,-1.416844367980957,0.6881809234619141,4.89716911315918,0.32631969451904297,0.7118101119995117,-0.35307884216308594,0.5120735168457031
469,610716608.0,-4.023578643798828,-4.520390510559082,-1.9309816360473633,-1.416844367980957,0.6881809234619141,4.89716911315918,0.32631969451904297,0.7118101119995117,-0.35307884216308594,0.5120735168457031
470,610716608.0,-4.65327262878418,-3.9361867904663086,-2.9832658767700195,-1.416844367980957,0.6881809234619141,4.89716911315918,0.32631969451904297,0.7118101119995117,-0.35307884216308594,0.5120735168457031
471,610716608.0,-5.163252830505371,-3.459726333618164,-3.433389663696289,-1.416844367980957,0.6881809234619141,4.89716911315918,0.32631969451904297,0.7118101119995117,-0.35307884216308594,0.5120735168457031
472,610716672.0,-2.8084840774536133,-3.7793617248535156,0.5710344314575195,-3.323725700378418,-5.2061052322387695,0.36539649963378906,0.32631969451904297,0.7118101119995117,-0.35307884216308594,0.5120735168457031
473,610716672.0,-1.1851654052734375,-0.525543212890625,7.0176191329956055,-3.323725700378418,-5.2061052322387695,0.36539649963378906,0.32631969451904297,0.7118101119995117,-0.35307884216308594,0.5120735168457031
474,610716672.0,12.739934921264648,-15.523279190063477,10.339674949645996,-3.323725700378418,-5.2061052322387695,0.36539649963378906,0.32631969451904297,0.7118101119995117,-0.35307884216308594,0.5120735168457031
475,610716672.0,-2.8084840774536133,-3.7793617248535156,0.5710344314575195,-3.323725700378418,-5.2061052322387695,0.36539649963378906,0.32631969451904297,0.7118101119995117,-0.35307884216308594,0.5120735168457031
476,610716672.0,-1.1851654052734375,-0.525543212890625,7.0176191329956055,-3.323725700378418,-5.2061052322387695,0.36539649963378906,0.32631969451904297,0.7118101119995117,-0.35307884216308594,0.5120735168457031
477,610716672.0,12.739934921264648,-15.523279190063477,10.339674949645996,-3.323725700378418,-5.2061052322387695,0.36539649963378906,0.32631969451904297,0.7118101119995117,-0.35307884216308594,0.5120735168457031
478,610716736.0,7.939414024353027,17.96783447265625,27.635915756225586,1.507394790649414,-0.053264617919921875,-0.2695198059082031,0.32631969451904297,0.7118101119995117,-0.35307884216308594,0.5120735168457031
479,610716736.0,-17.46384048461914,-13.26667594909668,-2.357163429260254,1.507394790649414,-0.053264617919921875,-0.2695198059082031,0.32631969451904297,0.7118101119995117,-0.35307884216308594,0.5120735168457031
480,610716736.0,7.939414024353027,17.96783447265625,27.635915756225586,1.507394790649414,-0.053264617919921875,-0.2695198059082031,0.32631969451904297,0.7118101119995117,-0.35307884216308594,0.5120735168457031
481,610716736.0,-17.46384048461914,-13.26667594909668,-2.357163429260254,1.507394790649414,-0.053264617919921875,-0.2695198059082031,0.32631969451904297,0.7118101119995117,-0.35307884216308594,0.5120735168457031
482,610716864.0,-10.615015983581543,-3.809290885925293,-4.368353843688965,-0.6274595260620117,0.8564987182617188,0.0809621810913086,0.32631969451904297,0.7118101119995117,-0.35307884216308594,0.5120735168457031
483,610716864.0,-12.951828956604004,-5.081847190856934,-8.02441120147705,-0.6274595260620117,0.8564987182617188,0.0809621810913086,0.32631969451904297,0.7118101119995117,-0.35307884216308594,0.5120735168457031
484,610716864.0,-15.647782325744629,-6.108991622924805,-12.40713119506836,-0.6274595260620117,0.8564987182617188,0.0809621810913086,0.32631969451904297,0.7118101119995117,-0.35307884216308594,0.5120735168457031
485,610716864.0,-10.615015983581543,-3.809290885925293,-4.368353843688965,-0.6274595260620117,0.8564987182617188,0.0809621810913086,0.32631969451904297,0.7118101119995117,-0.35307884216308594,0.5120735168457031
486,610716864.0,-12.951828956604004,-5.081847190856934,-8.02441120147705,-0.6274595260620117,0.8564987182617188,0.0809621810913086,0.32631969451904297,0.7118101119995117,-0.35307884216308594,0.5120735168457031
487,610716864.0,-15.647782325744629,-6.108991622924805,-12.40713119506836,-0.6274595260620117,0.8564987182617188,0.0809621810913086,0.32631969451904297,0.7118101119995117,-0.35307884216308594,0.5120735168457031
488,610716928.0,-14.218400001525879,-3.500429153442383,-11.330904960632324,-1.7886333465576172,-2.3340654373168945,0.7254667282104492,0.32631969451904297,0.7118101119995117,-0.35307884216308594,0.5120735168457031
489,610716928.0,-9.901522636413574,-2.4122314453125,-6.682419776916504,-1.7886333465576172,-2.3340654373168945,0.7254667282104492,0.32631969451904297,0.7118101119995117,-0.35307884216308594,0.5120735168457031
490,610716928.0,-14.218400001525879,-3.500429153442383,-11.330904960632324,-1.7886333465576172,-2.3340654373168945,0.7254667282104492,0.32631969451904297,0.7118101119995117,-0.35307884216308594,0.5120735168457031
491,610716928.0,-9.901522636413574,-2.4122314453125,-6.682419776916504,-1.7886333465576172,-2.3340654373168945,0.7254667282104492,0.32631969451904297,0.7118101119995117,-0.35307884216308594,0.5120735168457031
492,610716928.0,-7.919063568115234,-1.2474164962768555,-1.4736757278442383,-1.7886333465576172,-2.3340654373168945,0.7254667282104492,0.32631969451904297,0.7118101119995117,-0.35307884216308594,0.5120735168457031
493,610716992.0,-2.9880542755126953,-5.069876670837402,4.398282051086426,0.0287628173828125,2.8635177612304688,-0.92254638671875,0.32631969451904297,0.7118101119995117,-0.35307884216308594,0.5120735168457031
494,610716992.0,26.589618682861328,16.436695098876953,30.63474464416504,0.0287628173828125,2.8635177612304688,-0.92254638671875,0.32631969451904297,0.7118101119995117,-0.35307884216308594,0.5120735168457031
495,610716992.0,-15.803409576416016,-12.683670043945312,-1.2917108535766602,0.0287628173828125,2.8635177612304688,-0.92254638671875,0.32631969451904297,0.7118101119995117,-0.35307884216308594,0.5120735168457031
496,610717056.0,-7.810123443603516,4.747846603393555,8.200390815734863,0.15340232849121094,1.1867399215698242,0.17683887481689453,0.46019744873046875,0.6648111343383789,0.5652875900268555,-0.1635274887084961
497,610717184.0,-2.201535224914551,-5.3045148849487305,3.332829475402832,0.15340232849121094,1.1867399215698242,0.17683887481689453,0.4444007873535156,0.7058544158935547,0.5239849090576172,-0.17250442504882812
498,610717184.0,-2.0542869567871094,-5.900689125061035,3.039531707763672,0.15340232849121094,1.1867399215698242,0.17683887481689453,0.4444007873535156,0.7058544158935547,0.5239849090576172,-0.17250442504882812
499,610717184.0,-1.1672086715698242,-5.5259857177734375,4.0966033935546875,0.15340232849121094,1.1867399215698242,0.17683887481689453,0.4444007873535156,0.7058544158935547,0.5239849090576172,-0.17250442504882812
500,610717184.0,-1.9824590682983398,-5.298529624938965,3.927806854248047,0.15340232849121094,1.1867399215698242,0.17683887481689453,0.4444007873535156,0.7058544158935547,0.5239849090576172,-0.17250442504882812
501,610717248.0,-2.3954715728759766,-5.475706100463867,3.214313507080078,5.234869003295898,-1.3401432037353516,-5.299851417541504,0.4444007873535156,0.7058544158935547,0.5239849090576172,-0.17250442504882812
502,610717248.0,-1.4102277755737305,-5.631333351135254,2.258997917175293,5.234869003295898,-1.3401432037353516,-5.299851417541504,0.4444007873535156,0.7058544158935547,0.5239849090576172,-0.17250442504882812
503,610717248.0,-0.004788398742675781,-5.985686302185059,2.840806007385254,5.234869003295898,-1.3401432037353516,-5.299851417541504,0.4444007873535156,0.7058544158935547,0.5239849090576172,-0.17250442504882812
504,610717248.0,-1.4102277755737305,-5.631333351135254,2.258997917175293,5.234869003295898,-1.3401432037353516,-5.299851417541504,0.4444007873535156,0.7058544158935547,0.5239849090576172,-0.17250442504882812
505,610717248.0,-0.004788398742675781,-5.985686302185059,2.840806007385254,5.234869003295898,-1.3401432037353516,-5.299851417541504,0.4444007873535156,0.7058544158935547,0.5239849090576172,-0.17250442504882812
506,610717312.0,-0.028730392456054688,-5.164449691772461,3.8523874282836914,2.146573066711426,-3.1948251724243164,-4.924867630004883,0.4444007873535156,0.7058544158935547,0.5239849090576172,-0.17250442504882812
507,610717312.0,-0.457305908203125,-3.6883792877197266,5.140507698059082,2.146573066711426,-3.1948251724243164,-4.924867630004883,0.4444007873535156,0.7058544158935547,0.5239849090576172,-0.17250442504882812
508,610717312.0,0.49561405181884766,-2.044710159301758,4.180402755737305,2.146573066711426,-3.1948251724243164,-4.924867630004883,0.4444007873535156,0.7058544158935547,0.5239849090576172,-0.17250442504882812
509,610717312.0,-0.028730392456054688,-5.164449691772461,3.8523874282836914,2.146573066711426,-3.1948251724243164,-4.924867630004883,0.4444007873535156,0.7058544158935547,0.5239849090576172,-0.17250442504882812
510,610717312.0,-0.457305908203125,-3.6883792877197266,5.140507698059082,2.146573066711426,-3.1948251724243164,-4.924867630004883,0.4444007873535156,0.7058544158935547,0.5239849090576172,-0.17250442504882812
511,610717312.0,0.49561405181884766,-2.044710159301758,4.180402755737305,2.146573066711426,-3.1948251724243164,-4.924867630004883,0.4444007873535156,0.7058544158935547,0.5239849090576172,-0.17250442504882812
512,610717440.0,5.917448997497559,-7.655693054199219,5.876747131347656,-1.2112417221069336,-2.9860267639160156,-4.2143144607543945,0.22299861907958984,0.9342918395996094,-0.15778732299804688,0.2291269302368164
513,610717504.0,5.988080978393555,-7.036772727966309,6.047937393188477,-0.34409046173095703,-3.8425254821777344,-4.314452171325684,0.21380615234375,0.8765888214111328,-0.2535562515258789,0.3486328125
514,610717504.0,6.611788749694824,-5.541548728942871,6.010826110839844,-0.34409046173095703,-3.8425254821777344,-4.314452171325684,0.21380615234375,0.8765888214111328,-0.2535562515258789,0.3486328125
515,610717504.0,7.92385196685791,-4.041535377502441,5.13212776184082,-0.34409046173095703,-3.8425254821777344,-4.314452171325684,0.21380615234375,0.8765888214111328,-0.2535562515258789,0.3486328125
516,610717504.0,9.90391731262207,-2.406245231628418,4.549121856689453,-0.34409046173095703,-3.8425254821777344,-4.314452171325684,0.21380615234375,0.8765888214111328,-0.2535562515258789,0.3486328125
517,610717568.0,13.014080047607422,-1.260584831237793,5.613376617431641,-0.34409046173095703,-3.8425254821777344,-4.314452171325684,0.21380615234375,0.8765888214111328,-0.2535562515258789,0.3486328125
518,610717568.0,16.571971893310547,-0.7218732833862305,7.368379592895508,-0.34409046173095703,-3.8425254821777344,-4.314452171325684,0.21380615234375,0.8765888214111328,-0.2535562515258789,0.3486328125
519,610717568.0,19.053638458251953,-2.529550552368164,8.310526847839355,-0.34409046173095703,-3.8425254821777344,-4.314452171325684,0.21380615234375,0.8765888214111328,-0.2535562515258789,0.3486328125
520,610717632.0,17.4686279296875,-4.32405948638916,7.012829780578613,-0.34409046173095703,-3.8425254821777344,-4.314452171325684,0.21380615234375,0.8765888214111328,-0.2535562515258789,0.3486328125
521,610717632.0,14.171711921691895,-5.473311424255371,5.104593276977539,-0.34409046173095703,-3.8425254821777344,-4.314452171325684,0.21380615234375,0.8765888214111328,-0.2535562515258789,0.3486328125
522,610717760.0,9.397527694702148,-0.12809276580810547,5.160859107971191,-1.1505203247070312,0.1619243621826172,0.6146755218505859,0.21380615234375,0.8765888214111328,-0.2535562515258789,0.3486328125
523,610717760.0,8.985712051391602,-0.5303316116333008,4.922628402709961,-1.1505203247070312,0.1619243621826172,0.6146755218505859,0.21380615234375,0.8765888214111328,-0.2535562515258789,0.3486328125
524,610717824.0,9.161691665649414,-0.8775014877319336,4.867560386657715,-0.3909635543823242,0.1619243621826172,0.26312828063964844,0.2686605453491211,0.675471305847168,-0.43007373809814453,0.5352926254272461
525,610717824.0,9.288588523864746,-0.587794303894043,4.258216857910156,-0.3909635543823242,0.1619243621826172,0.26312828063964844,0.2686605453491211,0.675471305847168,-0.43007373809814453,0.5352926254272461
526,610717824.0,9.256265640258789,0.5853996276855469,4.0343523025512695,-0.3909635543823242,0.1619243621826172,0.26312828063964844,0.2686605453491211,0.675471305847168,-0.43007373809814453,0.5352926254272461
527,610717824.0,9.66448974609375,0.6117362976074219,3.960129737854004,-0.3909635543823242,0.1619243621826172,0.26312828063964844,0.2686605453491211,0.675471305847168,-0.43007373809814453,0.5352926254272461
528,610717888.0,9.968562126159668,0.5746250152587891,3.650071144104004,-0.3909635543823242,0.1619243621826172,0.26312828063964844,0.27578163146972656,0.6790103912353516,-0.42852020263671875,0.5284309387207031
529,610717888.0,9.852439880371094,0.5446968078613281,3.2358617782592773,-0.3909635543823242,0.1619243621826172,0.26312828063964844,0.27578163146972656,0.6790103912353516,-0.42852020263671875,0.5284309387207031
530,610717888.0,9.651320457458496,0.4944171905517578,3.0467138290405273,-0.3909635543823242,0.1619243621826172,0.26312828063964844,0.27578163146972656,0.6790103912353516,-0.42852020263671875,0.5284309387207031
531,610717952.0,9.507664680480957,0.6440591812133789,3.003617286682129,-0.47086048126220703,0.2013406753540039,0.39948558807373047,0.27854347229003906,0.6806936264038086,-0.4278726577758789,0.5254096984863281
532,610718080.0,9.275420188903809,0.3782949447631836,2.7653865814208984,-0.31319713592529297,0.17577362060546875,0.4197263717651367,0.27854347229003906,0.6806936264038086,-0.4278726577758789,0.5254096984863281
533,610718080.0,9.389147758483887,0.45850276947021484,2.8671436309814453,-0.31319713592529297,0.17577362060546875,0.4197263717651367,0.27854347229003906,0.6806936264038086,-0.4278726577758789,0.5254096984863281
534,610718080.0,9.343656539916992,0.49561405181884766,2.8886919021606445,-0.31319713592529297,0.17577362060546875,0.4197263717651367,0.27854347229003906,0.6806936264038086,-0.4278726577758789,0.5254096984863281
535,610718080.0,9.26464557647705,0.19034481048583984,2.849186897277832,-0.31319713592529297,0.17577362060546875,0.4197263717651367,0.27854347229003906,0.6806936264038086,-0.4278726577758789,0.5254096984863281
536,610718272.0,9.366402626037598,-0.7386331558227539,3.1436824798583984,-0.31319713592529297,0.17577362060546875,0.4197263717651367,0.27854347229003906,0.6806936264038086,-0.4278726577758789,0.5254096984863281
537,610718272.0,9.263448715209961,-0.7853212356567383,3.1412878036499023,-0.31319713592529297,0.17577362060546875,0.4197263717651367,0.27854347229003906,0.6806936264038086,-0.4278726577758789,0.5254096984863281
538,610718272.0,9.188028335571289,-0.4513206481933594,3.3268442153930664,-0.31319713592529297,0.17577362060546875,0.4197263717651367,0.27854347229003906,0.6806936264038086,-0.4278726577758789,0.5254096984863281
539,610718336.0,9.161691665649414,-0.33759212493896484,3.3579702377319336,0.1608591079711914,-0.042611122131347656,0.0809621810913086,0.27854347229003906,0.6806936264038086,-0.4278726577758789,0.5254096984863281
540,610718336.0,9.14493179321289,-0.31963539123535156,3.3807153701782227,0.1608591079711914,-0.042611122131347656,0.0809621810913086,0.27854347229003906,0.6806936264038086,-0.4278726577758789,0.5254096984863281
541,610718528.0,9.162888526916504,-0.7482099533081055,3.307689666748047,0.12570476531982422,-0.025567054748535156,-0.0021305084228515625,0.30271244049072266,0.7088327407836914,-0.3948993682861328,0.49994564056396484
542,610718592.0,9.208379745483398,-0.7829275131225586,3.307689666748047,0.12570476531982422,-0.025567054748535156,-0.0021305084228515625,0.30271244049072266,0.7088327407836914,-0.3948993682861328,0.49994564056396484
543,610718592.0,9.271828651428223,-0.8224325180053711,3.2969160079956055,0.12570476531982422,-0.025567054748535156,-0.0021305084228515625,0.30271244049072266,0.7088327407836914,-0.3948993682861328,0.49994564056396484
544,610718592.0,9.158100128173828,-0.6668052673339844,3.34360408782959,0.12570476531982422,-0.025567054748535156,-0.0021305084228515625,0.30271244049072266,0.7088327407836914,-0.3948993682861328,0.49994564056396484
545,610718656.0,9.188028335571289,-0.6440591812133789,3.3148727416992188,0.12570476531982422,-0.025567054748535156,-0.0021305084228515625,0.30271244049072266,0.7088327407836914,-0.3948993682861328,0.49994564056396484
546,610718656.0,9.09584903717041,-0.7039165496826172,3.274169921875,0.12570476531982422,-0.025567054748535156,-0.0021305084228515625,0.30271244049072266,0.7088327407836914,-0.3948993682861328,0.49994564056396484
547,610718656.0,9.150917053222656,-0.6943387985229492,3.283747673034668,0.12570476531982422,-0.025567054748535156,-0.0021305084228515625,0.30271244049072266,0.7088327407836914,-0.3948993682861328,0.49994564056396484
548,610718720.0,9.082680702209473,-0.6943387985229492,3.2945213317871094,0.03515434265136719,0.01597881317138672,-0.019174575805664062,0.3043956756591797,0.7122421264648438,-0.3951148986816406,0.49386024475097656
549,610718720.0,9.039584159851074,-0.6715936660766602,3.3292388916015625,0.03515434265136719,0.01597881317138672,-0.019174575805664062,0.3043956756591797,0.7122421264648438,-0.3951148986816406,0.49386024475097656
550,610718720.0,9.122185707092285,-0.7158880233764648,3.2969160079956055,0.03515434265136719,0.01597881317138672,-0.019174575805664062,0.3043956756591797,0.7122421264648438,-0.3951148986816406,0.49386024475097656
551,610719040.0,9.192817687988281,-0.6332855224609375,3.427403450012207,0.010652542114257812,0.0031957626342773438,0.004261016845703125,0.30452537536621094,0.7131481170654297,-0.39481353759765625,0.4927816390991211
552,610719296.0,9.150917053222656,-0.6296939849853516,3.336421012878418,0.005326271057128906,-0.009587287902832031,-0.009587287902832031,0.30452537536621094,0.7131481170654297,-0.39481353759765625,0.4927816390991211
553,610719296.0,9.129368782043457,-0.7266616821289062,3.3304357528686523,0.005326271057128906,-0.009587287902832031,-0.009587287902832031,0.30452537536621094,0.7131481170654297,-0.39481353759765625,0.4927816390991211
554,610719296.0,9.136551856994629,-0.7218732833862305,3.402263641357422,0.005326271057128906,-0.009587287902832031,-0.009587287902832031,0.30452537536621094,0.7131481170654297,-0.39481353759765625,0.4927816390991211
555,610719360.0,9.276617050170898,-0.6632137298583984,3.3771238327026367,0.005326271057128906,-0.009587287902832031,-0.009587287902832031,0.30452537536621094,0.7131481170654297,-0.39481353759765625,0.4927816390991211
556,610719360.0,9.21436595916748,-0.5901880264282227,3.3783206939697266,0.005326271057128906,-0.009587287902832031,-0.009587287902832031,0.30452537536621094,0.7131481170654297,-0.39481353759765625,0.4927816390991211
557,610719360.0,9.130566596984863,-0.6368770599365234,3.337618827819824,0.005326271057128906,-0.009587287902832031,-0.009587287902832031,0.30452537536621094,0.7131481170654297,-0.39481353759765625,0.4927816390991211
558,610719360.0,9.201197624206543,-0.7110986709594727,3.379518508911133,0.005326271057128906,-0.009587287902832031,-0.009587287902832031,0.30452537536621094,0.7131481170654297,-0.39481353759765625,0.4927816390991211
559,610719424.0,9.202394485473633,-0.5830049514770508,3.4489526748657227,0.005326271057128906,-0.009587287902832031,-0.009587287902832031,0.30452537536621094,0.7131481170654297,-0.39481353759765625,0.4927816390991211
560,610719552.0,9.16648006439209,-0.7242679595947266,3.3926868438720703,0.005326271057128906,-0.009587287902832031,-0.009587287902832031,0.30452537536621094,0.7131481170654297,-0.39481353759765625,0.4927816390991211
561,610719552.0,9.16648006439209,-0.7242679595947266,3.3926868438720703,0.005326271057128906,-0.009587287902832031,-0.009587287902832031,0.30452537536621094,0.7131481170654297,-0.39481353759765625,0.4927816390991211
562,610719552.0,9.16648006439209,-0.7242679595947266,3.3926868438720703,0.005326271057128906,-0.009587287902832031,-0.009587287902832031,0.30452537536621094,0.7131481170654297,-0.39481353759765625,0.4927816390991211
563,610719616.0,9.208379745483398,-0.6895503997802734,3.374730110168457,0.005326271057128906,-0.009587287902832031,-0.009587287902832031,0.30452537536621094,0.7131481170654297,-0.39481353759765625,0.4927816390991211
564,610719616.0,9.246688842773438,-0.6680021286010742,3.3831100463867188,0.005326271057128906,-0.009587287902832031,-0.009587287902832031,0.30452537536621094,0.7131481170654297,-0.39481353759765625,0.4927816390991211
565,610719616.0,9.16408634185791,-0.6632137298583984,3.41184139251709,0.005326271057128906,-0.009587287902832031,-0.009587287902832031,0.30452537536621094,0.7131481170654297,-0.39481353759765625,0.4927816390991211
566,610719616.0,9.16408634185791,-0.7027187347412109,3.375926971435547,0.005326271057128906,-0.009587287902832031,-0.009587287902832031,0.30452537536621094,0.7131481170654297,-0.39481353759765625,0.4927816390991211
567,610719616.0,9.208379745483398,-0.6895503997802734,3.374730110168457,0.005326271057128906,-0.009587287902832031,-0.009587287902832031,0.30452537536621094,0.7131481170654297,-0.39481353759765625,0.4927816390991211
