,timestamp,accel_x,accel_y,accel_z,gyro_x,gyro_y,gyro_z,ori_scalar,ori_x,ori_y,ori_z
0,610140096.0,9.050357818603516,-1.7406368255615234,2.433779716491699,-0.2695198059082031,-0.05646038055419922,0.20347118377685547,0.4449625015258789,0.6372756958007812,-0.48561859130859375,0.40007781982421875
1,610140096.0,8.952192306518555,-1.8088741302490234,2.6839818954467773,-0.2695198059082031,-0.05646038055419922,0.20347118377685547,0.4449625015258789,0.6372756958007812,-0.48561859130859375,0.40007781982421875
2,610140096.0,9.344853401184082,-1.701131820678711,2.809680938720703,-0.2695198059082031,-0.05646038055419922,0.20347118377685547,0.4449625015258789,0.6372756958007812,-0.48561859130859375,0.40007781982421875
3,610140160.0,9.369993209838867,-1.699934959411621,2.5187768936157227,-0.4889707565307617,0.08202743530273438,0.12996578216552734,0.4449625015258789,0.6372756958007812,-0.48561859130859375,0.40007781982421875
4,610140160.0,9.038386344909668,-1.886688232421875,2.5606765747070312,-0.4889707565307617,0.08202743530273438,0.12996578216552734,0.4449625015258789,0.6372756958007812,-0.48561859130859375,0.40007781982421875
5,610140160.0,8.919870376586914,-1.7059202194213867,3.089811325073242,-0.4889707565307617,0.08202743530273438,0.12996578216552734,0.4449625015258789,0.6372756958007812,-0.48561859130859375,0.40007781982421875
6,610140224.0,8.654105186462402,-1.5490951538085938,2.8635520935058594,-0.6104145050048828,0.1608591079711914,0.09587669372558594,0.46300220489501953,0.6303701400756836,-0.49571704864501953,0.37746238708496094
7,610140224.0,8.293766975402832,-2.0842161178588867,2.4301881790161133,-0.6104145050048828,0.1608591079711914,0.09587669372558594,0.46300220489501953,0.6303701400756836,-0.49571704864501953,0.37746238708496094
8,610140224.0,8.039974212646484,-2.0351333618164062,2.3667402267456055,-0.6104145050048828,0.1608591079711914,0.09587669372558594,0.46300220489501953,0.6303701400756836,-0.49571704864501953,0.37746238708496094
9,610140288.0,8.002862930297852,-2.6756019592285156,2.4218082427978516,-0.6104145050048828,0.1608591079711914,0.09587669372558594,0.4645557403564453,0.6214370727539062,-0.5107793807983398,0.3702983856201172
10,610140288.0,8.077085494995117,-2.7091217041015625,2.4864540100097656,-0.6104145050048828,0.1608591079711914,0.09587669372558594,0.4645557403564453,0.6214370727539062,-0.5107793807983398,0.3702983856201172
11,610140288.0,8.484111785888672,-2.044710159301758,2.3056859970092773,-0.6104145050048828,0.1608591079711914,0.09587669372558594,0.4645557403564453,0.6214370727539062,-0.5107793807983398,0.3702983856201172
12,610140288.0,8.493688583374023,-2.500819206237793,1.9178133010864258,-0.6104145050048828,0.1608591079711914,0.09587669372558594,0.4645557403564453,0.6214370727539062,-0.5107793807983398,0.3702983856201172
13,610140352.0,8.157293319702148,-2.853975296020508,1.7418346405029297,-0.16405487060546875,0.08735370635986328,-0.4197263717651367,0.4617938995361328,0.6139707565307617,-0.5225620269775391,0.3697805404663086
14,610140480.0,9.50646686553955,-2.9246063232421875,1.8747167587280273,0.14594554901123047,0.03621959686279297,-0.22371196746826172,0.45545005798339844,0.6101293563842773,-0.5298557281494141,0.37353515625
15,610140480.0,9.331685066223145,-2.663630485534668,1.9249963760375977,0.14594554901123047,0.03621959686279297,-0.22371196746826172,0.45545005798339844,0.6101293563842773,-0.5298557281494141,0.37353515625
16,610140480.0,9.039584159851074,-2.8048925399780273,2.009993553161621,0.14594554901123047,0.03621959686279297,-0.22371196746826172,0.45545005798339844,0.6101293563842773,-0.5298557281494141,0.37353515625
17,610140544.0,8.99648666381836,-2.970097541809082,2.002810478210449,0.28656482696533203,-0.20986270904541016,0.1320962905883789,0.45545005798339844,0.6101293563842773,-0.5298557281494141,0.37353515625
18,610140544.0,9.049160957336426,-2.901860237121582,2.011190414428711,0.28656482696533203,-0.20986270904541016,0.1320962905883789,0.45545005798339844,0.6101293563842773,-0.5298557281494141,0.37353515625
19,610140736.0,9.04556941986084,-1.697540283203125,2.285334587097168,0.23436450958251953,-0.17044734954833984,-0.11718177795410156,0.4535942077636719,0.6128053665161133,-0.5071544647216797,0.40180397033691406
20,610140800.0,9.310136795043945,-1.7418346405029297,2.047104835510254,0.23436450958251953,-0.17044734954833984,-0.11718177795410156,0.4535942077636719,0.6128053665161133,-0.5071544647216797,0.40180397033691406
21,610140800.0,9.566324234008789,-1.632894515991211,1.886688232421875,0.23436450958251953,-0.17044734954833984,-0.11718177795410156,0.4535942077636719,0.6128053665161133,-0.5071544647216797,0.40180397033691406
22,610140800.0,9.466961860656738,-1.6017694473266602,2.0267534255981445,0.23436450958251953,-0.17044734954833984,-0.11718177795410156,0.4535942077636719,0.6128053665161133,-0.5071544647216797,0.40180397033691406
23,610140864.0,9.330488204956055,-1.4245929718017578,2.191958427429199,0.2301034927368164,-0.14594554901123047,0.0287628173828125,0.45696067810058594,0.6124162673950195,-0.49796199798583984,0.410003662109375
24,610140928.0,8.584671020507812,-1.9202079772949219,2.165620803833008,0.34302520751953125,-0.06711292266845703,0.040480613708496094,0.4535074234008789,0.6159124374389648,-0.4922218322753906,0.41561412811279297
25,610140992.0,8.808536529541016,-1.968092918395996,2.03273868560791,0.34302520751953125,-0.06711292266845703,0.040480613708496094,0.4535074234008789,0.6159124374389648,-0.4922218322753906,0.41561412811279297
26,610140992.0,8.889941215515137,-2.080624580383301,1.8783082962036133,0.34302520751953125,-0.06711292266845703,0.040480613708496094,0.4535074234008789,0.6159124374389648,-0.4922218322753906,0.41561412811279297
27,610140992.0,9.032401084899902,-2.349980354309082,1.7849311828613281,0.34302520751953125,-0.06711292266845703,0.040480613708496094,0.4535074234008789,0.6159124374389648,-0.4922218322753906,0.41561412811279297
28,610141056.0,9.33407974243164,-2.565464973449707,1.7382431030273438,0.18749141693115234,-0.03728485107421875,0.184295654296875,0.4535074234008789,0.6159124374389648,-0.4922218322753906,0.41561412811279297
29,610141248.0,8.290175437927246,-1.8974618911743164,2.0016136169433594,0.2578010559082031,-0.07989692687988281,0.19281864166259766,0.45294666290283203,0.6332187652587891,-0.4630899429321289,0.4235992431640625
30,610141248.0,8.207572937011719,-1.8399991989135742,1.9441509246826172,0.2578010559082031,-0.07989692687988281,0.19281864166259766,0.45294666290283203,0.6332187652587891,-0.4630899429321289,0.4235992431640625
31,610141312.0,8.248275756835938,-1.6771888732910156,1.8747167587280273,0.2578010559082031,-0.07989692687988281,0.19281864166259766,0.45294666290283203,0.6332187652587891,-0.4630899429321289,0.4235992431640625
32,610141312.0,8.394326210021973,-1.674795150756836,1.8519706726074219,0.2578010559082031,-0.07989692687988281,0.19281864166259766,0.45294666290283203,0.6332187652587891,-0.4630899429321289,0.4235992431640625
33,610141312.0,8.747482299804688,-1.8052825927734375,1.7741575241088867,0.2578010559082031,-0.07989692687988281,0.19281864166259766,0.45294666290283203,0.6332187652587891,-0.4630899429321289,0.4235992431640625
34,610141440.0,9.513649940490723,-2.0566816329956055,1.6257123947143555,-0.11079025268554688,-0.026632308959960938,0.014913558959960938,0.4461708068847656,0.6320104598999023,-0.4598960876464844,0.43581295013427734
35,610141504.0,9.504073143005371,-2.0483016967773438,1.6376838684082031,-0.11079025268554688,-0.026632308959960938,0.014913558959960938,0.4461708068847656,0.6320104598999023,-0.4598960876464844,0.43581295013427734
36,610141504.0,9.323305130004883,-2.036330223083496,1.7250747680664062,-0.11079025268554688,-0.026632308959960938,0.014913558959960938,0.4461708068847656,0.6320104598999023,-0.4598960876464844,0.43581295013427734
37,610141504.0,9.089863777160645,-2.033935546875,1.8136625289916992,-0.11079025268554688,-0.026632308959960938,0.014913558959960938,0.4461708068847656,0.6320104598999023,-0.4598960876464844,0.43581295013427734
38,610141504.0,8.992895126342773,-1.9309816360473633,1.8926734924316406,-0.11079025268554688,-0.026632308959960938,0.014913558959960938,0.4461708068847656,0.6320104598999023,-0.4598960876464844,0.43581295013427734
39,610141632.0,9.09584903717041,-2.123721122741699,1.7669744491577148,0.15659809112548828,-0.04900360107421875,-0.060721397399902344,0.451263427734375,0.631535530090332,-0.4519977569580078,0.43961048126220703
40,610141696.0,9.071906089782715,-2.134495735168457,1.7346515655517578,0.15659809112548828,-0.04900360107421875,-0.060721397399902344,0.451263427734375,0.631535530090332,-0.4519977569580078,0.43961048126220703
41,610141696.0,9.197606086730957,-2.073441505432129,1.7765512466430664,0.15659809112548828,-0.04900360107421875,-0.060721397399902344,0.451263427734375,0.631535530090332,-0.4519977569580078,0.43961048126220703
42,610141696.0,9.282602310180664,-2.000415802001953,1.7789459228515625,0.15659809112548828,-0.04900360107421875,-0.060721397399902344,0.451263427734375,0.631535530090332,-0.4519977569580078,0.43961048126220703
43,610141760.0,9.253870964050293,-1.941756248474121,1.7190885543823242,0.07030868530273438,-0.03835010528564453,0.0287628173828125,0.451263427734375,0.631535530090332,-0.4519977569580078,0.43961048126220703
44,610141760.0,9.160494804382324,-1.9285879135131836,1.6532459259033203,0.07030868530273438,-0.03835010528564453,0.0287628173828125,0.451263427734375,0.631535530090332,-0.4519977569580078,0.43961048126220703
45,610141760.0,9.247885704040527,-1.856760025024414,1.6927518844604492,0.07030868530273438,-0.03835010528564453,0.0287628173828125,0.451263427734375,0.631535530090332,-0.4519977569580078,0.43961048126220703
46,610141824.0,9.243097305297852,-1.9214048385620117,1.7214832305908203,0.09587669372558594,-0.020239830017089844,0.025567054748535156,0.451263427734375,0.631535530090332,-0.4519977569580078,0.43961048126220703
47,610141824.0,9.228731155395508,-1.8411970138549805,1.6724004745483398,0.09587669372558594,-0.020239830017089844,0.025567054748535156,0.451263427734375,0.631535530090332,-0.4519977569580078,0.43961048126220703
48,610141824.0,9.11500358581543,-1.7729597091674805,1.6843719482421875,0.09587669372558594,-0.020239830017089844,0.025567054748535156,0.451263427734375,0.631535530090332,-0.4519977569580078,0.43961048126220703
49,610141824.0,9.120988845825195,-1.786128044128418,1.7023286819458008,0.09587669372558594,-0.020239830017089844,0.025567054748535156,0.451263427734375,0.631535530090332,-0.4519977569580078,0.43961048126220703
50,610141888.0,9.210774421691895,-1.789719581604004,1.7645797729492188,0.07137489318847656,0.00852203369140625,0.0063915252685546875,0.451263427734375,0.631535530090332,-0.4519977569580078,0.43961048126220703
51,610141888.0,9.16648006439209,-1.6759920120239258,1.7178916931152344,0.07137489318847656,0.00852203369140625,0.0063915252685546875,0.451263427734375,0.631535530090332,-0.4519977569580078,0.43961048126220703
52,610141888.0,9.039584159851074,-1.6963434219360352,1.727468490600586,0.07137489318847656,0.00852203369140625,0.0063915252685546875,0.451263427734375,0.631535530090332,-0.4519977569580078,0.43961048126220703
53,610141952.0,9.038386344909668,-1.8328170776367188,1.762186050415039,0.025567054748535156,0.013848304748535156,-0.020239830017089844,0.451263427734375,0.631535530090332,-0.4519977569580078,0.43961048126220703
54,610141952.0,9.160494804382324,-1.726271629333496,1.6807804107666016,0.025567054748535156,0.013848304748535156,-0.020239830017089844,0.451263427734375,0.631535530090332,-0.4519977569580078,0.43961048126220703
55,610141952.0,9.148523330688477,-1.7430315017700195,1.6448659896850586,0.025567054748535156,0.013848304748535156,-0.020239830017089844,0.451263427734375,0.631535530090332,-0.4519977569580078,0.43961048126220703
56,610141952.0,9.160494804382324,-1.726271629333496,1.6807804107666016,0.025567054748535156,0.013848304748535156,-0.020239830017089844,0.451263427734375,0.631535530090332,-0.4519977569580078,0.43961048126220703
57,610141952.0,9.148523330688477,-1.7430315017700195,1.6448659896850586,0.025567054748535156,0.013848304748535156,-0.020239830017089844,0.451263427734375,0.631535530090332,-0.4519977569580078,0.43961048126220703
58,610142016.0,9.111412048339844,-1.7945079803466797,1.6484575271606445,0.009587287902832031,0.010652542114257812,-0.020239830017089844,0.451263427734375,0.631535530090332,-0.4519977569580078,0.43961048126220703
59,610142016.0,9.11500358581543,-1.7945079803466797,1.7131032943725586,0.009587287902832031,0.010652542114257812,-0.020239830017089844,0.451263427734375,0.631535530090332,-0.4519977569580078,0.43961048126220703
60,610142016.0,9.158100128173828,-1.7478199005126953,1.6484575271606445,0.009587287902832031,0.010652542114257812,-0.020239830017089844,0.451263427734375,0.631535530090332,-0.4519977569580078,0.43961048126220703
61,610142016.0,9.111412048339844,-1.7945079803466797,1.6484575271606445,0.009587287902832031,0.010652542114257812,-0.020239830017089844,0.451263427734375,0.631535530090332,-0.4519977569580078,0.43961048126220703
62,610142016.0,9.11500358581543,-1.7945079803466797,1.7131032943725586,0.009587287902832031,0.010652542114257812,-0.020239830017089844,0.451263427734375,0.631535530090332,-0.4519977569580078,0.43961048126220703
63,610142016.0,9.158100128173828,-1.7478199005126953,1.6484575271606445,0.009587287902832031,0.010652542114257812,-0.020239830017089844,0.451263427734375,0.631535530090332,-0.4519977569580078,0.43961048126220703
64,610142080.0,9.11620044708252,-1.759791374206543,1.567051887512207,0.009587287902832031,0.010652542114257812,-0.020239830017089844,0.451263427734375,0.631535530090332,-0.4519977569580078,0.43961048126220703
65,610142080.0,9.051554679870605,-1.762186050415039,1.5826148986816406,0.009587287902832031,0.010652542114257812,-0.020239830017089844,0.451263427734375,0.631535530090332,-0.4519977569580078,0.43961048126220703
66,610142080.0,9.057540893554688,-1.7693681716918945,1.6077547073364258,0.009587287902832031,0.010652542114257812,-0.020239830017089844,0.451263427734375,0.631535530090332,-0.4519977569580078,0.43961048126220703
67,610142080.0,9.152114868164062,-1.789719581604004,1.6197261810302734,0.009587287902832031,0.010652542114257812,-0.020239830017089844,0.451263427734375,0.631535530090332,-0.4519977569580078,0.43961048126220703
68,610142144.0,9.129368782043457,-1.7945079803466797,1.5814180374145508,0.009587287902832031,0.010652542114257812,-0.020239830017089844,0.451263427734375,0.631535530090332,-0.4519977569580078,0.43961048126220703
69,610142272.0,9.16408634185791,-1.8615484237670898,1.6987371444702148,-0.021305084228515625,0.013848304748535156,-0.04687213897705078,0.451263427734375,0.631535530090332,-0.4519977569580078,0.43961048126220703
70,610142272.0,9.219154357910156,-1.8459854125976562,1.6855688095092773,-0.021305084228515625,0.013848304748535156,-0.04687213897705078,0.451263427734375,0.631535530090332,-0.4519977569580078,0.43961048126220703
71,610142272.0,9.243097305297852,-1.7837343215942383,1.6724004745483398,-0.021305084228515625,0.013848304748535156,-0.04687213897705078,0.451263427734375,0.631535530090332,-0.4519977569580078,0.43961048126220703
72,610142336.0,9.202394485473633,-1.752608299255371,1.60296630859375,0.023435592651367188,0.07776641845703125,-0.057525634765625,0.451263427734375,0.631535530090332,-0.4519977569580078,0.43961048126220703
73,610142336.0,9.105425834655762,-1.635289192199707,1.5538835525512695,0.023435592651367188,0.07776641845703125,-0.057525634765625,0.451263427734375,0.631535530090332,-0.4519977569580078,0.43961048126220703
74,610142336.0,9.233519554138184,-1.8316192626953125,1.67120361328125,0.023435592651367188,0.07776641845703125,-0.057525634765625,0.451263427734375,0.631535530090332,-0.4519977569580078,0.43961048126220703
75,610142400.0,9.439427375793457,-2.0315418243408203,1.8124656677246094,0.023435592651367188,0.07776641845703125,-0.057525634765625,0.451263427734375,0.631535530090332,-0.4519977569580078,0.43961048126220703
76,610142400.0,8.97613525390625,-1.8016910552978516,2.033935546875,0.023435592651367188,0.07776641845703125,-0.057525634765625,0.451263427734375,0.631535530090332,-0.4519977569580078,0.43961048126220703
77,610142400.0,9.051554679870605,-1.7969026565551758,2.005204200744629,0.023435592651367188,0.07776641845703125,-0.057525634765625,0.451263427734375,0.631535530090332,-0.4519977569580078,0.43961048126220703
78,610142464.0,9.323305130004883,-1.6484575271606445,1.919011116027832,0.07030868530273438,0.1097249984741211,-0.02982807159423828,0.451263427734375,0.631535530090332,-0.4519977569580078,0.43961048126220703
79,610142464.0,9.294573783874512,-2.1189327239990234,1.7801427841186523,0.07030868530273438,0.1097249984741211,-0.02982807159423828,0.451263427734375,0.631535530090332,-0.4519977569580078,0.43961048126220703
80,610142464.0,9.016838073730469,-1.8926734924316406,2.1512556076049805,0.07030868530273438,0.1097249984741211,-0.02982807159423828,0.451263427734375,0.631535530090332,-0.4519977569580078,0.43961048126220703
81,610142464.0,9.053949356079102,-1.667612075805664,2.500819206237793,0.07030868530273438,0.1097249984741211,-0.02982807159423828,0.451263427734375,0.631535530090332,-0.4519977569580078,0.43961048126220703
82,610142528.0,9.031203269958496,-1.6879634857177734,2.260194778442383,0.05006885528564453,-0.05646038055419922,-0.10652923583984375,0.451263427734375,0.631535530090332,-0.4519977569580078,0.43961048126220703
83,610142528.0,9.04556941986084,-1.4257898330688477,1.9597129821777344,0.05006885528564453,-0.05646038055419922,-0.10652923583984375,0.451263427734375,0.631535530090332,-0.4519977569580078,0.43961048126220703
84,610142528.0,9.123383522033691,-1.786128044128418,1.7466230392456055,0.05006885528564453,-0.05646038055419922,-0.10652923583984375,0.451263427734375,0.631535530090332,-0.4519977569580078,0.43961048126220703
85,610142528.0,9.123383522033691,-1.786128044128418,1.7466230392456055,0.05006885528564453,-0.05646038055419922,-0.10652923583984375,0.451263427734375,0.631535530090332,-0.4519977569580078,0.43961048126220703
86,610142592.0,9.123383522033691,-1.916616439819336,1.7119054794311523,0.05006885528564453,-0.05646038055419922,-0.10652923583984375,0.451263427734375,0.631535530090332,-0.4519977569580078,0.43961048126220703
87,610142592.0,9.068314552307129,-1.6568374633789062,1.726271629333496,0.05006885528564453,-0.05646038055419922,-0.10652923583984375,0.451263427734375,0.631535530090332,-0.4519977569580078,0.43961048126220703
88,610142592.0,9.135354995727539,-1.4210014343261719,1.8926734924316406,0.05006885528564453,-0.05646038055419922,-0.10652923583984375,0.451263427734375,0.631535530090332,-0.4519977569580078,0.43961048126220703
89,610142592.0,9.123383522033691,-1.916616439819336,1.7119054794311523,0.05006885528564453,-0.05646038055419922,-0.10652923583984375,0.451263427734375,0.631535530090332,-0.4519977569580078,0.43961048126220703
90,610142592.0,9.068314552307129,-1.6568374633789062,1.726271629333496,0.05006885528564453,-0.05646038055419922,-0.10652923583984375,0.451263427734375,0.631535530090332,-0.4519977569580078,0.43961048126220703
91,610142592.0,9.135354995727539,-1.4210014343261719,1.8926734924316406,0.05006885528564453,-0.05646038055419922,-0.10652923583984375,0.451263427734375,0.631535530090332,-0.4519977569580078,0.43961048126220703
92,610142656.0,9.258659362792969,-1.4593095779418945,1.7825374603271484,0.004261016845703125,-0.025567054748535156,-0.021305084228515625,0.451263427734375,0.631535530090332,-0.4519977569580078,0.43961048126220703
93,610142656.0,9.258659362792969,-1.4593095779418945,1.7825374603271484,0.004261016845703125,-0.025567054748535156,-0.021305084228515625,0.451263427734375,0.631535530090332,-0.4519977569580078,0.43961048126220703
94,610142720.0,9.107820510864258,-1.576629638671875,1.8052825927734375,0.042611122131347656,-0.024501800537109375,-0.0031957626342773438,0.451263427734375,0.631535530090332,-0.4519977569580078,0.43961048126220703
95,610142720.0,9.107820510864258,-1.576629638671875,1.8052825927734375,0.042611122131347656,-0.024501800537109375,-0.0031957626342773438,0.451263427734375,0.631535530090332,-0.4519977569580078,0.43961048126220703
96,610142784.0,9.205986022949219,-1.6281061172485352,1.8663368225097656,0.0,-0.01597881317138672,0.022370338439941406,0.451263427734375,0.631535530090332,-0.4519977569580078,0.43961048126220703
97,610142784.0,9.261054039001465,-1.504800796508789,1.9501361846923828,0.0,-0.01597881317138672,0.022370338439941406,0.451263427734375,0.631535530090332,-0.4519977569580078,0.43961048126220703
98,610142784.0,9.183239936828613,-1.476069450378418,1.9633045196533203,0.0,-0.01597881317138672,0.022370338439941406,0.451263427734375,0.631535530090332,-0.4519977569580078,0.43961048126220703
99,610142784.0,9.205986022949219,-1.6281061172485352,1.8663368225097656,0.0,-0.01597881317138672,0.022370338439941406,0.451263427734375,0.631535530090332,-0.4519977569580078,0.43961048126220703
100,610142784.0,9.261054039001465,-1.504800796508789,1.9501361846923828,0.0,-0.01597881317138672,0.022370338439941406,0.451263427734375,0.631535530090332,-0.4519977569580078,0.43961048126220703
101,610142784.0,9.183239936828613,-1.476069450378418,1.9633045196533203,0.0,-0.01597881317138672,0.022370338439941406,0.451263427734375,0.631535530090332,-0.4519977569580078,0.43961048126220703
102,610142848.0,9.170071601867676,-1.6041631698608398,1.8926734924316406,-0.0287628173828125,-0.007456779479980469,0.0628519058227539,0.451263427734375,0.631535530090332,-0.4519977569580078,0.43961048126220703
103,610142848.0,9.170071601867676,-1.6041631698608398,1.8926734924316406,-0.0287628173828125,-0.007456779479980469,0.0628519058227539,0.451263427734375,0.631535530090332,-0.4519977569580078,0.43961048126220703
104,610142976.0,9.06592082977295,-1.727468490600586,1.971684455871582,-0.005326271057128906,0.024501800537109375,0.11398601531982422,0.4427614212036133,0.6391744613647461,-0.44012928009033203,0.44914817810058594
105,610142976.0,9.038386344909668,-1.6508522033691406,1.9824590682983398,-0.005326271057128906,0.024501800537109375,0.11398601531982422,0.4427614212036133,0.6391744613647461,-0.44012928009033203,0.44914817810058594
106,610142976.0,9.087469100952148,-1.727468490600586,1.9692907333374023,-0.005326271057128906,0.024501800537109375,0.11398601531982422,0.4427614212036133,0.6391744613647461,-0.44012928009033203,0.44914817810058594
107,610143040.0,9.103032112121582,-1.7466230392456055,1.9932336807250977,-0.052199363708496094,0.0170440673828125,0.07244014739990234,0.44353771209716797,0.6399517059326172,-0.4395256042480469,0.44785404205322266
108,610143040.0,9.126975059509277,-1.7322568893432617,2.009993553161621,-0.052199363708496094,0.0170440673828125,0.07244014739990234,0.44353771209716797,0.6399517059326172,-0.4395256042480469,0.44785404205322266
109,610143040.0,9.113805770874023,-1.8423938751220703,1.9357709884643555,-0.052199363708496094,0.0170440673828125,0.07244014739990234,0.44353771209716797,0.6399517059326172,-0.4395256042480469,0.44785404205322266
110,610143040.0,9.208379745483398,-1.8974618911743164,1.909433364868164,-0.052199363708496094,0.0170440673828125,0.07244014739990234,0.44353771209716797,0.6399517059326172,-0.4395256042480469,0.44785404205322266
111,610143104.0,9.269433975219727,-1.909433364868164,1.9261932373046875,-0.040480613708496094,0.011717796325683594,0.08948421478271484,0.44353771209716797,0.6399517059326172,-0.4395256042480469,0.44785404205322266
112,610143104.0,9.14493179321289,-1.8723220825195312,1.9884443283081055,-0.040480613708496094,0.011717796325683594,0.08948421478271484,0.44353771209716797,0.6399517059326172,-0.4395256042480469,0.44785404205322266
113,610143104.0,9.089863777160645,-1.9369678497314453,1.98126220703125,-0.040480613708496094,0.011717796325683594,0.08948421478271484,0.44353771209716797,0.6399517059326172,-0.4395256042480469,0.44785404205322266
114,610143232.0,8.970149993896484,-2.018373489379883,1.952530860900879,-0.041545867919921875,0.009587287902832031,0.09267997741699219,0.4507455825805664,0.6431026458740234,-0.4354248046875,0.44004249572753906
115,610143296.0,9.007261276245117,-2.0016136169433594,1.9106311798095703,-0.041545867919921875,0.009587287902832031,0.09267997741699219,0.4507455825805664,0.6431026458740234,-0.4354248046875,0.44004249572753906
116,610143296.0,8.897124290466309,-2.0746383666992188,1.9214048385620117,-0.041545867919921875,0.009587287902832031,0.09267997741699219,0.4507455825805664,0.6431026458740234,-0.4354248046875,0.44004249572753906
117,610143296.0,8.865999221801758,-2.1165380477905273,1.883096694946289,-0.041545867919921875,0.009587287902832031,0.09267997741699219,0.4507455825805664,0.6431026458740234,-0.4354248046875,0.44004249572753906
118,610143360.0,8.893532752990723,-2.0219640731811523,1.8352108001708984,-0.020239830017089844,0.0063915252685546875,0.042611122131347656,0.4507455825805664,0.6431026458740234,-0.4354248046875,0.44004249572753906
119,610143360.0,9.018034934997559,-2.1081581115722656,1.7645797729492188,-0.020239830017089844,0.0063915252685546875,0.042611122131347656,0.4507455825805664,0.6431026458740234,-0.4354248046875,0.44004249572753906
120,610143360.0,9.012049674987793,-2.1081581115722656,1.7310600280761719,-0.020239830017089844,0.0063915252685546875,0.042611122131347656,0.4507455825805664,0.6431026458740234,-0.4354248046875,0.44004249572753906
121,610143360.0,8.956981658935547,-2.109355926513672,1.7550029754638672,-0.020239830017089844,0.0063915252685546875,0.042611122131347656,0.4507455825805664,0.6431026458740234,-0.4354248046875,0.44004249572753906
122,610143424.0,8.947403907775879,-2.0530900955200195,1.737046241760254,-0.06391716003417969,-0.0063915252685546875,0.024501800537109375,0.4507455825805664,0.6431026458740234,-0.4354248046875,0.44004249572753906
123,610143424.0,8.937827110290527,-2.094989776611328,1.7442283630371094,-0.06391716003417969,-0.0063915252685546875,0.024501800537109375,0.4507455825805664,0.6431026458740234,-0.4354248046875,0.44004249572753906
124,610143424.0,8.915081024169922,-2.1177358627319336,1.8447885513305664,-0.06391716003417969,-0.0063915252685546875,0.024501800537109375,0.4507455825805664,0.6431026458740234,-0.4354248046875,0.44004249572753906
125,610143424.0,8.915081024169922,-2.1177358627319336,1.8447885513305664,-0.06391716003417969,-0.0063915252685546875,0.024501800537109375,0.4507455825805664,0.6431026458740234,-0.4354248046875,0.44004249572753906
126,610143488.0,8.936630249023438,-2.159635543823242,1.8639421463012695,-0.06391716003417969,-0.0063915252685546875,0.024501800537109375,0.4507455825805664,0.6431026458740234,-0.4354248046875,0.44004249572753906
127,610143488.0,8.838464736938477,-2.159635543823242,1.8399991989135742,-0.06391716003417969,-0.0063915252685546875,0.024501800537109375,0.4507455825805664,0.6431026458740234,-0.4354248046875,0.44004249572753906
128,610143488.0,8.857619285583496,-2.124917984008789,1.7945079803466797,-0.06391716003417969,-0.0063915252685546875,0.024501800537109375,0.4507455825805664,0.6431026458740234,-0.4354248046875,0.44004249572753906
129,610143488.0,8.936630249023438,-2.159635543823242,1.8639421463012695,-0.06391716003417969,-0.0063915252685546875,0.024501800537109375,0.4507455825805664,0.6431026458740234,-0.4354248046875,0.44004249572753906
130,610143488.0,8.838464736938477,-2.159635543823242,1.8399991989135742,-0.06391716003417969,-0.0063915252685546875,0.024501800537109375,0.4507455825805664,0.6431026458740234,-0.4354248046875,0.44004249572753906
131,610143488.0,8.857619285583496,-2.124917984008789,1.7945079803466797,-0.06391716003417969,-0.0063915252685546875,0.024501800537109375,0.4507455825805664,0.6431026458740234,-0.4354248046875,0.44004249572753906
132,610143552.0,8.889941215515137,-2.1177358627319336,1.8639421463012695,-0.06391716003417969,-0.0063915252685546875,0.024501800537109375,0.4507455825805664,0.6431026458740234,-0.4354248046875,0.44004249572753906
133,610143552.0,8.889941215515137,-2.1177358627319336,1.8639421463012695,-0.06391716003417969,-0.0063915252685546875,0.024501800537109375,0.4507455825805664,0.6431026458740234,-0.4354248046875,0.44004249572753906
134,610143552.0,8.949798583984375,-2.0782299041748047,1.8495769500732422,-0.06391716003417969,-0.0063915252685546875,0.024501800537109375,0.4507455825805664,0.6431026458740234,-0.4354248046875,0.44004249572753906
135,610143552.0,8.99409294128418,-2.073441505432129,1.8627452850341797,-0.06391716003417969,-0.0063915252685546875,0.024501800537109375,0.4507455825805664,0.6431026458740234,-0.4354248046875,0.44004249572753906
136,610143616.0,9.015641212463379,-2.121326446533203,1.8699283599853516,-0.06391716003417969,-0.0063915252685546875,0.024501800537109375,0.46015357971191406,0.6431884765625,-0.4293832778930664,0.43607139587402344
137,610143616.0,9.051554679870605,-2.1799869537353516,1.8340139389038086,-0.06391716003417969,-0.0063915252685546875,0.024501800537109375,0.46015357971191406,0.6431884765625,-0.4293832778930664,0.43607139587402344
138,610143616.0,9.089863777160645,-2.133297920227051,1.886688232421875,-0.06391716003417969,-0.0063915252685546875,0.024501800537109375,0.46015357971191406,0.6431884765625,-0.4293832778930664,0.43607139587402344
139,610143744.0,9.155706405639648,-2.2362518310546875,1.916616439819336,0.0,-0.05539512634277344,-0.02982807159423828,0.46093082427978516,0.6410303115844727,-0.429901123046875,0.4379701614379883
140,610143744.0,9.120988845825195,-2.2422380447387695,2.002810478210449,0.0,-0.05539512634277344,-0.02982807159423828,0.46093082427978516,0.6410303115844727,-0.429901123046875,0.4379701614379883
141,610143808.0,9.14612865447998,-2.2458295822143555,1.9860506057739258,0.0,-0.05539512634277344,-0.02982807159423828,0.46093082427978516,0.6410303115844727,-0.429901123046875,0.4379701614379883
142,610143808.0,9.057540893554688,-2.2326602935791016,1.9824590682983398,0.0,-0.05539512634277344,-0.02982807159423828,0.46093082427978516,0.6410303115844727,-0.429901123046875,0.4379701614379883
143,610143808.0,9.074300765991211,-2.2170982360839844,1.9501361846923828,0.0,-0.05539512634277344,-0.02982807159423828,0.46093082427978516,0.6410303115844727,-0.429901123046875,0.4379701614379883
144,610143872.0,9.103032112121582,-2.105764389038086,1.9609107971191406,-0.03728485107421875,0.004261016845703125,0.052199363708496094,0.46093082427978516,0.6410303115844727,-0.429901123046875,0.4379701614379883
145,610143872.0,9.079089164733887,-2.127312660217285,1.9621076583862305,-0.03728485107421875,0.004261016845703125,0.052199363708496094,0.46093082427978516,0.6410303115844727,-0.429901123046875,0.4379701614379883
146,610143872.0,9.053949356079102,-2.1955490112304688,1.880702018737793,-0.03728485107421875,0.004261016845703125,0.052199363708496094,0.46093082427978516,0.6410303115844727,-0.429901123046875,0.4379701614379883
147,610143936.0,9.035992622375488,-2.219491958618164,1.8938703536987305,-0.009587287902832031,0.0021305084228515625,0.019174575805664062,0.46093082427978516,0.6410303115844727,-0.429901123046875,0.4379701614379883
148,610143936.0,9.131763458251953,-2.2111120223999023,1.9070396423339844,-0.009587287902832031,0.0021305084228515625,0.019174575805664062,0.46093082427978516,0.6410303115844727,-0.429901123046875,0.4379701614379883
149,610143936.0,9.085075378417969,-2.175198554992676,1.8316192626953125,-0.009587287902832031,0.0021305084228515625,0.019174575805664062,0.46093082427978516,0.6410303115844727,-0.429901123046875,0.4379701614379883
150,610144000.0,8.956981658935547,-2.233858108520508,1.8232393264770508,-0.009587287902832031,0.0021305084228515625,0.019174575805664062,0.46093082427978516,0.6410303115844727,-0.429901123046875,0.4379701614379883
151,610144000.0,8.99768352508545,-2.286531448364258,1.7777481079101562,-0.009587287902832031,0.0021305084228515625,0.019174575805664062,0.46093082427978516,0.6410303115844727,-0.429901123046875,0.4379701614379883
152,610144000.0,9.034794807434082,-2.256603240966797,1.7801427841186523,-0.009587287902832031,0.0021305084228515625,0.019174575805664062,0.46093082427978516,0.6410303115844727,-0.429901123046875,0.4379701614379883
153,610144000.0,9.007261276245117,-2.225478172302246,1.752608299255371,-0.009587287902832031,0.0021305084228515625,0.019174575805664062,0.46093082427978516,0.6410303115844727,-0.429901123046875,0.4379701614379883
154,610144064.0,8.982121467590332,-2.2075204849243164,1.7442283630371094,-0.019174575805664062,-0.0010652542114257812,0.022370338439941406,0.46093082427978516,0.6410303115844727,-0.429901123046875,0.4379701614379883
155,610144064.0,9.010852813720703,-2.284137725830078,1.7693681716918945,-0.019174575805664062,-0.0010652542114257812,0.022370338439941406,0.46093082427978516,0.6410303115844727,-0.429901123046875,0.4379701614379883
156,610144064.0,9.0754976272583,-2.281743049621582,1.7573966979980469,-0.019174575805664062,-0.0010652542114257812,0.022370338439941406,0.46093082427978516,0.6410303115844727,-0.429901123046875,0.4379701614379883
157,610144064.0,8.982121467590332,-2.2075204849243164,1.7442283630371094,-0.019174575805664062,-0.0010652542114257812,0.022370338439941406,0.46093082427978516,0.6410303115844727,-0.429901123046875,0.4379701614379883
158,610144064.0,9.010852813720703,-2.284137725830078,1.7693681716918945,-0.019174575805664062,-0.0010652542114257812,0.022370338439941406,0.46093082427978516,0.6410303115844727,-0.429901123046875,0.4379701614379883
159,610144064.0,9.0754976272583,-2.281743049621582,1.7573966979980469,-0.019174575805664062,-0.0010652542114257812,0.022370338439941406,0.46093082427978516,0.6410303115844727,-0.429901123046875,0.4379701614379883
160,610144128.0,9.053949356079102,-2.248223304748535,1.7250747680664062,0.0010652542114257812,0.0,0.009587287902832031,0.46093082427978516,0.6410303115844727,-0.429901123046875,0.4379701614379883
161,610144128.0,8.982121467590332,-2.2374496459960938,1.6831750869750977,0.0010652542114257812,0.0,0.009587287902832031,0.46093082427978516,0.6410303115844727,-0.429901123046875,0.4379701614379883
162,610144128.0,9.053949356079102,-2.248223304748535,1.7250747680664062,0.0010652542114257812,0.0,0.009587287902832031,0.46093082427978516,0.6410303115844727,-0.429901123046875,0.4379701614379883
163,610144128.0,8.982121467590332,-2.2374496459960938,1.6831750869750977,0.0010652542114257812,0.0,0.009587287902832031,0.46093082427978516,0.6410303115844727,-0.429901123046875,0.4379701614379883
164,610144128.0,8.917475700378418,-2.2637863159179688,1.7202863693237305,0.0010652542114257812,0.0,0.009587287902832031,0.46093082427978516,0.6410303115844727,-0.429901123046875,0.4379701614379883
165,610144192.0,9.038386344909668,-2.2613916397094727,1.6843719482421875,0.0010652542114257812,0.0,0.009587287902832031,0.46093082427978516,0.6410303115844727,-0.429901123046875,0.4379701614379883
166,610144192.0,9.028809547424316,-2.2386465072631836,1.6855688095092773,0.0010652542114257812,0.0,0.009587287902832031,0.46093082427978516,0.6410303115844727,-0.429901123046875,0.4379701614379883
167,610144192.0,9.02402114868164,-2.281743049621582,1.699934959411621,0.0010652542114257812,0.0,0.009587287902832031,0.46093082427978516,0.6410303115844727,-0.429901123046875,0.4379701614379883
168,610144256.0,9.09465217590332,-2.255406379699707,1.7442283630371094,0.053264617919921875,-0.031958580017089844,-0.013848304748535156,0.46093082427978516,0.6410303115844727,-0.429901123046875,0.4379701614379883
169,610144384.0,9.077892303466797,-2.280546188354492,1.8316192626953125,0.013848304748535156,-0.01810932159423828,0.011717796325683594,0.46093082427978516,0.6410303115844727,-0.429901123046875,0.4379701614379883
170,610144384.0,9.091060638427734,-2.256603240966797,1.8603506088256836,0.013848304748535156,-0.01810932159423828,0.011717796325683594,0.46093082427978516,0.6410303115844727,-0.429901123046875,0.4379701614379883
171,610144384.0,9.110215187072754,-2.215900421142578,1.8292255401611328,0.013848304748535156,-0.01810932159423828,0.011717796325683594,0.46093082427978516,0.6410303115844727,-0.429901123046875,0.4379701614379883
172,610144384.0,9.068314552307129,-2.2350549697875977,1.8795051574707031,0.013848304748535156,-0.01810932159423828,0.011717796325683594,0.46093082427978516,0.6410303115844727,-0.429901123046875,0.4379701614379883
173,610144448.0,9.050357818603516,-2.212308883666992,1.848379135131836,0.009587287902832031,-0.012783050537109375,0.020239830017089844,0.4646425247192383,0.6440515518188477,-0.42144203186035156,0.43779754638671875
174,610144576.0,9.050357818603516,-2.150057792663574,1.828028678894043,-0.01810932159423828,0.0031957626342773438,-0.004261016845703125,0.4648580551147461,0.6443967819213867,-0.4210968017578125,0.4374094009399414
175,610144576.0,8.967755317687988,-2.1440725326538086,1.814859390258789,-0.01810932159423828,0.0031957626342773438,-0.004261016845703125,0.4648580551147461,0.6443967819213867,-0.4210968017578125,0.4374094009399414
176,610144576.0,8.949798583984375,-2.2051267623901367,1.7980995178222656,-0.01810932159423828,0.0031957626342773438,-0.004261016845703125,0.4648580551147461,0.6443967819213867,-0.4210968017578125,0.4374094009399414
177,610144576.0,8.998881340026855,-2.2398433685302734,1.795705795288086,-0.01810932159423828,0.0031957626342773438,-0.004261016845703125,0.4648580551147461,0.6443967819213867,-0.4210968017578125,0.4374094009399414
178,610144640.0,9.085075378417969,-2.138087272644043,1.795705795288086,-0.0010652542114257812,0.0031957626342773438,-0.005326271057128906,0.4648580551147461,0.6443967819213867,-0.4210968017578125,0.4374094009399414
179,610144640.0,9.013246536254883,-2.1847753524780273,1.8100709915161133,-0.0010652542114257812,0.0031957626342773438,-0.005326271057128906,0.4648580551147461,0.6443967819213867,-0.4210968017578125,0.4374094009399414
180,610144640.0,8.984515190124512,-2.253011703491211,1.7873258590698242,-0.0010652542114257812,0.0031957626342773438,-0.005326271057128906,0.4648580551147461,0.6443967819213867,-0.4210968017578125,0.4374094009399414
181,610144640.0,9.056344032287598,-2.1297073364257812,1.8016910552978516,-0.0010652542114257812,0.0031957626342773438,-0.005326271057128906,0.4648580551147461,0.6443967819213867,-0.4210968017578125,0.4374094009399414
182,610144640.0,8.972543716430664,-2.2147035598754883,1.795705795288086,-0.0010652542114257812,0.0031957626342773438,-0.005326271057128906,0.4648580551147461,0.6443967819213867,-0.4210968017578125,0.4374094009399414
183,610144704.0,9.027612686157227,-2.2434349060058594,1.7693681716918945,-0.0010652542114257812,0.0031957626342773438,-0.005326271057128906,0.4648580551147461,0.6443967819213867,-0.4210968017578125,0.4374094009399414
184,610144704.0,9.103032112121582,-2.2135066986083984,1.752608299255371,-0.0010652542114257812,0.0031957626342773438,-0.005326271057128906,0.4648580551147461,0.6443967819213867,-0.4210968017578125,0.4374094009399414
185,610144704.0,9.033597946166992,-2.1883668899536133,1.788522720336914,-0.0010652542114257812,0.0031957626342773438,-0.005326271057128906,0.4648580551147461,0.6443967819213867,-0.4210968017578125,0.4374094009399414
186,610144704.0,8.985712051391602,-2.249420166015625,1.7849311828613281,-0.0010652542114257812,0.0031957626342773438,-0.005326271057128906,0.4648580551147461,0.6443967819213867,-0.4210968017578125,0.4374094009399414
187,610144704.0,9.07669448852539,-2.22428035736084,1.7514114379882812,-0.0010652542114257812,0.0031957626342773438,-0.005326271057128906,0.4648580551147461,0.6443967819213867,-0.4210968017578125,0.4374094009399414
188,610144704.0,9.071906089782715,-2.2135066986083984,1.7585945129394531,-0.0010652542114257812,0.0031957626342773438,-0.005326271057128906,0.4648580551147461,0.6443967819213867,-0.4210968017578125,0.4374094009399414
189,610144704.0,9.02402114868164,-2.226675033569336,1.7945079803466797,-0.0010652542114257812,0.0031957626342773438,-0.005326271057128906,0.4648580551147461,0.6443967819213867,-0.4210968017578125,0.4374094009399414
190,610144768.0,8.989303588867188,-2.29251766204834,1.786128044128418,-0.014913558959960938,-0.007456779479980469,-0.013848304748535156,0.4648580551147461,0.6443967819213867,-0.4210968017578125,0.4374094009399414
191,610144768.0,8.97613525390625,-2.3080806732177734,1.7729597091674805,-0.014913558959960938,-0.007456779479980469,-0.013848304748535156,0.4648580551147461,0.6443967819213867,-0.4210968017578125,0.4374094009399414
192,610144768.0,9.001275062561035,-2.322445869445801,1.7502145767211914,-0.014913558959960938,-0.007456779479980469,-0.013848304748535156,0.4648580551147461,0.6443967819213867,-0.4210968017578125,0.4374094009399414
193,610144832.0,8.991698265075684,-2.2949113845825195,1.814859390258789,-0.00852203369140625,-0.0063915252685546875,-0.0063915252685546875,0.4648580551147461,0.6443967819213867,-0.4210968017578125,0.4374094009399414
194,610144832.0,8.942615509033203,-2.3260374069213867,1.7825374603271484,-0.00852203369140625,-0.0063915252685546875,-0.0063915252685546875,0.4648580551147461,0.6443967819213867,-0.4210968017578125,0.4374094009399414
195,610144832.0,8.934235572814941,-2.353571891784668,1.7980995178222656,-0.00852203369140625,-0.0063915252685546875,-0.0063915252685546875,0.4648580551147461,0.6443967819213867,-0.4210968017578125,0.4374094009399414
196,610144896.0,9.129368782043457,-2.3356142044067383,1.8340139389038086,-0.00852203369140625,-0.0063915252685546875,-0.0063915252685546875,0.4648580551147461,0.6443967819213867,-0.4210968017578125,0.4374094009399414
197,610144896.0,9.281405448913574,-2.3116722106933594,2.1488609313964844,-0.00852203369140625,-0.0063915252685546875,-0.0063915252685546875,0.4648580551147461,0.6443967819213867,-0.4210968017578125,0.4374094009399414
198,610144896.0,9.534001350402832,-1.9034481048583984,2.4924392700195312,-0.00852203369140625,-0.0063915252685546875,-0.0063915252685546875,0.4648580551147461,0.6443967819213867,-0.4210968017578125,0.4374094009399414
199,610144960.0,9.99609661102295,-1.91302490234375,3.149667739868164,-1.2325477600097656,0.5379743576049805,0.6263942718505859,0.4648580551147461,0.6443967819213867,-0.4210968017578125,0.4374094009399414
200,610144960.0,10.466571807861328,-2.434976577758789,4.27497673034668,-1.2325477600097656,0.5379743576049805,0.6263942718505859,0.4648580551147461,0.6443967819213867,-0.4210968017578125,0.4374094009399414
201,610144960.0,10.569524765014648,-3.617748260498047,4.103786468505859,-1.2325477600097656,0.5379743576049805,0.6263942718505859,0.4648580551147461,0.6443967819213867,-0.4210968017578125,0.4374094009399414
202,610144960.0,10.295380592346191,-2.150057792663574,3.999635696411133,-1.2325477600097656,0.5379743576049805,0.6263942718505859,0.4648580551147461,0.6443967819213867,-0.4210968017578125,0.4374094009399414
203,610144960.0,10.446220397949219,-2.9509429931640625,4.268991470336914,-1.2325477600097656,0.5379743576049805,0.6263942718505859,0.4648580551147461,0.6443967819213867,-0.4210968017578125,0.4374094009399414
204,610144960.0,11.084294319152832,-4.0379438400268555,4.110969543457031,-1.2325477600097656,0.5379743576049805,0.6263942718505859,0.4648580551147461,0.6443967819213867,-0.4210968017578125,0.4374094009399414
205,610145024.0,12.018061637878418,-4.204345703125,4.206740379333496,-1.9697332382202148,1.1920671463012695,2.884823799133301,0.4648580551147461,0.6443967819213867,-0.4210968017578125,0.4374094009399414
206,610145024.0,14.48895263671875,-4.213923454284668,4.126531600952148,-1.9697332382202148,1.1920671463012695,2.884823799133301,0.4648580551147461,0.6443967819213867,-0.4210968017578125,0.4374094009399414
207,610145024.0,14.540430068969727,-5.570280075073242,4.182797431945801,-1.9697332382202148,1.1920671463012695,2.884823799133301,0.4648580551147461,0.6443967819213867,-0.4210968017578125,0.4374094009399414
208,610145024.0,12.14615535736084,-7.9705400466918945,4.859180450439453,-1.9697332382202148,1.1920671463012695,2.884823799133301,0.4648580551147461,0.6443967819213867,-0.4210968017578125,0.4374094009399414
209,610145024.0,13.214001655578613,-4.121743202209473,4.167234420776367,-1.9697332382202148,1.1920671463012695,2.884823799133301,0.4648580551147461,0.6443967819213867,-0.4210968017578125,0.4374094009399414
210,610145024.0,15.111464500427246,-4.767000198364258,4.211528778076172,-1.9697332382202148,1.1920671463012695,2.884823799133301,0.4648580551147461,0.6443967819213867,-0.4210968017578125,0.4374094009399414
211,610145024.0,13.261887550354004,-6.817696571350098,4.535952568054199,-1.9697332382202148,1.1920671463012695,2.884823799133301,0.4648580551147461,0.6443967819213867,-0.4210968017578125,0.4374094009399414
212,610145152.0,10.81493854522705,-12.110240936279297,4.353987693786621,2.336195945739746,2.2179479598999023,5.102771759033203,0.4648580551147461,0.6443967819213867,-0.4210968017578125,0.4374094009399414
213,610145152.0,8.8767728805542,-12.670501708984375,3.338815689086914,2.336195945739746,2.2179479598999023,5.102771759033203,0.4648580551147461,0.6443967819213867,-0.4210968017578125,0.4374094009399414
214,610145152.0,6.713545799255371,-11.443435668945312,1.4485359191894531,2.336195945739746,2.2179479598999023,5.102771759033203,0.4648580551147461,0.6443967819213867,-0.4210968017578125,0.4374094009399414
215,610145216.0,4.805309295654297,-12.373611450195312,0.7374362945556641,2.7250289916992188,2.575887680053711,5.828239440917969,0.4648580551147461,0.6443967819213867,-0.4210968017578125,0.4374094009399414
216,610145216.0,2.853975296020508,-11.76666259765625,2.437371253967285,2.7250289916992188,2.575887680053711,5.828239440917969,0.4648580551147461,0.6443967819213867,-0.4210968017578125,0.4374094009399414
217,610145216.0,-0.008379936218261719,-7.814911842346191,1.514378547668457,2.7250289916992188,2.575887680053711,5.828239440917969,0.4648580551147461,0.6443967819213867,-0.4210968017578125,0.4374094009399414
218,610145344.0,-2.219491958618164,-5.2781782150268555,-2.444554328918457,2.446986198425293,2.475749969482422,5.749406814575195,0.4648580551147461,0.6443967819213867,-0.4210968017578125,0.4374094009399414
219,610145344.0,-2.219491958618164,-5.2781782150268555,-2.444554328918457,2.446986198425293,2.475749969482422,5.749406814575195,0.4648580551147461,0.6443967819213867,-0.4210968017578125,0.4374094009399414
220,610145408.0,-2.0423154830932617,-6.6129865646362305,-2.1297073364257812,2.446986198425293,2.475749969482422,5.749406814575195,0.4648580551147461,0.6443967819213867,-0.4210968017578125,0.4374094009399414
221,610145408.0,-2.8934803009033203,-5.303318023681641,-2.4577226638793945,2.446986198425293,2.475749969482422,5.749406814575195,0.4648580551147461,0.6443967819213867,-0.4210968017578125,0.4374094009399414
222,610145408.0,-3.340012550354004,-6.213142395019531,-2.565464973449707,2.446986198425293,2.475749969482422,5.749406814575195,0.4648580551147461,0.6443967819213867,-0.4210968017578125,0.4374094009399414
223,610145408.0,-2.0423154830932617,-6.6129865646362305,-2.1297073364257812,2.446986198425293,2.475749969482422,5.749406814575195,0.4648580551147461,0.6443967819213867,-0.4210968017578125,0.4374094009399414
224,610145408.0,-2.8934803009033203,-5.303318023681641,-2.4577226638793945,2.446986198425293,2.475749969482422,5.749406814575195,0.4648580551147461,0.6443967819213867,-0.4210968017578125,0.4374094009399414
225,610145408.0,-3.340012550354004,-6.213142395019531,-2.565464973449707,2.446986198425293,2.475749969482422,5.749406814575195,0.4648580551147461,0.6443967819213867,-0.4210968017578125,0.4374094009399414
226,610145472.0,-3.5100059509277344,-7.802940368652344,-2.4541311264038086,-5.584285736083984,-3.084033966064453,3.366337776184082,0.41742706298828125,0.7776269912719727,0.3994731903076172,-0.24790191650390625
227,610145472.0,-3.5100059509277344,-7.802940368652344,-2.4541311264038086,-5.584285736083984,-3.084033966064453,3.366337776184082,0.41742706298828125,0.7776269912719727,0.3994731903076172,-0.24790191650390625
228,610145536.0,39.224205017089844,-6.330461502075195,39.22540283203125,-1.620316505432129,-5.519303321838379,1.0450553894042969,0.4283027648925781,0.7180681228637695,0.5386161804199219,-0.10383987426757812
229,610145600.0,-17.57756805419922,4.194768905639648,5.925829887390137,-1.620316505432129,-5.519303321838379,1.0450553894042969,0.4283027648925781,0.7180681228637695,0.5386161804199219,-0.10383987426757812
230,610145600.0,-12.364033699035645,-12.882394790649414,-6.290956497192383,-1.620316505432129,-5.519303321838379,1.0450553894042969,0.4283027648925781,0.7180681228637695,0.5386161804199219,-0.10383987426757812
231,610145600.0,4.352790832519531,-3.2202987670898438,12.015666961669922,-1.620316505432129,-5.519303321838379,1.0450553894042969,0.4283027648925781,0.7180681228637695,0.5386161804199219,-0.10383987426757812
232,610145664.0,-3.8236560821533203,-1.7322568893432617,13.659337043762207,1.3795595169067383,1.5350923538208008,-0.4101390838623047,0.4283027648925781,0.7180681228637695,0.5386161804199219,-0.10383987426757812
233,610145664.0,-6.650097846984863,-5.4314117431640625,8.432635307312012,1.3795595169067383,1.5350923538208008,-0.4101390838623047,0.4283027648925781,0.7180681228637695,0.5386161804199219,-0.10383987426757812
234,610145664.0,-8.622980117797852,-7.599427223205566,1.2809362411499023,1.3795595169067383,1.5350923538208008,-0.4101390838623047,0.4283027648925781,0.7180681228637695,0.5386161804199219,-0.10383987426757812
235,610145728.0,-10.796980857849121,-5.25543212890625,-1.7083148956298828,-1.954819679260254,0.3185234069824219,0.690312385559082,0.4283027648925781,0.7180681228637695,0.5386161804199219,-0.10383987426757812
236,610145728.0,-11.564346313476562,-5.120156288146973,-3.9110469818115234,-1.954819679260254,0.3185234069824219,0.690312385559082,0.4283027648925781,0.7180681228637695,0.5386161804199219,-0.10383987426757812
237,610145728.0,-12.9075345993042,-6.586648941040039,-9.083877563476562,-1.954819679260254,0.3185234069824219,0.690312385559082,0.4283027648925781,0.7180681228637695,0.5386161804199219,-0.10383987426757812
238,610145792.0,-14.499727249145508,-6.616578102111816,-12.113832473754883,-1.954819679260254,0.3185234069824219,0.690312385559082,0.44379711151123047,0.7029628753662109,0.5352497100830078,-0.14963054656982422
239,610145792.0,-10.029616355895996,-3.0503053665161133,-7.1971893310546875,-1.954819679260254,0.3185234069824219,0.690312385559082,0.44379711151123047,0.7029628753662109,0.5352497100830078,-0.14963054656982422
240,610145792.0,-7.743083953857422,-1.2115020751953125,-1.1516456604003906,-1.954819679260254,0.3185234069824219,0.690312385559082,0.44379711151123047,0.7029628753662109,0.5352497100830078,-0.14963054656982422
241,610145792.0,7.717944145202637,-19.23560333251953,23.60634994506836,-1.954819679260254,0.3185234069824219,0.690312385559082,0.44379711151123047,0.7029628753662109,0.5352497100830078,-0.14963054656982422
242,610145856.0,5.642107963562012,20.85413360595703,27.440780639648438,-1.1260185241699219,0.5646066665649414,-0.7659482955932617,0.4100475311279297,0.7244558334350586,0.5297250747680664,-0.16240501403808594
243,610145856.0,-10.296577453613281,-6.448978424072266,5.7737932205200195,-1.1260185241699219,0.5646066665649414,-0.7659482955932617,0.4100475311279297,0.7244558334350586,0.5297250747680664,-0.16240501403808594
244,610145856.0,-0.21668148040771484,-0.4525175094604492,7.455770492553711,-1.1260185241699219,0.5646066665649414,-0.7659482955932617,0.4100475311279297,0.7244558334350586,0.5297250747680664,-0.16240501403808594
245,610145920.0,1.4868440628051758,-7.80653190612793,8.879167556762695,2.1487035751342773,0.8330621719360352,-2.214752197265625,0.4100475311279297,0.7244558334350586,0.5297250747680664,-0.16240501403808594
246,610145920.0,-0.6943387985229492,-8.900715827941895,7.6281585693359375,2.1487035751342773,0.8330621719360352,-2.214752197265625,0.4100475311279297,0.7244558334350586,0.5297250747680664,-0.16240501403808594
247,610145920.0,-1.2498111724853516,-3.6440858840942383,9.800963401794434,2.1487035751342773,0.8330621719360352,-2.214752197265625,0.4100475311279297,0.7244558334350586,0.5297250747680664,-0.16240501403808594
248,610146048.0,-1.6376838684082031,-3.22269344329834,0.10055923461914062,1.2389402389526367,-1.247462272644043,-5.398924827575684,0.3845405578613281,0.8687772750854492,0.2863121032714844,-0.12412357330322266
249,610146048.0,-0.5039939880371094,-3.0203771591186523,-0.20949840545654297,1.2389402389526367,-1.247462272644043,-5.398924827575684,0.3845405578613281,0.8687772750854492,0.2863121032714844,-0.12412357330322266
250,610146112.0,1.106154441833496,-5.200364112854004,0.8116588592529297,0.4729909896850586,-2.0965042114257812,-6.038102149963379,0.3845405578613281,0.8687772750854492,0.2863121032714844,-0.12412357330322266
251,610146112.0,1.3527650833129883,-5.998854637145996,1.452127456665039,0.4729909896850586,-2.0965042114257812,-6.038102149963379,0.3845405578613281,0.8687772750854492,0.2863121032714844,-0.12412357330322266
252,610146112.0,0.6835651397705078,-4.411450386047363,1.723876953125,0.4729909896850586,-2.0965042114257812,-6.038102149963379,0.3845405578613281,0.8687772750854492,0.2863121032714844,-0.12412357330322266
253,610146176.0,1.3491735458374023,-4.9645280838012695,2.000415802001953,-0.6839199066162109,-2.746335029602051,-6.451437950134277,0.3845405578613281,0.8687772750854492,0.2863121032714844,-0.12412357330322266
254,610146176.0,2.439764976501465,-6.56390380859375,2.9293947219848633,-0.6839199066162109,-2.746335029602051,-6.451437950134277,0.3845405578613281,0.8687772750854492,0.2863121032714844,-0.12412357330322266
255,610146176.0,3.178399085998535,-7.921457290649414,5.025582313537598,-0.6839199066162109,-2.746335029602051,-6.451437950134277,0.3845405578613281,0.8687772750854492,0.2863121032714844,-0.12412357330322266
256,610146240.0,5.037553787231445,-8.931840896606445,7.144515037536621,-6.274598121643066,-1.9995622634887695,-6.507898330688477,0.3845405578613281,0.8687772750854492,0.2863121032714844,-0.12412357330322266
257,610146240.0,6.415458679199219,-7.175641059875488,5.038750648498535,-6.274598121643066,-1.9995622634887695,-6.507898330688477,0.3845405578613281,0.8687772750854492,0.2863121032714844,-0.12412357330322266
258,610146240.0,7.207963943481445,-6.289759635925293,1.3276252746582031,-6.274598121643066,-1.9995622634887695,-6.507898330688477,0.3845405578613281,0.8687772750854492,0.2863121032714844,-0.12412357330322266
259,610146304.0,9.73512077331543,-2.7965126037597656,0.3292121887207031,-2.2051639556884766,-0.6935081481933594,-6.670888900756836,0.3845405578613281,0.8687772750854492,0.2863121032714844,-0.12412357330322266
260,610146304.0,15.553208351135254,-2.569056510925293,0.8344039916992188,-2.2051639556884766,-0.6935081481933594,-6.670888900756836,0.3845405578613281,0.8687772750854492,0.2863121032714844,-0.12412357330322266
261,610146304.0,21.810646057128906,-5.907872200012207,1.107351303100586,-2.2051639556884766,-0.6935081481933594,-6.670888900756836,0.3845405578613281,0.8687772750854492,0.2863121032714844,-0.12412357330322266
262,610146368.0,23.988237380981445,-10.302563667297363,0.8715152740478516,0.38989830017089844,0.07989692687988281,-6.253292083740234,0.3845405578613281,0.8687772750854492,0.2863121032714844,-0.12412357330322266
263,610146368.0,23.609943389892578,-11.239922523498535,0.005985260009765625,0.38989830017089844,0.07989692687988281,-6.253292083740234,0.3845405578613281,0.8687772750854492,0.2863121032714844,-0.12412357330322266
264,610146368.0,20.72603988647461,-9.349641799926758,-1.417409896850586,0.38989830017089844,0.07989692687988281,-6.253292083740234,0.3845405578613281,0.8687772750854492,0.2863121032714844,-0.12412357330322266
265,610146368.0,14.873233795166016,-6.933818817138672,0.4620943069458008,0.38989830017089844,0.07989692687988281,-6.253292083740234,0.3845405578613281,0.8687772750854492,0.2863121032714844,-0.12412357330322266
266,610146432.0,9.379570960998535,-3.34360408782959,4.328847885131836,0.38989830017089844,0.07989692687988281,-6.253292083740234,0.3845405578613281,0.8687772750854492,0.2863121032714844,-0.12412357330322266
267,610146432.0,7.747872352600098,-0.6057510375976562,5.219518661499023,0.38989830017089844,0.07989692687988281,-6.253292083740234,0.3845405578613281,0.8687772750854492,0.2863121032714844,-0.12412357330322266
268,610146432.0,9.693221092224121,-0.7853212356567383,5.3368377685546875,0.38989830017089844,0.07989692687988281,-6.253292083740234,0.3845405578613281,0.8687772750854492,0.2863121032714844,-0.12412357330322266
269,610146496.0,10.330098152160645,-1.1277027130126953,5.01480770111084,-0.3590049743652344,-0.2950868606567383,1.3774280548095703,0.3845405578613281,0.8687772750854492,0.2863121032714844,-0.12412357330322266
270,610146496.0,9.1868314743042,-3.119739532470703,4.124137878417969,-0.3590049743652344,-0.2950868606567383,1.3774280548095703,0.3845405578613281,0.8687772750854492,0.2863121032714844,-0.12412357330322266
271,610146496.0,8.259050369262695,-3.2035388946533203,3.0527000427246094,-0.3590049743652344,-0.2950868606567383,1.3774280548095703,0.3845405578613281,0.8687772750854492,0.2863121032714844,-0.12412357330322266
272,610146560.0,8.432635307312012,-2.2769546508789062,2.4852561950683594,0.13529205322265625,-0.2301034927368164,0.6849851608276367,0.3845405578613281,0.8687772750854492,0.2863121032714844,-0.12412357330322266
273,610146560.0,8.504463195800781,-1.0702400207519531,2.4218082427978516,0.13529205322265625,-0.2301034927368164,0.6849851608276367,0.3845405578613281,0.8687772750854492,0.2863121032714844,-0.12412357330322266
274,610146560.0,8.626571655273438,-1.3946647644042969,2.2937145233154297,0.13529205322265625,-0.2301034927368164,0.6849851608276367,0.3845405578613281,0.8687772750854492,0.2863121032714844,-0.12412357330322266
275,610146624.0,9.050357818603516,-1.6340923309326172,2.134495735168457,0.13529205322265625,-0.2301034927368164,0.6849851608276367,0.3845405578613281,0.8687772750854492,0.2863121032714844,-0.12412357330322266
276,610146624.0,9.441822052001953,-1.1109428405761719,2.097384452819824,0.13529205322265625,-0.2301034927368164,0.6849851608276367,0.3845405578613281,0.8687772750854492,0.2863121032714844,-0.12412357330322266
277,610146624.0,9.771034240722656,-0.9708776473999023,2.162029266357422,0.13529205322265625,-0.2301034927368164,0.6849851608276367,0.3845405578613281,0.8687772750854492,0.2863121032714844,-0.12412357330322266
278,610146688.0,10.290592193603516,-0.7182817459106445,1.9549245834350586,0.053264617919921875,0.04687213897705078,0.6988344192504883,0.3845405578613281,0.8687772750854492,0.2863121032714844,-0.12412357330322266
279,610146688.0,10.50727367401123,-0.5387115478515625,1.7226800918579102,0.053264617919921875,0.04687213897705078,0.6988344192504883,0.3845405578613281,0.8687772750854492,0.2863121032714844,-0.12412357330322266
280,610146688.0,9.901522636413574,-0.5027971267700195,1.5981779098510742,0.053264617919921875,0.04687213897705078,0.6988344192504883,0.3845405578613281,0.8687772750854492,0.2863121032714844,-0.12412357330322266
281,610146688.0,9.399922370910645,-0.36273193359375,1.877110481262207,0.053264617919921875,0.04687213897705078,0.6988344192504883,0.3845405578613281,0.8687772750854492,0.2863121032714844,-0.12412357330322266
282,610146752.0,9.211971282958984,-0.15323352813720703,2.0818214416503906,0.09587669372558594,-0.005326271057128906,0.6487655639648438,0.3845405578613281,0.8687772750854492,0.2863121032714844,-0.12412357330322266
283,610146752.0,9.02521800994873,-0.28012943267822266,2.000415802001953,0.09587669372558594,-0.005326271057128906,0.6487655639648438,0.3845405578613281,0.8687772750854492,0.2863121032714844,-0.12412357330322266
284,610146752.0,8.721144676208496,-0.48962879180908203,1.8818998336791992,0.09587669372558594,-0.005326271057128906,0.6487655639648438,0.3845405578613281,0.8687772750854492,0.2863121032714844,-0.12412357330322266
285,610146816.0,8.71396255493164,-0.6416654586791992,1.8747167587280273,0.09587669372558594,-0.005326271057128906,0.6487655639648438,0.3845405578613281,0.8687772750854492,0.2863121032714844,-0.12412357330322266
286,610146816.0,8.980923652648926,-0.6428623199462891,1.8531684875488281,0.09587669372558594,-0.005326271057128906,0.6487655639648438,0.3845405578613281,0.8687772750854492,0.2863121032714844,-0.12412357330322266
287,610146816.0,9.16408634185791,-0.4022378921508789,1.8256340026855469,0.09587669372558594,-0.005326271057128906,0.6487655639648438,0.3845405578613281,0.8687772750854492,0.2863121032714844,-0.12412357330322266
288,610146880.0,9.14493179321289,-0.6117362976074219,1.7178916931152344,0.03941535949707031,-0.0745706558227539,0.10865974426269531,0.3845405578613281,0.8687772750854492,0.2863121032714844,-0.12412357330322266
289,610146880.0,9.179648399353027,-0.9948205947875977,1.6520490646362305,0.03941535949707031,-0.0745706558227539,0.10865974426269531,0.3845405578613281,0.8687772750854492,0.2863121032714844,-0.12412357330322266
290,610146880.0,9.33647346496582,-1.2174882888793945,1.6891603469848633,0.03941535949707031,-0.0745706558227539,0.10865974426269531,0.3845405578613281,0.8687772750854492,0.2863121032714844,-0.12412357330322266
291,610146944.0,9.325699806213379,-1.2581911087036133,1.7418346405029297,0.08309268951416016,-0.08522319793701172,0.0692434310913086,0.3845405578613281,0.8687772750854492,0.2863121032714844,-0.12412357330322266
292,610146944.0,9.282602310180664,-1.1803770065307617,1.8100709915161133,0.08309268951416016,-0.08522319793701172,0.0692434310913086,0.3845405578613281,0.8687772750854492,0.2863121032714844,-0.12412357330322266
293,610146944.0,9.172466278076172,-1.3623418807983398,1.8795051574707031,0.08309268951416016,-0.08522319793701172,0.0692434310913086,0.3845405578613281,0.8687772750854492,0.2863121032714844,-0.12412357330322266
294,610147008.0,9.099440574645996,-1.6125431060791016,1.8316192626953125,0.12463951110839844,-0.07244014739990234,0.045806884765625,0.3845405578613281,0.8687772750854492,0.2863121032714844,-0.12412357330322266
295,610147008.0,9.161691665649414,-1.5969810485839844,1.814859390258789,0.12463951110839844,-0.07244014739990234,0.045806884765625,0.3845405578613281,0.8687772750854492,0.2863121032714844,-0.12412357330322266
296,610147008.0,9.152114868164062,-1.540715217590332,1.939361572265625,0.12463951110839844,-0.07244014739990234,0.045806884765625,0.3845405578613281,0.8687772750854492,0.2863121032714844,-0.12412357330322266
297,610147008.0,9.113805770874023,-1.5059986114501953,1.952530860900879,0.12463951110839844,-0.07244014739990234,0.045806884765625,0.3845405578613281,0.8687772750854492,0.2863121032714844,-0.12412357330322266
298,610147072.0,9.142537117004395,-1.5850095748901367,1.9800643920898438,0.05006885528564453,-0.04367637634277344,0.06604766845703125,0.3845405578613281,0.8687772750854492,0.2863121032714844,-0.12412357330322266
299,610147072.0,9.156903266906738,-1.6245145797729492,1.9597129821777344,0.05006885528564453,-0.04367637634277344,0.06604766845703125,0.3845405578613281,0.8687772750854492,0.2863121032714844,-0.12412357330322266
300,610147072.0,9.18563461303711,-1.5886011123657227,1.9597129821777344,0.05006885528564453,-0.04367637634277344,0.06604766845703125,0.3845405578613281,0.8687772750854492,0.2863121032714844,-0.12412357330322266
301,610147136.0,9.281405448913574,-1.6305007934570312,2.006402015686035,-0.0287628173828125,-0.0170440673828125,0.08202743530273438,0.3845405578613281,0.8687772750854492,0.2863121032714844,-0.12412357330322266
302,610147136.0,9.183239936828613,-1.6891603469848633,1.9896421432495117,-0.0287628173828125,-0.0170440673828125,0.08202743530273438,0.3845405578613281,0.8687772750854492,0.2863121032714844,-0.12412357330322266
303,610147136.0,9.070709228515625,-1.6819772720336914,1.9022512435913086,-0.0287628173828125,-0.0170440673828125,0.08202743530273438,0.3845405578613281,0.8687772750854492,0.2863121032714844,-0.12412357330322266
304,610147136.0,9.070709228515625,-1.6819772720336914,1.9022512435913086,-0.0287628173828125,-0.0170440673828125,0.08202743530273438,0.3845405578613281,0.8687772750854492,0.2863121032714844,-0.12412357330322266
305,610147200.0,9.138946533203125,-1.7789459228515625,1.8639421463012695,-0.0287628173828125,-0.0170440673828125,0.08202743530273438,0.3845405578613281,0.8687772750854492,0.2863121032714844,-0.12412357330322266
306,610147200.0,9.2550687789917,-1.8316192626953125,1.890279769897461,-0.0287628173828125,-0.0170440673828125,0.08202743530273438,0.3845405578613281,0.8687772750854492,0.2863121032714844,-0.12412357330322266
307,610147200.0,9.211971282958984,-1.7131032943725586,1.9920358657836914,-0.0287628173828125,-0.0170440673828125,0.08202743530273438,0.3845405578613281,0.8687772750854492,0.2863121032714844,-0.12412357330322266
308,610147200.0,9.138946533203125,-1.7789459228515625,1.8639421463012695,-0.0287628173828125,-0.0170440673828125,0.08202743530273438,0.3845405578613281,0.8687772750854492,0.2863121032714844,-0.12412357330322266
309,610147200.0,9.2550687789917,-1.8316192626953125,1.890279769897461,-0.0287628173828125,-0.0170440673828125,0.08202743530273438,0.3845405578613281,0.8687772750854492,0.2863121032714844,-0.12412357330322266
310,610147200.0,9.211971282958984,-1.7131032943725586,1.9920358657836914,-0.0287628173828125,-0.0170440673828125,0.08202743530273438,0.3845405578613281,0.8687772750854492,0.2863121032714844,-0.12412357330322266
311,610147264.0,9.11500358581543,-1.7286663055419922,1.9309816360473633,0.030893325805664062,-0.023435592651367188,0.02982807159423828,0.4422435760498047,0.634556770324707,-0.4366340637207031,0.45942020416259766
312,610147264.0,9.11500358581543,-1.7286663055419922,1.9309816360473633,0.030893325805664062,-0.023435592651367188,0.02982807159423828,0.4422435760498047,0.634556770324707,-0.4366340637207031,0.45942020416259766
313,610147328.0,9.077892303466797,-1.8723220825195312,1.8423938751220703,0.012783050537109375,0.0021305084228515625,0.03621959686279297,0.4421567916870117,0.6362400054931641,-0.4346914291381836,0.45898914337158203
314,610147392.0,9.176057815551758,-1.8938703536987305,1.8603506088256836,0.012783050537109375,0.0021305084228515625,0.03621959686279297,0.4421567916870117,0.6362400054931641,-0.4346914291381836,0.45898914337158203
315,610147392.0,9.150917053222656,-1.890279769897461,1.8795051574707031,0.012783050537109375,0.0021305084228515625,0.03621959686279297,0.4421567916870117,0.6362400054931641,-0.4346914291381836,0.45898914337158203
316,610147392.0,9.092257499694824,-1.8926734924316406,1.8160572052001953,0.012783050537109375,0.0021305084228515625,0.03621959686279297,0.4421567916870117,0.6362400054931641,-0.4346914291381836,0.45898914337158203
317,610147456.0,9.09465217590332,-1.8555622100830078,1.8304224014282227,-0.012783050537109375,0.010652542114257812,0.024501800537109375,0.4421567916870117,0.6362400054931641,-0.4346914291381836,0.45898914337158203
318,610147456.0,9.087469100952148,-1.880702018737793,1.8495769500732422,-0.012783050537109375,0.010652542114257812,0.024501800537109375,0.4421567916870117,0.6362400054931641,-0.4346914291381836,0.45898914337158203
319,610147456.0,9.119791984558105,-1.8459854125976562,1.8388023376464844,-0.012783050537109375,0.010652542114257812,0.024501800537109375,0.4421567916870117,0.6362400054931641,-0.4346914291381836,0.45898914337158203
320,610147520.0,9.068314552307129,-1.8316192626953125,1.7382431030273438,-0.034089088439941406,-0.0063915252685546875,0.014913558959960938,0.4421567916870117,0.6362400054931641,-0.4346914291381836,0.45898914337158203
321,610147520.0,8.986909866333008,-1.8256340026855469,1.7131032943725586,-0.034089088439941406,-0.0063915252685546875,0.014913558959960938,0.4421567916870117,0.6362400054931641,-0.4346914291381836,0.45898914337158203
322,610147520.0,8.992895126342773,-1.8100709915161133,1.7322568893432617,-0.034089088439941406,-0.0063915252685546875,0.014913558959960938,0.4421567916870117,0.6362400054931641,-0.4346914291381836,0.45898914337158203
323,610147584.0,9.033597946166992,-1.8196487426757812,1.7825374603271484,-0.034089088439941406,-0.0063915252685546875,0.014913558959960938,0.4421567916870117,0.6362400054931641,-0.4346914291381836,0.45898914337158203
324,610147584.0,9.057540893554688,-1.850773811340332,1.7178916931152344,-0.034089088439941406,-0.0063915252685546875,0.014913558959960938,0.4421567916870117,0.6362400054931641,-0.4346914291381836,0.45898914337158203
325,610147584.0,9.09465217590332,-1.9441509246826172,1.7154970169067383,-0.034089088439941406,-0.0063915252685546875,0.014913558959960938,0.4421567916870117,0.6362400054931641,-0.4346914291381836,0.45898914337158203
326,610147584.0,9.247885704040527,-1.9585161209106445,1.763382911682129,-0.034089088439941406,-0.0063915252685546875,0.014913558959960938,0.4421567916870117,0.6362400054931641,-0.4346914291381836,0.45898914337158203
327,610147584.0,9.033597946166992,-1.8196487426757812,1.7825374603271484,-0.034089088439941406,-0.0063915252685546875,0.014913558959960938,0.4421567916870117,0.6362400054931641,-0.4346914291381836,0.45898914337158203
328,610147584.0,9.057540893554688,-1.850773811340332,1.7178916931152344,-0.034089088439941406,-0.0063915252685546875,0.014913558959960938,0.4421567916870117,0.6362400054931641,-0.4346914291381836,0.45898914337158203
329,610147584.0,9.09465217590332,-1.9441509246826172,1.7154970169067383,-0.034089088439941406,-0.0063915252685546875,0.014913558959960938,0.4421567916870117,0.6362400054931641,-0.4346914291381836,0.45898914337158203
330,610147584.0,9.247885704040527,-1.9585161209106445,1.763382911682129,-0.034089088439941406,-0.0063915252685546875,0.014913558959960938,0.4421567916870117,0.6362400054931641,-0.4346914291381836,0.45898914337158203
331,610147648.0,9.201197624206543,-1.91302490234375,1.7310600280761719,0.033023834228515625,-0.025567054748535156,-0.004261016845703125,0.4421567916870117,0.6362400054931641,-0.4346914291381836,0.45898914337158203
332,610147648.0,9.201197624206543,-1.91302490234375,1.7310600280761719,0.033023834228515625,-0.025567054748535156,-0.004261016845703125,0.4421567916870117,0.6362400054931641,-0.4346914291381836,0.45898914337158203
333,610147648.0,9.061132431030273,-1.9249963760375977,1.7394399642944336,0.033023834228515625,-0.025567054748535156,-0.004261016845703125,0.4421567916870117,0.6362400054931641,-0.4346914291381836,0.45898914337158203
334,610147648.0,9.0754976272583,-1.941756248474121,1.8663368225097656,0.033023834228515625,-0.025567054748535156,-0.004261016845703125,0.4421567916870117,0.6362400054931641,-0.4346914291381836,0.45898914337158203
335,610147712.0,9.211971282958984,-1.9501361846923828,1.8232393264770508,-0.00852203369140625,-0.0031957626342773438,0.02769756317138672,0.4421567916870117,0.6362400054931641,-0.4346914291381836,0.45898914337158203
336,610147712.0,9.189226150512695,-1.9297847747802734,1.8088741302490234,-0.00852203369140625,-0.0031957626342773438,0.02769756317138672,0.4421567916870117,0.6362400054931641,-0.4346914291381836,0.45898914337158203
337,610147712.0,9.061132431030273,-1.9357709884643555,1.7909173965454102,-0.00852203369140625,-0.0031957626342773438,0.02769756317138672,0.4421567916870117,0.6362400054931641,-0.4346914291381836,0.45898914337158203
338,610147840.0,9.136551856994629,-1.9010534286499023,1.8040857315063477,-0.023435592651367188,0.0021305084228515625,0.022370338439941406,0.4421567916870117,0.6362400054931641,-0.4346914291381836,0.45898914337158203
339,610147904.0,9.129368782043457,-1.856760025024414,1.8316192626953125,-0.023435592651367188,0.0021305084228515625,0.022370338439941406,0.4421567916870117,0.6362400054931641,-0.4346914291381836,0.45898914337158203
340,610147904.0,9.086272239685059,-1.8292255401611328,1.7789459228515625,-0.023435592651367188,0.0021305084228515625,0.022370338439941406,0.4421567916870117,0.6362400054931641,-0.4346914291381836,0.45898914337158203
341,610147904.0,9.083877563476562,-1.850773811340332,1.8088741302490234,-0.023435592651367188,0.0021305084228515625,0.022370338439941406,0.4421567916870117,0.6362400054931641,-0.4346914291381836,0.45898914337158203
342,610147904.0,9.028809547424316,-1.884293556213379,1.7909173965454102,-0.023435592651367188,0.0021305084228515625,0.022370338439941406,0.4421567916870117,0.6362400054931641,-0.4346914291381836,0.45898914337158203
343,610147968.0,9.031203269958496,-1.915419578552246,1.7514114379882812,-0.007456779479980469,-0.0010652542114257812,0.024501800537109375,0.4421567916870117,0.6362400054931641,-0.4346914291381836,0.45898914337158203
344,610147968.0,9.089863777160645,-1.91302490234375,1.7693681716918945,-0.007456779479980469,-0.0010652542114257812,0.024501800537109375,0.4421567916870117,0.6362400054931641,-0.4346914291381836,0.45898914337158203
345,610147968.0,9.09584903717041,-1.9226016998291016,1.7478199005126953,-0.007456779479980469,-0.0010652542114257812,0.024501800537109375,0.4421567916870117,0.6362400054931641,-0.4346914291381836,0.45898914337158203
346,610148032.0,9.105425834655762,-1.9214048385620117,1.7250747680664062,-0.011717796325683594,-0.0063915252685546875,0.01810932159423828,0.4421567916870117,0.6362400054931641,-0.4346914291381836,0.45898914337158203
347,610148032.0,9.111412048339844,-1.909433364868164,1.7717628479003906,-0.011717796325683594,-0.0063915252685546875,0.01810932159423828,0.4421567916870117,0.6362400054931641,-0.4346914291381836,0.45898914337158203
348,610148032.0,9.083877563476562,-1.9214048385620117,1.7717628479003906,-0.011717796325683594,-0.0063915252685546875,0.01810932159423828,0.4421567916870117,0.6362400054931641,-0.4346914291381836,0.45898914337158203
349,610148096.0,9.038386344909668,-1.9333763122558594,1.7705659866333008,-0.011717796325683594,-0.0063915252685546875,0.01810932159423828,0.4421567916870117,0.6362400054931641,-0.4346914291381836,0.45898914337158203
350,610148096.0,9.051554679870605,-1.9309816360473633,1.8088741302490234,-0.011717796325683594,-0.0063915252685546875,0.01810932159423828,0.4421567916870117,0.6362400054931641,-0.4346914291381836,0.45898914337158203
351,610148096.0,9.118595123291016,-1.9740791320800781,1.8124656677246094,-0.011717796325683594,-0.0063915252685546875,0.01810932159423828,0.4421567916870117,0.6362400054931641,-0.4346914291381836,0.45898914337158203
352,610148160.0,9.087469100952148,-2.0159788131713867,1.7789459228515625,0.005326271057128906,-0.013848304748535156,0.03515434265136719,0.4421567916870117,0.6362400054931641,-0.4346914291381836,0.45898914337158203
353,610148224.0,9.015641212463379,-2.059075355529785,1.8411970138549805,-0.005326271057128906,-0.011717796325683594,0.05006885528564453,0.4421567916870117,0.6362400054931641,-0.4346914291381836,0.45898914337158203
354,610148224.0,9.015641212463379,-2.059075355529785,1.8411970138549805,-0.005326271057128906,-0.011717796325683594,0.05006885528564453,0.4421567916870117,0.6362400054931641,-0.4346914291381836,0.45898914337158203
355,610148288.0,9.140143394470215,-2.0746383666992188,1.7945079803466797,-0.005326271057128906,-0.011717796325683594,0.05006885528564453,0.4421567916870117,0.6362400054931641,-0.4346914291381836,0.45898914337158203
356,610148288.0,9.092257499694824,-2.097384452819824,1.8004941940307617,-0.005326271057128906,-0.011717796325683594,0.05006885528564453,0.4421567916870117,0.6362400054931641,-0.4346914291381836,0.45898914337158203
357,610148288.0,8.99648666381836,-2.096186637878418,1.820845603942871,-0.005326271057128906,-0.011717796325683594,0.05006885528564453,0.4421567916870117,0.6362400054931641,-0.4346914291381836,0.45898914337158203
358,610148288.0,9.140143394470215,-2.0746383666992188,1.7945079803466797,-0.005326271057128906,-0.011717796325683594,0.05006885528564453,0.4421567916870117,0.6362400054931641,-0.4346914291381836,0.45898914337158203
359,610148288.0,9.092257499694824,-2.097384452819824,1.8004941940307617,-0.005326271057128906,-0.011717796325683594,0.05006885528564453,0.4421567916870117,0.6362400054931641,-0.4346914291381836,0.45898914337158203
360,610148288.0,8.99648666381836,-2.096186637878418,1.820845603942871,-0.005326271057128906,-0.011717796325683594,0.05006885528564453,0.4421567916870117,0.6362400054931641,-0.4346914291381836,0.45898914337158203
361,610148352.0,8.99409294128418,-2.1368894577026367,1.854365348815918,-0.061786651611328125,0.03621959686279297,0.05646038055419922,0.4557514190673828,0.6420230865478516,-0.42519664764404297,0.4464292526245117
362,610148352.0,8.99409294128418,-2.1368894577026367,1.854365348815918,-0.061786651611328125,0.03621959686279297,0.05646038055419922,0.4557514190673828,0.6420230865478516,-0.42519664764404297,0.4464292526245117
363,610148480.0,9.173663139343262,-2.094989776611328,1.7705659866333008,-0.030893325805664062,0.00852203369140625,0.042611122131347656,0.4575643539428711,0.6425848007202148,-0.4248085021972656,0.44409942626953125
364,610148480.0,9.031203269958496,-2.1404809951782227,1.7729597091674805,-0.030893325805664062,0.00852203369140625,0.042611122131347656,0.4575643539428711,0.6425848007202148,-0.4248085021972656,0.44409942626953125
365,610148480.0,9.013246536254883,-2.165620803833008,1.786128044128418,-0.030893325805664062,0.00852203369140625,0.042611122131347656,0.4575643539428711,0.6425848007202148,-0.4248085021972656,0.44409942626953125
366,610148480.0,9.092257499694824,-2.1823806762695312,1.7837343215942383,-0.030893325805664062,0.00852203369140625,0.042611122131347656,0.4575643539428711,0.6425848007202148,-0.4248085021972656,0.44409942626953125
367,610148544.0,9.201197624206543,-2.0890045166015625,1.7969026565551758,-0.014913558959960938,0.0010652542114257812,0.03515434265136719,0.4575643539428711,0.6425848007202148,-0.4248085021972656,0.44409942626953125
368,610148544.0,9.136551856994629,-2.133297920227051,1.788522720336914,-0.014913558959960938,0.0010652542114257812,0.03515434265136719,0.4575643539428711,0.6425848007202148,-0.4248085021972656,0.44409942626953125
369,610148544.0,9.007261276245117,-2.1404809951782227,1.788522720336914,-0.014913558959960938,0.0010652542114257812,0.03515434265136719,0.4575643539428711,0.6425848007202148,-0.4248085021972656,0.44409942626953125
370,610148608.0,8.99648666381836,-2.1775922775268555,1.822042465209961,-0.014913558959960938,0.0010652542114257812,0.03515434265136719,0.4575643539428711,0.6425848007202148,-0.4248085021972656,0.44409942626953125
371,610148608.0,9.0754976272583,-2.0937929153442383,1.795705795288086,-0.014913558959960938,0.0010652542114257812,0.03515434265136719,0.4575643539428711,0.6425848007202148,-0.4248085021972656,0.44409942626953125
372,610148608.0,9.018034934997559,-2.069849967956543,1.8016910552978516,-0.014913558959960938,0.0010652542114257812,0.03515434265136719,0.4575643539428711,0.6425848007202148,-0.4248085021972656,0.44409942626953125
373,610148672.0,8.943812370300293,-2.130904197692871,1.788522720336914,-0.014913558959960938,0.0010652542114257812,0.03515434265136719,0.4575643539428711,0.6425848007202148,-0.4248085021972656,0.44409942626953125
374,610148672.0,9.02521800994873,-2.159635543823242,1.8196487426757812,-0.014913558959960938,0.0010652542114257812,0.03515434265136719,0.4575643539428711,0.6425848007202148,-0.4248085021972656,0.44409942626953125
375,610148672.0,9.0970458984375,-2.134495735168457,1.814859390258789,-0.014913558959960938,0.0010652542114257812,0.03515434265136719,0.4575643539428711,0.6425848007202148,-0.4248085021972656,0.44409942626953125
376,610148672.0,8.943812370300293,-2.130904197692871,1.788522720336914,-0.014913558959960938,0.0010652542114257812,0.03515434265136719,0.4575643539428711,0.6425848007202148,-0.4248085021972656,0.44409942626953125
377,610148672.0,9.02521800994873,-2.159635543823242,1.8196487426757812,-0.014913558959960938,0.0010652542114257812,0.03515434265136719,0.4575643539428711,0.6425848007202148,-0.4248085021972656,0.44409942626953125
378,610148672.0,9.0970458984375,-2.134495735168457,1.814859390258789,-0.014913558959960938,0.0010652542114257812,0.03515434265136719,0.4575643539428711,0.6425848007202148,-0.4248085021972656,0.44409942626953125
379,610148736.0,9.055146217346191,-2.1177358627319336,1.8076772689819336,-0.00852203369140625,-0.012783050537109375,-0.019174575805664062,0.4575643539428711,0.6425848007202148,-0.4248085021972656,0.44409942626953125
380,610148736.0,9.035992622375488,-2.1704092025756836,1.8268308639526367,-0.00852203369140625,-0.012783050537109375,-0.019174575805664062,0.4575643539428711,0.6425848007202148,-0.4248085021972656,0.44409942626953125
381,610148736.0,9.055146217346191,-2.1177358627319336,1.8076772689819336,-0.00852203369140625,-0.012783050537109375,-0.019174575805664062,0.4575643539428711,0.6425848007202148,-0.4248085021972656,0.44409942626953125
382,610148736.0,9.035992622375488,-2.1704092025756836,1.8268308639526367,-0.00852203369140625,-0.012783050537109375,-0.019174575805664062,0.4575643539428711,0.6425848007202148,-0.4248085021972656,0.44409942626953125
383,610148736.0,9.02641487121582,-2.2350549697875977,1.8112688064575195,-0.00852203369140625,-0.012783050537109375,-0.019174575805664062,0.4575643539428711,0.6425848007202148,-0.4248085021972656,0.44409942626953125
384,610148800.0,9.09345531463623,-2.2147035598754883,1.8256340026855469,-0.014913558959960938,-0.007456779479980469,-0.0170440673828125,0.4575643539428711,0.6425848007202148,-0.4248085021972656,0.44409942626953125
385,610148800.0,9.06472396850586,-2.17160701751709,1.8076772689819336,-0.014913558959960938,-0.007456779479980469,-0.0170440673828125,0.4575643539428711,0.6425848007202148,-0.4248085021972656,0.44409942626953125
386,610148800.0,8.919870376586914,-2.1763954162597656,1.822042465209961,-0.014913558959960938,-0.007456779479980469,-0.0170440673828125,0.4575643539428711,0.6425848007202148,-0.4248085021972656,0.44409942626953125
387,610148800.0,8.97613525390625,-2.2063236236572266,1.8016910552978516,-0.014913558959960938,-0.007456779479980469,-0.0170440673828125,0.4575643539428711,0.6425848007202148,-0.4248085021972656,0.44409942626953125
388,610148928.0,9.109017372131348,-2.256603240966797,1.8328170776367188,-0.013848304748535156,-0.01597881317138672,-0.022370338439941406,0.46166419982910156,0.6422824859619141,-0.4245920181274414,0.44051647186279297
389,610148928.0,9.109017372131348,-2.256603240966797,1.8328170776367188,-0.013848304748535156,-0.01597881317138672,-0.022370338439941406,0.46166419982910156,0.6422824859619141,-0.4245920181274414,0.44051647186279297
390,610148992.0,9.070709228515625,-2.22428035736084,1.7789459228515625,-0.013848304748535156,-0.01597881317138672,-0.022370338439941406,0.46166419982910156,0.6422824859619141,-0.4245920181274414,0.44051647186279297
391,610148992.0,9.062329292297363,-2.2206897735595703,1.7992973327636719,-0.013848304748535156,-0.01597881317138672,-0.022370338439941406,0.46166419982910156,0.6422824859619141,-0.4245920181274414,0.44051647186279297
392,610148992.0,9.055146217346191,-2.2637863159179688,1.795705795288086,-0.013848304748535156,-0.01597881317138672,-0.022370338439941406,0.46166419982910156,0.6422824859619141,-0.4245920181274414,0.44051647186279297
393,610148992.0,9.070709228515625,-2.22428035736084,1.7789459228515625,-0.013848304748535156,-0.01597881317138672,-0.022370338439941406,0.46166419982910156,0.6422824859619141,-0.4245920181274414,0.44051647186279297
394,610148992.0,9.062329292297363,-2.2206897735595703,1.7992973327636719,-0.013848304748535156,-0.01597881317138672,-0.022370338439941406,0.46166419982910156,0.6422824859619141,-0.4245920181274414,0.44051647186279297
395,610148992.0,9.055146217346191,-2.2637863159179688,1.795705795288086,-0.013848304748535156,-0.01597881317138672,-0.022370338439941406,0.46166419982910156,0.6422824859619141,-0.4245920181274414,0.44051647186279297
396,610149056.0,9.027612686157227,-2.2506179809570312,1.8136625289916992,-0.013848304748535156,-0.01597881317138672,-0.022370338439941406,0.46166419982910156,0.6422824859619141,-0.4245920181274414,0.44051647186279297
397,610149056.0,9.027612686157227,-2.2506179809570312,1.8136625289916992,-0.013848304748535156,-0.01597881317138672,-0.022370338439941406,0.46166419982910156,0.6422824859619141,-0.4245920181274414,0.44051647186279297
398,610149056.0,9.030006408691406,-2.219491958618164,1.8076772689819336,-0.013848304748535156,-0.01597881317138672,-0.022370338439941406,0.46166419982910156,0.6422824859619141,-0.4245920181274414,0.44051647186279297
399,610149056.0,8.991698265075684,-2.2458295822143555,1.8256340026855469,-0.013848304748535156,-0.01597881317138672,-0.022370338439941406,0.46166419982910156,0.6422824859619141,-0.4245920181274414,0.44051647186279297
400,610149120.0,9.032401084899902,-2.2362518310546875,1.8004941940307617,-0.013848304748535156,-0.01597881317138672,-0.022370338439941406,0.46166419982910156,0.6422824859619141,-0.4245920181274414,0.44051647186279297
401,610149120.0,9.034794807434082,-2.2063236236572266,1.828028678894043,-0.013848304748535156,-0.01597881317138672,-0.022370338439941406,0.46166419982910156,0.6422824859619141,-0.4245920181274414,0.44051647186279297
402,610149120.0,9.010852813720703,-2.201535224914551,1.8376054763793945,-0.013848304748535156,-0.01597881317138672,-0.022370338439941406,0.46166419982910156,0.6422824859619141,-0.4245920181274414,0.44051647186279297
403,610149248.0,9.052752494812012,-2.1548471450805664,1.7969026565551758,-0.0021305084228515625,-0.010652542114257812,0.0010652542114257812,0.46166419982910156,0.6422824859619141,-0.4245920181274414,0.44051647186279297
404,610149248.0,9.002472877502441,-2.187169075012207,1.8112688064575195,-0.0021305084228515625,-0.010652542114257812,0.0010652542114257812,0.46166419982910156,0.6422824859619141,-0.4245920181274414,0.44051647186279297
405,610149312.0,9.034794807434082,-2.1823806762695312,1.818450927734375,-0.0063915252685546875,0.0010652542114257812,0.004261016845703125,0.46166419982910156,0.6422824859619141,-0.4245920181274414,0.44051647186279297
406,610149312.0,9.09584903717041,-2.1548471450805664,1.8304224014282227,-0.0063915252685546875,0.0010652542114257812,0.004261016845703125,0.46166419982910156,0.6422824859619141,-0.4245920181274414,0.44051647186279297
407,610149312.0,9.067117691040039,-2.135692596435547,1.8256340026855469,-0.0063915252685546875,0.0010652542114257812,0.004261016845703125,0.46166419982910156,0.6422824859619141,-0.4245920181274414,0.44051647186279297
408,610149376.0,9.035992622375488,-2.1368894577026367,1.7873258590698242,0.005326271057128906,-0.004261016845703125,-0.007456779479980469,0.46166419982910156,0.6422824859619141,-0.4245920181274414,0.44051647186279297
409,610149376.0,9.032401084899902,-2.1823806762695312,1.8423938751220703,0.005326271057128906,-0.004261016845703125,-0.007456779479980469,0.46166419982910156,0.6422824859619141,-0.4245920181274414,0.44051647186279297
410,610149376.0,9.074300765991211,-2.164423942565918,1.8160572052001953,0.005326271057128906,-0.004261016845703125,-0.007456779479980469,0.46166419982910156,0.6422824859619141,-0.4245920181274414,0.44051647186279297
411,610149376.0,9.100637435913086,-2.1225242614746094,1.820845603942871,0.005326271057128906,-0.004261016845703125,-0.007456779479980469,0.46166419982910156,0.6422824859619141,-0.4245920181274414,0.44051647186279297
412,610149440.0,9.033597946166992,-2.106961250305176,1.8675336837768555,-0.03515434265136719,0.005326271057128906,-0.020239830017089844,0.46166419982910156,0.6422824859619141,-0.4245920181274414,0.44051647186279297
413,610149440.0,9.013246536254883,-2.1416778564453125,1.8340139389038086,-0.03515434265136719,0.005326271057128906,-0.020239830017089844,0.46166419982910156,0.6422824859619141,-0.4245920181274414,0.44051647186279297
414,610149440.0,9.038386344909668,-2.1883668899536133,1.8447885513305664,-0.03515434265136719,0.005326271057128906,-0.020239830017089844,0.46166419982910156,0.6422824859619141,-0.4245920181274414,0.44051647186279297
415,610149504.0,8.998881340026855,-2.1847753524780273,1.8675336837768555,0.009587287902832031,0.0010652542114257812,-0.030893325805664062,0.46166419982910156,0.6422824859619141,-0.4245920181274414,0.44051647186279297
416,610149504.0,9.014443397521973,-2.1524524688720703,1.847182273864746,0.009587287902832031,0.0010652542114257812,-0.030893325805664062,0.46166419982910156,0.6422824859619141,-0.4245920181274414,0.44051647186279297
417,610149504.0,9.04556941986084,-2.1524524688720703,1.8435907363891602,0.009587287902832031,0.0010652542114257812,-0.030893325805664062,0.46166419982910156,0.6422824859619141,-0.4245920181274414,0.44051647186279297
418,610149568.0,9.049160957336426,-2.1991405487060547,1.822042465209961,-0.009587287902832031,0.0010652542114257812,-0.025567054748535156,0.46166419982910156,0.6422824859619141,-0.4245920181274414,0.44051647186279297
419,610149568.0,8.989303588867188,-2.1847753524780273,1.7980995178222656,-0.009587287902832031,0.0010652542114257812,-0.025567054748535156,0.46166419982910156,0.6422824859619141,-0.4245920181274414,0.44051647186279297
420,610149568.0,9.059934616088867,-2.2087182998657227,1.7849311828613281,-0.009587287902832031,0.0010652542114257812,-0.025567054748535156,0.46166419982910156,0.6422824859619141,-0.4245920181274414,0.44051647186279297
421,610149568.0,9.049160957336426,-2.1991405487060547,1.822042465209961,-0.009587287902832031,0.0010652542114257812,-0.025567054748535156,0.46166419982910156,0.6422824859619141,-0.4245920181274414,0.44051647186279297
422,610149568.0,8.989303588867188,-2.1847753524780273,1.7980995178222656,-0.009587287902832031,0.0010652542114257812,-0.025567054748535156,0.46166419982910156,0.6422824859619141,-0.4245920181274414,0.44051647186279297
423,610149568.0,9.059934616088867,-2.2087182998657227,1.7849311828613281,-0.009587287902832031,0.0010652542114257812,-0.025567054748535156,0.46166419982910156,0.6422824859619141,-0.4245920181274414,0.44051647186279297
424,610149632.0,9.056344032287598,-2.168015480041504,1.7969026565551758,-0.0170440673828125,0.007456779479980469,-0.03941535949707031,0.46166419982910156,0.6422824859619141,-0.4245920181274414,0.44051647186279297
425,610149632.0,9.091060638427734,-2.1105527877807617,1.788522720336914,-0.0170440673828125,0.007456779479980469,-0.03941535949707031,0.46166419982910156,0.6422824859619141,-0.4245920181274414,0.44051647186279297
426,610149632.0,9.056344032287598,-2.168015480041504,1.7969026565551758,-0.0170440673828125,0.007456779479980469,-0.03941535949707031,0.46166419982910156,0.6422824859619141,-0.4245920181274414,0.44051647186279297
427,610149632.0,9.091060638427734,-2.1105527877807617,1.788522720336914,-0.0170440673828125,0.007456779479980469,-0.03941535949707031,0.46166419982910156,0.6422824859619141,-0.4245920181274414,0.44051647186279297
428,610149632.0,9.033597946166992,-2.164423942565918,1.7765512466430664,-0.0170440673828125,0.007456779479980469,-0.03941535949707031,0.46166419982910156,0.6422824859619141,-0.4245920181274414,0.44051647186279297
429,610149696.0,9.031203269958496,-2.219491958618164,1.7729597091674805,-0.010652542114257812,-0.0021305084228515625,-0.013848304748535156,0.46166419982910156,0.6422824859619141,-0.4245920181274414,0.44051647186279297
430,610149696.0,9.062329292297363,-2.197943687438965,1.7945079803466797,-0.010652542114257812,-0.0021305084228515625,-0.013848304748535156,0.46166419982910156,0.6422824859619141,-0.4245920181274414,0.44051647186279297
431,610149696.0,9.111412048339844,-2.2027320861816406,1.822042465209961,-0.010652542114257812,-0.0021305084228515625,-0.013848304748535156,0.46166419982910156,0.6422824859619141,-0.4245920181274414,0.44051647186279297
432,610149696.0,9.008458137512207,-2.187169075012207,1.7921142578125,-0.010652542114257812,-0.0021305084228515625,-0.013848304748535156,0.46166419982910156,0.6422824859619141,-0.4245920181274414,0.44051647186279297
433,610149760.0,8.971346855163574,-2.1799869537353516,1.7921142578125,-0.0031957626342773438,-0.00852203369140625,0.0031957626342773438,0.46166419982910156,0.6422824859619141,-0.4245920181274414,0.44051647186279297
434,610149760.0,9.019232749938965,-2.1799869537353516,1.824437141418457,-0.0031957626342773438,-0.00852203369140625,0.0031957626342773438,0.46166419982910156,0.6422824859619141,-0.4245920181274414,0.44051647186279297
435,610149760.0,8.991698265075684,-2.132101058959961,1.8028879165649414,-0.0031957626342773438,-0.00852203369140625,0.0031957626342773438,0.46166419982910156,0.6422824859619141,-0.4245920181274414,0.44051647186279297
436,610149824.0,9.057540893554688,-2.2039289474487305,1.788522720336914,-0.0031957626342773438,-0.007456779479980469,0.014913558959960938,0.46166419982910156,0.6422824859619141,-0.4245920181274414,0.44051647186279297
437,610149824.0,9.06472396850586,-2.253011703491211,1.7765512466430664,-0.0031957626342773438,-0.007456779479980469,0.014913558959960938,0.46166419982910156,0.6422824859619141,-0.4245920181274414,0.44051647186279297
438,610149824.0,9.059934616088867,-2.248223304748535,1.7969026565551758,-0.0031957626342773438,-0.007456779479980469,0.014913558959960938,0.46166419982910156,0.6422824859619141,-0.4245920181274414,0.44051647186279297
439,610149888.0,9.063526153564453,-2.2111120223999023,1.822042465209961,-0.0031957626342773438,-0.007456779479980469,0.014913558959960938,0.46166419982910156,0.6422824859619141,-0.4245920181274414,0.44051647186279297
440,610149888.0,9.04676628112793,-2.201535224914551,1.822042465209961,-0.0031957626342773438,-0.007456779479980469,0.014913558959960938,0.46166419982910156,0.6422824859619141,-0.4245920181274414,0.44051647186279297
441,610149888.0,9.050357818603516,-2.2326602935791016,1.7933111190795898,-0.0031957626342773438,-0.007456779479980469,0.014913558959960938,0.46166419982910156,0.6422824859619141,-0.4245920181274414,0.44051647186279297
442,610149952.0,9.016838073730469,-2.2637863159179688,1.818450927734375,-0.0031957626342773438,-0.007456779479980469,0.014913558959960938,0.46166419982910156,0.6422824859619141,-0.4245920181274414,0.44051647186279297
443,610149952.0,9.02521800994873,-2.1847753524780273,1.8328170776367188,-0.0031957626342773438,-0.007456779479980469,0.014913558959960938,0.46166419982910156,0.6422824859619141,-0.4245920181274414,0.44051647186279297
444,610149952.0,9.037189483642578,-2.139284133911133,1.820845603942871,-0.0031957626342773438,-0.007456779479980469,0.014913558959960938,0.46166419982910156,0.6422824859619141,-0.4245920181274414,0.44051647186279297
445,610149952.0,9.02521800994873,-2.1847753524780273,1.8328170776367188,-0.0031957626342773438,-0.007456779479980469,0.014913558959960938,0.46166419982910156,0.6422824859619141,-0.4245920181274414,0.44051647186279297
446,610149952.0,9.037189483642578,-2.139284133911133,1.820845603942871,-0.0031957626342773438,-0.007456779479980469,0.014913558959960938,0.46166419982910156,0.6422824859619141,-0.4245920181274414,0.44051647186279297
447,610150016.0,9.047964096069336,-2.218295097351074,1.8076772689819336,-0.0031957626342773438,-0.007456779479980469,0.014913558959960938,0.46166419982910156,0.6422824859619141,-0.4245920181274414,0.44051647186279297
448,610150016.0,9.038386344909668,-2.215900421142578,1.8423938751220703,-0.0031957626342773438,-0.007456779479980469,0.014913558959960938,0.46166419982910156,0.6422824859619141,-0.4245920181274414,0.44051647186279297
449,610150016.0,9.105425834655762,-2.2901229858398438,1.8352108001708984,-0.0031957626342773438,-0.007456779479980469,0.014913558959960938,0.46166419982910156,0.6422824859619141,-0.4245920181274414,0.44051647186279297
450,610150016.0,9.047964096069336,-2.218295097351074,1.8076772689819336,-0.0031957626342773438,-0.007456779479980469,0.014913558959960938,0.46166419982910156,0.6422824859619141,-0.4245920181274414,0.44051647186279297
451,610150016.0,9.038386344909668,-2.215900421142578,1.8423938751220703,-0.0031957626342773438,-0.007456779479980469,0.014913558959960938,0.46166419982910156,0.6422824859619141,-0.4245920181274414,0.44051647186279297
452,610150016.0,9.105425834655762,-2.2901229858398438,1.8352108001708984,-0.0031957626342773438,-0.007456779479980469,0.014913558959960938,0.46166419982910156,0.6422824859619141,-0.4245920181274414,0.44051647186279297
453,610150016.0,9.18443775177002,-2.377513885498047,1.8447885513305664,-0.0031957626342773438,-0.007456779479980469,0.014913558959960938,0.46166419982910156,0.6422824859619141,-0.4245920181274414,0.44051647186279297
454,610150080.0,9.429850578308105,-2.7354583740234375,1.847182273864746,-0.07244014739990234,-0.08202743530273438,0.38457202911376953,0.46166419982910156,0.6422824859619141,-0.4245920181274414,0.44051647186279297
455,610150080.0,9.873988151550293,-3.46451473236084,2.0351333618164062,-0.07244014739990234,-0.08202743530273438,0.38457202911376953,0.46166419982910156,0.6422824859619141,-0.4245920181274414,0.44051647186279297
456,610150080.0,10.57431411743164,-4.231880187988281,2.324840545654297,-0.07244014739990234,-0.08202743530273438,0.38457202911376953,0.46166419982910156,0.6422824859619141,-0.4245920181274414,0.44051647186279297
457,610150144.0,11.93665599822998,-5.885127067565918,2.649264335632324,0.5795211791992188,-0.29721736907958984,1.997431755065918,0.46166419982910156,0.6422824859619141,-0.4245920181274414,0.44051647186279297
458,610150272.0,16.320571899414062,-7.903500556945801,4.0606889724731445,2.5684309005737305,2.803860664367676,5.032462120056152,0.46166419982910156,0.6422824859619141,-0.4245920181274414,0.44051647186279297
459,610150272.0,12.443045616149902,-5.833649635314941,5.284163475036621,2.5684309005737305,2.803860664367676,5.032462120056152,0.46166419982910156,0.6422824859619141,-0.4245920181274414,0.44051647186279297
460,610150272.0,7.99448299407959,-3.3867006301879883,5.863577842712402,2.5684309005737305,2.803860664367676,5.032462120056152,0.46166419982910156,0.6422824859619141,-0.4245920181274414,0.44051647186279297
461,610150336.0,4.573063850402832,-4.077449798583984,5.439791679382324,1.1643686294555664,3.355685234069824,4.987719535827637,0.46166419982910156,0.6422824859619141,-0.4245920181274414,0.44051647186279297
462,610150336.0,1.6891603469848633,-5.249446868896484,5.047130584716797,1.1643686294555664,3.355685234069824,4.987719535827637,0.46166419982910156,0.6422824859619141,-0.4245920181274414,0.44051647186279297
463,610150336.0,-1.0869998931884766,-7.392322540283203,2.9258031845092773,1.1643686294555664,3.355685234069824,4.987719535827637,0.46166419982910156,0.6422824859619141,-0.4245920181274414,0.44051647186279297
464,610150336.0,-1.788522720336914,-4.735875129699707,2.4242029190063477,1.1643686294555664,3.355685234069824,4.987719535827637,0.46166419982910156,0.6422824859619141,-0.4245920181274414,0.44051647186279297
465,610150400.0,-1.9848527908325195,-0.8571500778198242,2.873128890991211,0.8628902435302734,3.462214469909668,4.6446943283081055,0.46166419982910156,0.6422824859619141,-0.4245920181274414,0.44051647186279297
466,610150400.0,-2.1153411865234375,-1.3695249557495117,2.6552505493164062,0.8628902435302734,3.462214469909668,4.6446943283081055,0.46166419982910156,0.6422824859619141,-0.4245920181274414,0.44051647186279297
467,610150400.0,-1.9357709884643555,-3.3543787002563477,1.1743907928466797,0.8628902435302734,3.462214469909668,4.6446943283081055,0.46166419982910156,0.6422824859619141,-0.4245920181274414,0.44051647186279297
468,610150464.0,-2.0255556106567383,-4.958542823791504,1.0043973922729492,0.9161548614501953,3.3418359756469727,4.722460746765137,0.34522342681884766,0.8905725479125977,0.2477712631225586,-0.16205978393554688
469,610150464.0,-2.382303237915039,-4.726297378540039,0.19393539428710938,0.9161548614501953,3.3418359756469727,4.722460746765137,0.34522342681884766,0.8905725479125977,0.2477712631225586,-0.16205978393554688
470,610150464.0,-3.1029796600341797,-5.961743354797363,-0.7302532196044922,0.9161548614501953,3.3418359756469727,4.722460746765137,0.34522342681884766,0.8905725479125977,0.2477712631225586,-0.16205978393554688
471,610150528.0,-3.4573326110839844,-6.108991622924805,-1.6735973358154297,0.9161548614501953,3.3418359756469727,4.722460746765137,0.36322021484375,0.8536720275878906,0.30676937103271484,-0.2125988006591797
472,610150528.0,-3.860767364501953,-7.747872352600098,-3.0131940841674805,0.9161548614501953,3.3418359756469727,4.722460746765137,0.36322021484375,0.8536720275878906,0.30676937103271484,-0.2125988006591797
473,610150528.0,-4.455744743347168,-7.47612190246582,-3.053896903991699,0.9161548614501953,3.3418359756469727,4.722460746765137,0.36322021484375,0.8536720275878906,0.30676937103271484,-0.2125988006591797
474,610150592.0,-4.330045700073242,-6.567495346069336,-2.478074073791504,0.9161548614501953,3.3418359756469727,4.722460746765137,0.36322021484375,0.8536720275878906,0.30676937103271484,-0.2125988006591797
475,610150592.0,-4.108574867248535,-6.23588752746582,-2.123721122741699,0.9161548614501953,3.3418359756469727,4.722460746765137,0.36322021484375,0.8536720275878906,0.30676937103271484,-0.2125988006591797
476,610150592.0,-2.8922834396362305,-7.632946968078613,0.0658416748046875,0.9161548614501953,3.3418359756469727,4.722460746765137,0.36322021484375,0.8536720275878906,0.30676937103271484,-0.2125988006591797
477,610150592.0,-1.0391149520874023,-7.553936004638672,5.668444633483887,0.9161548614501953,3.3418359756469727,4.722460746765137,0.36322021484375,0.8536720275878906,0.30676937103271484,-0.2125988006591797
478,610150656.0,-2.230266571044922,-2.46370792388916,-2.727078437805176,-4.0545196533203125,4.188747406005859,-0.47618770599365234,0.36322021484375,0.8536720275878906,0.30676937103271484,-0.2125988006591797
479,610150656.0,33.345062255859375,6.56270694732666,39.22540283203125,-4.0545196533203125,4.188747406005859,-0.47618770599365234,0.36322021484375,0.8536720275878906,0.30676937103271484,-0.2125988006591797
480,610150656.0,-17.47341537475586,-20.94990348815918,-3.0179824829101562,-4.0545196533203125,4.188747406005859,-0.47618770599365234,0.36322021484375,0.8536720275878906,0.30676937103271484,-0.2125988006591797
481,610150720.0,-6.650097846984863,-2.3679370880126953,-1.106154441833496,2.0954389572143555,0.23862648010253906,-0.11931324005126953,0.36322021484375,0.8536720275878906,0.30676937103271484,-0.2125988006591797
482,610150720.0,1.262979507446289,-7.188809394836426,7.2857770919799805,2.0954389572143555,0.23862648010253906,-0.11931324005126953,0.36322021484375,0.8536720275878906,0.30676937103271484,-0.2125988006591797
483,610150720.0,-3.2011451721191406,-5.933012008666992,9.796174049377441,2.0954389572143555,0.23862648010253906,-0.11931324005126953,0.36322021484375,0.8536720275878906,0.30676937103271484,-0.2125988006591797
484,610150784.0,-5.991671562194824,-5.496057510375977,6.687209129333496,2.0954389572143555,0.23862648010253906,-0.11931324005126953,0.36322021484375,0.8536720275878906,0.30676937103271484,-0.2125988006591797
485,610150784.0,-8.37636947631836,-7.510839462280273,1.132491111755371,2.0954389572143555,0.23862648010253906,-0.11931324005126953,0.36322021484375,0.8536720275878906,0.30676937103271484,-0.2125988006591797
486,610150784.0,-9.890748023986816,-4.20314884185791,-2.030344009399414,2.0954389572143555,0.23862648010253906,-0.11931324005126953,0.36322021484375,0.8536720275878906,0.30676937103271484,-0.2125988006591797
487,610150848.0,-11.429069519042969,-5.344020843505859,-5.984489440917969,-2.1966419219970703,-1.6831684112548828,0.8096256256103516,0.36322021484375,0.8536720275878906,0.30676937103271484,-0.2125988006591797
488,610150848.0,-14.12981128692627,-5.965334892272949,-9.781808853149414,-2.1966419219970703,-1.6831684112548828,0.8096256256103516,0.36322021484375,0.8536720275878906,0.30676937103271484,-0.2125988006591797
489,610150848.0,-13.095484733581543,-5.031567573547363,-8.551151275634766,-2.1966419219970703,-1.6831684112548828,0.8096256256103516,0.36322021484375,0.8536720275878906,0.30676937103271484,-0.2125988006591797
490,610150912.0,-9.320911407470703,-4.145686149597168,-5.333246231079102,2.397982597351074,0.4048128128051758,-1.055708885192871,0.36322021484375,0.8536720275878906,0.30676937103271484,-0.2125988006591797
491,610150912.0,-7.756252288818359,-3.002420425415039,-0.6428623199462891,2.397982597351074,0.4048128128051758,-1.055708885192871,0.36322021484375,0.8536720275878906,0.30676937103271484,-0.2125988006591797
492,610150912.0,22.87250518798828,1.9477424621582031,39.22540283203125,2.397982597351074,0.4048128128051758,-1.055708885192871,0.36322021484375,0.8536720275878906,0.30676937103271484,-0.2125988006591797
493,610150912.0,-8.940220832824707,-9.314925193786621,8.773818969726562,2.397982597351074,0.4048128128051758,-1.055708885192871,0.36322021484375,0.8536720275878906,0.30676937103271484,-0.2125988006591797
494,610150976.0,-9.147326469421387,-4.383916854858398,7.842446327209473,-0.0862884521484375,0.6327857971191406,-1.3199024200439453,0.36322021484375,0.8536720275878906,0.30676937103271484,-0.2125988006591797
495,610150976.0,2.778554916381836,-1.0403118133544922,9.998490333557129,-0.0862884521484375,0.6327857971191406,-1.3199024200439453,0.36322021484375,0.8536720275878906,0.30676937103271484,-0.2125988006591797
496,610150976.0,0.48005199432373047,-7.750267028808594,8.801353454589844,-0.0862884521484375,0.6327857971191406,-1.3199024200439453,0.36322021484375,0.8536720275878906,0.30676937103271484,-0.2125988006591797
497,610151040.0,-1.413818359375,-9.000078201293945,8.558334350585938,2.416092872619629,1.2527885437011719,-1.8152656555175781,0.36322021484375,0.8536720275878906,0.30676937103271484,-0.2125988006591797
498,610151040.0,-1.4018478393554688,-5.226700782775879,9.1868314743042,2.416092872619629,1.2527885437011719,-1.8152656555175781,0.36322021484375,0.8536720275878906,0.30676937103271484,-0.2125988006591797
499,610151040.0,-1.8160572052001953,-3.866753578186035,6.511229515075684,2.416092872619629,1.2527885437011719,-1.8152656555175781,0.36322021484375,0.8536720275878906,0.30676937103271484,-0.2125988006591797
500,610151104.0,-2.846792221069336,-3.872738838195801,3.679999351501465,1.9676027297973633,0.7212057113647461,-4.223901748657227,0.36322021484375,0.8536720275878906,0.30676937103271484,-0.2125988006591797
501,610151104.0,-2.6372928619384766,-4.239063262939453,2.353571891784668,1.9676027297973633,0.7212057113647461,-4.223901748657227,0.36322021484375,0.8536720275878906,0.30676937103271484,-0.2125988006591797
502,610151104.0,-2.4206113815307617,-2.7617950439453125,1.5455036163330078,1.9676027297973633,0.7212057113647461,-4.223901748657227,0.36322021484375,0.8536720275878906,0.30676937103271484,-0.2125988006591797
503,610151168.0,-1.5323352813720703,-4.383916854858398,1.3599472045898438,1.9676027297973633,0.7212057113647461,-4.223901748657227,0.36322021484375,0.8536720275878906,0.30676937103271484,-0.2125988006591797
504,610151168.0,-0.3830833435058594,-5.9306182861328125,1.2318534851074219,1.9676027297973633,0.7212057113647461,-4.223901748657227,0.36322021484375,0.8536720275878906,0.30676937103271484,-0.2125988006591797
505,610151168.0,-0.6177225112915039,-6.536369323730469,0.8655300140380859,1.9676027297973633,0.7212057113647461,-4.223901748657227,0.36322021484375,0.8536720275878906,0.30676937103271484,-0.2125988006591797
506,610151232.0,-0.7039165496826172,-5.029173851013184,0.37949180603027344,0.5315828323364258,-1.0354681015014648,-6.135045051574707,0.36322021484375,0.8536720275878906,0.30676937103271484,-0.2125988006591797
507,610151232.0,-0.1999216079711914,-4.668835639953613,0.3782949447631836,0.5315828323364258,-1.0354681015014648,-6.135045051574707,0.36322021484375,0.8536720275878906,0.30676937103271484,-0.2125988006591797
508,610151232.0,0.8739099502563477,-4.416238784790039,0.0011968612670898438,0.5315828323364258,-1.0354681015014648,-6.135045051574707,0.36322021484375,0.8536720275878906,0.30676937103271484,-0.2125988006591797
509,610151232.0,1.9321794509887695,-5.250643730163574,0.9182043075561523,0.5315828323364258,-1.0354681015014648,-6.135045051574707,0.36322021484375,0.8536720275878906,0.30676937103271484,-0.2125988006591797
510,610151296.0,2.406245231628418,-5.737878799438477,2.306882858276367,-0.6466350555419922,-1.7737188339233398,-6.547314643859863,0.36322021484375,0.8536720275878906,0.30676937103271484,-0.2125988006591797
511,610151296.0,2.590604782104492,-6.249056816101074,3.310084342956543,-0.6466350555419922,-1.7737188339233398,-6.547314643859863,0.36322021484375,0.8536720275878906,0.30676937103271484,-0.2125988006591797
512,610151296.0,3.080233573913574,-6.438203811645508,3.744645118713379,-0.6466350555419922,-1.7737188339233398,-6.547314643859863,0.36322021484375,0.8536720275878906,0.30676937103271484,-0.2125988006591797
513,610151552.0,11.43744945526123,-4.112166404724121,3.784151077270508,0.053264617919921875,-0.6104145050048828,-5.183734893798828,0.4019765853881836,0.5848817825317383,-0.527740478515625,0.46671390533447266
514,610151552.0,7.330071449279785,-4.036746978759766,4.546727180480957,0.053264617919921875,-0.6104145050048828,-5.183734893798828,0.4019765853881836,0.5848817825317383,-0.527740478515625,0.46671390533447266
515,610151552.0,11.43744945526123,-4.112166404724121,3.784151077270508,0.053264617919921875,-0.6104145050048828,-5.183734893798828,0.4019765853881836,0.5848817825317383,-0.527740478515625,0.46671390533447266
516,610151552.0,7.330071449279785,-4.036746978759766,4.546727180480957,0.053264617919921875,-0.6104145050048828,-5.183734893798828,0.4019765853881836,0.5848817825317383,-0.527740478515625,0.46671390533447266
517,610151616.0,6.980507850646973,-1.8627452850341797,5.573870658874512,0.053264617919921875,-0.6104145050048828,-5.183734893798828,0.4019765853881836,0.5848817825317383,-0.527740478515625,0.46671390533447266
518,610151616.0,9.020429611206055,-0.9349641799926758,5.582250595092773,0.053264617919921875,-0.6104145050048828,-5.183734893798828,0.4019765853881836,0.5848817825317383,-0.527740478515625,0.46671390533447266
519,610151616.0,9.004866600036621,-1.0594663619995117,4.795731544494629,0.053264617919921875,-0.6104145050048828,-5.183734893798828,0.4019765853881836,0.5848817825317383,-0.527740478515625,0.46671390533447266
520,610151616.0,6.980507850646973,-1.8627452850341797,5.573870658874512,0.053264617919921875,-0.6104145050048828,-5.183734893798828,0.4019765853881836,0.5848817825317383,-0.527740478515625,0.46671390533447266
521,610151616.0,9.020429611206055,-0.9349641799926758,5.582250595092773,0.053264617919921875,-0.6104145050048828,-5.183734893798828,0.4019765853881836,0.5848817825317383,-0.527740478515625,0.46671390533447266
522,610151616.0,9.004866600036621,-1.0594663619995117,4.795731544494629,0.053264617919921875,-0.6104145050048828,-5.183734893798828,0.4019765853881836,0.5848817825317383,-0.527740478515625,0.46671390533447266
523,610151744.0,10.090670585632324,-0.7110986709594727,2.7677812576293945,0.4314451217651367,0.041545867919921875,0.2535400390625,0.4019765853881836,0.5848817825317383,-0.527740478515625,0.46671390533447266
524,610151808.0,9.935042381286621,-0.3124523162841797,2.627716064453125,0.1320962905883789,0.2077322006225586,0.49323177337646484,0.4019765853881836,0.5848817825317383,-0.527740478515625,0.46671390533447266
525,610151808.0,9.99489974975586,0.08858776092529297,2.347585678100586,0.1320962905883789,0.2077322006225586,0.49323177337646484,0.4019765853881836,0.5848817825317383,-0.527740478515625,0.46671390533447266
526,610151808.0,9.518438339233398,0.5243453979492188,2.2099151611328125,0.1320962905883789,0.2077322006225586,0.49323177337646484,0.4019765853881836,0.5848817825317383,-0.527740478515625,0.46671390533447266
527,610151808.0,9.001275062561035,0.3256206512451172,2.2709693908691406,0.1320962905883789,0.2077322006225586,0.49323177337646484,0.4019765853881836,0.5848817825317383,-0.527740478515625,0.46671390533447266
528,610151872.0,8.796565055847168,0.32202911376953125,2.346388816833496,0.009587287902832031,0.19281864166259766,0.4772529602050781,0.4019765853881836,0.5848817825317383,-0.527740478515625,0.46671390533447266
529,610151872.0,8.61460018157959,0.32202911376953125,2.1883668899536133,0.009587287902832031,0.19281864166259766,0.4772529602050781,0.4019765853881836,0.5848817825317383,-0.527740478515625,0.46671390533447266
530,610151872.0,8.458971977233887,-0.2597780227661133,2.1692123413085938,0.009587287902832031,0.19281864166259766,0.4772529602050781,0.4019765853881836,0.5848817825317383,-0.527740478515625,0.46671390533447266
531,610151936.0,8.467351913452148,-0.4070262908935547,2.098581314086914,0.009587287902832031,0.19281864166259766,0.4772529602050781,0.4019765853881836,0.5848817825317383,-0.527740478515625,0.46671390533447266
532,610151936.0,8.719947814941406,-0.2394266128540039,2.2697715759277344,0.009587287902832031,0.19281864166259766,0.4772529602050781,0.4019765853881836,0.5848817825317383,-0.527740478515625,0.46671390533447266
533,610152064.0,9.253870964050293,-0.6380739212036133,2.4876508712768555,0.06604766845703125,-0.05859088897705078,0.022370338439941406,0.4019765853881836,0.5848817825317383,-0.527740478515625,0.46671390533447266
534,610152064.0,9.18443775177002,-0.678776741027832,2.5163822174072266,0.06604766845703125,-0.05859088897705078,0.022370338439941406,0.4019765853881836,0.5848817825317383,-0.527740478515625,0.46671390533447266
535,610152128.0,9.013246536254883,-0.9660892486572266,2.6468706130981445,0.3100013732910156,-0.07137489318847656,0.02769756317138672,0.4019765853881836,0.5848817825317383,-0.527740478515625,0.46671390533447266
536,610152128.0,9.11620044708252,-1.1217174530029297,2.6480674743652344,0.3100013732910156,-0.07137489318847656,0.02769756317138672,0.4019765853881836,0.5848817825317383,-0.527740478515625,0.46671390533447266
537,610152128.0,9.04437255859375,-0.8248271942138672,2.6468706130981445,0.3100013732910156,-0.07137489318847656,0.02769756317138672,0.4019765853881836,0.5848817825317383,-0.527740478515625,0.46671390533447266
538,610152256.0,9.162888526916504,-0.8810930252075195,2.821652412414551,0.3100013732910156,-0.07137489318847656,0.02769756317138672,0.4019765853881836,0.5848817825317383,-0.527740478515625,0.46671390533447266
539,610152256.0,9.131763458251953,-0.8068704605102539,2.7977094650268555,0.3100013732910156,-0.07137489318847656,0.02769756317138672,0.4019765853881836,0.5848817825317383,-0.527740478515625,0.46671390533447266
540,610152256.0,9.162888526916504,-0.8810930252075195,2.821652412414551,0.3100013732910156,-0.07137489318847656,0.02769756317138672,0.4019765853881836,0.5848817825317383,-0.527740478515625,0.46671390533447266
541,610152320.0,9.1437349319458,-0.7230701446533203,2.755809783935547,0.07137489318847656,-0.0170440673828125,0.023435592651367188,0.4019765853881836,0.5848817825317383,-0.527740478515625,0.46671390533447266
542,610152384.0,9.158100128173828,-0.8092641830444336,2.7761611938476562,0.07137489318847656,-0.0170440673828125,0.023435592651367188,0.4019765853881836,0.5848817825317383,-0.527740478515625,0.46671390533447266
543,610152384.0,9.130566596984863,-0.7242679595947266,2.755809783935547,0.07137489318847656,-0.0170440673828125,0.023435592651367188,0.4019765853881836,0.5848817825317383,-0.527740478515625,0.46671390533447266
544,610152448.0,9.034794807434082,-0.7829275131225586,2.664827346801758,0.07137489318847656,-0.0170440673828125,0.023435592651367188,0.4019765853881836,0.5848817825317383,-0.527740478515625,0.46671390533447266
545,610152832.0,9.0754976272583,-0.610539436340332,2.692361831665039,0.10546398162841797,0.01597881317138672,-0.01810932159423828,0.385101318359375,0.64495849609375,-0.4629173278808594,0.47055530548095703
546,610152832.0,9.0754976272583,-0.610539436340332,2.692361831665039,0.10546398162841797,0.01597881317138672,-0.01810932159423828,0.385101318359375,0.64495849609375,-0.4629173278808594,0.47055530548095703
547,610152832.0,9.0754976272583,-0.610539436340332,2.692361831665039,0.10546398162841797,0.01597881317138672,-0.01810932159423828,0.385101318359375,0.64495849609375,-0.4629173278808594,0.47055530548095703
548,610152896.0,9.211971282958984,-0.6691989898681641,2.685178756713867,0.10546398162841797,0.01597881317138672,-0.01810932159423828,0.385101318359375,0.64495849609375,-0.4629173278808594,0.47055530548095703
549,610152896.0,9.152114868164062,-0.7721529006958008,2.622927665710449,0.10546398162841797,0.01597881317138672,-0.01810932159423828,0.385101318359375,0.64495849609375,-0.4629173278808594,0.47055530548095703
550,610152896.0,8.980923652648926,-0.7242679595947266,2.7019386291503906,0.10546398162841797,0.01597881317138672,-0.01810932159423828,0.385101318359375,0.64495849609375,-0.4629173278808594,0.47055530548095703
551,610152896.0,9.211971282958984,-0.6691989898681641,2.685178756713867,0.10546398162841797,0.01597881317138672,-0.01810932159423828,0.385101318359375,0.64495849609375,-0.4629173278808594,0.47055530548095703
552,610152896.0,9.152114868164062,-0.7721529006958008,2.622927665710449,0.10546398162841797,0.01597881317138672,-0.01810932159423828,0.385101318359375,0.64495849609375,-0.4629173278808594,0.47055530548095703
553,610152896.0,8.980923652648926,-0.7242679595947266,2.7019386291503906,0.10546398162841797,0.01597881317138672,-0.01810932159423828,0.385101318359375,0.64495849609375,-0.4629173278808594,0.47055530548095703
554,610152896.0,9.211971282958984,-0.6691989898681641,2.685178756713867,0.10546398162841797,0.01597881317138672,-0.01810932159423828,0.385101318359375,0.64495849609375,-0.4629173278808594,0.47055530548095703
555,610152896.0,9.152114868164062,-0.7721529006958008,2.622927665710449,0.10546398162841797,0.01597881317138672,-0.01810932159423828,0.385101318359375,0.64495849609375,-0.4629173278808594,0.47055530548095703
556,610152896.0,8.980923652648926,-0.7242679595947266,2.7019386291503906,0.10546398162841797,0.01597881317138672,-0.01810932159423828,0.385101318359375,0.64495849609375,-0.4629173278808594,0.47055530548095703
557,610152960.0,9.007261276245117,-0.4968118667602539,2.8048925399780273,0.10546398162841797,0.01597881317138672,-0.01810932159423828,0.385101318359375,0.64495849609375,-0.4629173278808594,0.47055530548095703
558,610152960.0,9.007261276245117,-0.4968118667602539,2.8048925399780273,0.10546398162841797,0.01597881317138672,-0.01810932159423828,0.385101318359375,0.64495849609375,-0.4629173278808594,0.47055530548095703
559,610152960.0,9.007261276245117,-0.4968118667602539,2.8048925399780273,0.10546398162841797,0.01597881317138672,-0.01810932159423828,0.385101318359375,0.64495849609375,-0.4629173278808594,0.47055530548095703
560,610154048.0,9.068314552307129,-0.7218732833862305,2.656447410583496,0.00852203369140625,0.010652542114257812,0.0010652542114257812,0.385101318359375,0.64495849609375,-0.4629173278808594,0.47055530548095703
561,610154432.0,9.050357818603516,-0.7960958480834961,2.6624326705932617,-0.0170440673828125,0.0,0.0,0.380828857421875,0.654841423034668,-0.453033447265625,0.46999454498291016
562,610154496.0,9.113805770874023,-0.6979303359985352,2.6803903579711914,-0.0170440673828125,0.0,0.0,0.380828857421875,0.654841423034668,-0.453033447265625,0.46999454498291016
563,610154560.0,9.100637435913086,-0.7242679595947266,2.661235809326172,-0.0170440673828125,0.0,0.0,0.380828857421875,0.654841423034668,-0.453033447265625,0.46999454498291016
564,610154624.0,9.079089164733887,-0.7206764221191406,2.6684188842773438,-0.0170440673828125,0.0,0.0,0.380828857421875,0.654841423034668,-0.453033447265625,0.46999454498291016
565,610154688.0,9.14612865447998,-0.7721529006958008,2.664827346801758,0.0,-0.0021305084228515625,-0.009587287902832031,0.380828857421875,0.654841423034668,-0.453033447265625,0.46999454498291016
566,610154688.0,9.16648006439209,-0.6979303359985352,2.6779956817626953,0.0,-0.0021305084228515625,-0.009587287902832031,0.380828857421875,0.654841423034668,-0.453033447265625,0.46999454498291016
567,610154688.0,9.099440574645996,-0.7003250122070312,2.630110740661621,0.0,-0.0021305084228515625,-0.009587287902832031,0.380828857421875,0.654841423034668,-0.453033447265625,0.46999454498291016
568,610154752.0,9.089863777160645,-0.7853212356567383,2.6456727981567383,-0.005326271057128906,-0.007456779479980469,0.0021305084228515625,0.380828857421875,0.654841423034668,-0.453033447265625,0.46999454498291016
569,610154752.0,9.09584903717041,-0.7326478958129883,2.6516590118408203,-0.005326271057128906,-0.007456779479980469,0.0021305084228515625,0.380828857421875,0.654841423034668,-0.453033447265625,0.46999454498291016
