,timestamp,accel_x,accel_y,accel_z,gyro_x,gyro_y,gyro_z,ori_scalar,ori_x,ori_y,ori_z
0,276328160.0,9.158100128173828,-4.288145065307617,2.4804677963256836,0.29721736907958984,-0.1331615447998047,0.04687213897705078,0.06706714630126953,-0.3348665237426758,-0.9391698837280273,-0.03677177429199219
1,276328160.0,9.512453079223633,-3.671619415283203,2.3344173431396484,0.29721736907958984,-0.1331615447998047,0.04687213897705078,0.06706714630126953,-0.3348665237426758,-0.9391698837280273,-0.03677177429199219
2,276328192.0,9.281405448913574,-3.3843069076538086,2.4122314453125,0.29721736907958984,-0.1331615447998047,0.04687213897705078,0.06706714630126953,-0.3348665237426758,-0.9391698837280273,-0.03677177429199219
3,276328224.0,8.966558456420898,-3.057488441467285,2.816864013671875,0.29721736907958984,-0.1331615447998047,0.04687213897705078,0.06706714630126953,-0.3348665237426758,-0.9391698837280273,-0.03677177429199219
4,276328224.0,9.183239936828613,-2.5822248458862305,2.875523567199707,0.29721736907958984,-0.1331615447998047,0.04687213897705078,0.06706714630126953,-0.3348665237426758,-0.9391698837280273,-0.03677177429199219
5,276328256.0,9.389147758483887,-2.3559656143188477,2.7330636978149414,0.29721736907958984,-0.1331615447998047,0.04687213897705078,0.06706714630126953,-0.3348665237426758,-0.9391698837280273,-0.03677177429199219
6,276328288.0,9.275420188903809,-2.1488609313964844,2.711515426635742,0.29721736907958984,-0.1331615447998047,0.04687213897705078,0.06706714630126953,-0.3348665237426758,-0.9391698837280273,-0.03677177429199219
7,276328288.0,9.282602310180664,-1.765777587890625,2.8815088272094727,0.29721736907958984,-0.1331615447998047,0.04687213897705078,0.06706714630126953,-0.3348665237426758,-0.9391698837280273,-0.03677177429199219
8,276328320.0,9.542381286621094,-1.6831750869750977,2.616941452026367,0.29721736907958984,-0.1331615447998047,0.04687213897705078,0.06706714630126953,-0.3348665237426758,-0.9391698837280273,-0.03677177429199219
9,276328320.0,9.57470417022705,-1.9082365036010742,2.258997917175293,0.29721736907958984,-0.1331615447998047,0.04687213897705078,0.06706714630126953,-0.3348665237426758,-0.9391698837280273,-0.03677177429199219
10,276328352.0,9.45499038696289,-2.029147148132324,2.2470264434814453,0.29721736907958984,-0.1331615447998047,0.04687213897705078,0.06706714630126953,-0.3348665237426758,-0.9391698837280273,-0.03677177429199219
11,276328384.0,9.681249618530273,-1.9381647109985352,2.1728038787841797,0.29721736907958984,-0.1331615447998047,0.04687213897705078,0.06706714630126953,-0.3348665237426758,-0.9391698837280273,-0.03677177429199219
12,276328384.0,9.674066543579102,-1.9836559295654297,1.8256340026855469,0.29721736907958984,-0.1331615447998047,0.04687213897705078,0.06706714630126953,-0.3348665237426758,-0.9391698837280273,-0.03677177429199219
13,276328416.0,9.372387886047363,-2.066258430480957,1.674795150756836,0.29721736907958984,-0.1331615447998047,0.04687213897705078,0.06732654571533203,-0.3343486785888672,-0.9393424987792969,-0.0354766845703125
14,276328448.0,9.316122055053711,-2.0494985580444336,1.9465446472167969,0.23862648010253906,0.0,-0.013848304748535156,0.06913948059082031,-0.3340034484863281,-0.9395151138305664,-0.03141975402832031
15,276328672.0,9.316122055053711,-2.215900421142578,2.1165380477905273,0.024501800537109375,-0.041545867919921875,0.08309268951416016,0.542241096496582,-0.2507505416870117,-0.7325706481933594,-0.3261909484863281
16,276328672.0,9.64533519744873,-2.1787891387939453,2.03273868560791,0.024501800537109375,-0.041545867919921875,0.08309268951416016,0.542241096496582,-0.2507505416870117,-0.7325706481933594,-0.3261909484863281
17,276328704.0,9.316122055053711,-2.105764389038086,2.0459070205688477,0.024501800537109375,-0.041545867919921875,0.08309268951416016,0.542241096496582,-0.2507505416870117,-0.7325706481933594,-0.3261909484863281
18,276328736.0,9.080286026000977,-2.160832405090332,2.1775922775268555,0.13103103637695312,-0.1331615447998047,-0.042611122131347656,0.542241096496582,-0.2507505416870117,-0.7325706481933594,-0.3261909484863281
19,276328736.0,9.364007949829102,-2.2314634323120117,2.281743049621582,0.13103103637695312,-0.1331615447998047,-0.042611122131347656,0.542241096496582,-0.2507505416870117,-0.7325706481933594,-0.3261909484863281
20,276328864.0,9.537592887878418,-2.2422380447387695,2.200338363647461,0.021305084228515625,-0.01597881317138672,0.0031957626342773438,0.5554475784301758,-0.23232173919677734,-0.7329587936401367,-0.31661033630371094
21,276328896.0,9.37478256225586,-2.2745609283447266,2.2063236236572266,-0.00852203369140625,-0.01810932159423828,0.007456779479980469,0.5543689727783203,-0.23206329345703125,-0.7337360382080078,-0.3169126510620117
22,276328896.0,9.257462501525879,-2.3056859970092773,2.266180992126465,-0.00852203369140625,-0.01810932159423828,0.007456779479980469,0.5543689727783203,-0.23206329345703125,-0.7337360382080078,-0.3169126510620117
23,276328928.0,9.393936157226562,-2.248223304748535,2.2649831771850586,0.0031957626342773438,0.0,0.031958580017089844,0.5538511276245117,-0.2317180633544922,-0.7341670989990234,-0.31708526611328125
24,276328928.0,9.350839614868164,-2.175198554992676,2.1153411865234375,0.0031957626342773438,0.0,0.031958580017089844,0.5538511276245117,-0.2317180633544922,-0.7341670989990234,-0.31708526611328125
25,276329152.0,9.395133018493652,-2.438568115234375,2.0866098403930664,-0.05965614318847656,0.0,-0.042611122131347656,0.5523405075073242,-0.23387527465820312,-0.7356348037719727,-0.31479740142822266
26,276329184.0,9.226337432861328,-2.3236427307128906,2.005204200744629,0.024501800537109375,0.04474163055419922,0.014913558959960938,0.5513477325439453,-0.2336597442626953,-0.7362823486328125,-0.315185546875
27,276329184.0,9.09465217590332,-2.2613916397094727,1.9992189407348633,0.024501800537109375,0.04474163055419922,0.014913558959960938,0.5513477325439453,-0.2336597442626953,-0.7362823486328125,-0.315185546875
28,276329216.0,9.190423011779785,-2.2578001022338867,2.033935546875,0.02769756317138672,-0.0010652542114257812,0.007456779479980469,0.5507869720458984,-0.2329692840576172,-0.7368860244750977,-0.3152294158935547
29,276329248.0,9.250279426574707,-2.2458295822143555,2.036330223083496,0.02769756317138672,-0.0010652542114257812,0.007456779479980469,0.5507869720458984,-0.2329692840576172,-0.7368860244750977,-0.3152294158935547
30,276329344.0,9.353233337402344,-2.3056859970092773,2.0782299041748047,0.12250900268554688,-0.060721397399902344,0.03728485107421875,0.5507869720458984,-0.2329692840576172,-0.7368860244750977,-0.3152294158935547
31,276329376.0,9.440624237060547,-2.3344173431396484,2.1823806762695312,0.1736431121826172,-0.11185550689697266,0.05859088897705078,0.5507869720458984,-0.2329692840576172,-0.7368860244750977,-0.3152294158935547
32,276329408.0,9.688431739807129,-2.2697715759277344,2.287729263305664,0.19175338745117188,-0.07244014739990234,0.0980072021484375,0.5507869720458984,-0.2329692840576172,-0.7368860244750977,-0.3152294158935547
33,276329408.0,9.583084106445312,-2.0315418243408203,2.2506179809570312,0.19175338745117188,-0.07244014739990234,0.0980072021484375,0.5507869720458984,-0.2329692840576172,-0.7368860244750977,-0.3152294158935547
34,276329440.0,9.282602310180664,-2.1021728515625,2.2386465072631836,0.08415794372558594,-0.030893325805664062,0.15233707427978516,0.5532894134521484,-0.22118663787841797,-0.7391738891601562,-0.31402111053466797
35,276329472.0,9.328093528747559,-2.106961250305176,2.2709693908691406,0.1374225616455078,-0.00852203369140625,0.10226821899414062,0.5532035827636719,-0.2180795669555664,-0.7401227951049805,-0.31402111053466797
36,276329472.0,9.434638977050781,-2.160832405090332,2.2063236236572266,0.1374225616455078,-0.00852203369140625,0.10226821899414062,0.5532035827636719,-0.2180795669555664,-0.7401227951049805,-0.31402111053466797
37,276329504.0,9.40590763092041,-2.133297920227051,2.2147035598754883,0.18323040008544922,-0.00852203369140625,0.0628519058227539,0.5531606674194336,-0.21665573120117188,-0.7410297393798828,-0.3129415512084961
38,276329504.0,9.391542434692383,-2.1165380477905273,2.1775922775268555,0.18323040008544922,-0.00852203369140625,0.0628519058227539,0.5531606674194336,-0.21665573120117188,-0.7410297393798828,-0.3129415512084961
39,276329536.0,9.353233337402344,-2.1440725326538086,2.1189327239990234,0.16512012481689453,-0.0031957626342773438,0.013848304748535156,0.5532894134521484,-0.215576171875,-0.7418498992919922,-0.3116035461425781
40,276329664.0,9.402316093444824,-2.3739233016967773,1.8376054763793945,-0.0170440673828125,0.030893325805664062,0.03621959686279297,0.5528154373168945,-0.2145833969116211,-0.7427558898925781,-0.3108701705932617
41,276329664.0,9.275420188903809,-2.3930768966674805,1.8615484237670898,-0.0170440673828125,0.030893325805664062,0.03621959686279297,0.5528154373168945,-0.2145833969116211,-0.7427558898925781,-0.3108701705932617
42,276329696.0,9.318516731262207,-2.4146251678466797,1.939361572265625,-0.03621959686279297,-0.020239830017089844,0.05113410949707031,0.552556037902832,-0.2141094207763672,-0.7425403594970703,-0.31225109100341797
43,276329728.0,9.263448715209961,-2.339205741882324,1.9549245834350586,-0.01810932159423828,-0.014913558959960938,0.06391716003417969,0.5523834228515625,-0.21367740631103516,-0.7425403594970703,-0.31285572052001953
44,276329824.0,9.124580383300781,-2.4541311264038086,1.9333763122558594,-0.01810932159423828,-0.014913558959960938,0.06391716003417969,0.5523834228515625,-0.21367740631103516,-0.7425403594970703,-0.31285572052001953
45,276329856.0,9.220351219177246,-2.438568115234375,2.009993553161621,-0.01810932159423828,-0.014913558959960938,0.06391716003417969,0.5558795928955078,-0.20867156982421875,-0.7426261901855469,-0.3097047805786133
46,276329856.0,9.153311729431152,-2.4541311264038086,1.9656991958618164,-0.01810932159423828,-0.014913558959960938,0.06391716003417969,0.5558795928955078,-0.20867156982421875,-0.7426261901855469,-0.3097047805786133
47,276329856.0,9.338868141174316,-2.3978652954101562,1.968092918395996,-0.01810932159423828,-0.014913558959960938,0.06391716003417969,0.5558795928955078,-0.20867156982421875,-0.7426261901855469,-0.3097047805786133
48,276329888.0,9.433442115783691,-2.4002599716186523,1.971684455871582,-0.01810932159423828,-0.014913558959960938,0.06391716003417969,0.5570011138916016,-0.2080669403076172,-0.7423677444458008,-0.30875492095947266
49,276329888.0,9.501678466796875,-2.3942737579345703,1.968092918395996,-0.01810932159423828,-0.014913558959960938,0.06391716003417969,0.5570011138916016,-0.2080669403076172,-0.7423677444458008,-0.30875492095947266
50,276329888.0,9.470553398132324,-2.409836769104004,1.9908390045166016,-0.01810932159423828,-0.014913558959960938,0.06391716003417969,0.5570011138916016,-0.2080669403076172,-0.7423677444458008,-0.30875492095947266
51,276329920.0,9.49569320678711,-2.4026546478271484,2.077033042907715,-0.01810932159423828,-0.014913558959960938,0.06391716003417969,0.5585117340087891,-0.20720386505126953,-0.7417631149291992,-0.3081083297729492
52,276329920.0,9.389147758483887,-2.4325828552246094,2.133297920227051,-0.01810932159423828,-0.014913558959960938,0.06391716003417969,0.5585117340087891,-0.20720386505126953,-0.7417631149291992,-0.3081083297729492
53,276329920.0,9.501678466796875,-2.387091636657715,2.014781951904297,-0.01810932159423828,-0.014913558959960938,0.06391716003417969,0.5585117340087891,-0.20720386505126953,-0.7417631149291992,-0.3081083297729492
54,276329920.0,9.445413589477539,-2.417019844055176,2.1045665740966797,-0.01810932159423828,-0.014913558959960938,0.06391716003417969,0.5585117340087891,-0.20720386505126953,-0.7417631149291992,-0.3081083297729492
55,276330144.0,9.556747436523438,-2.3296289443969727,1.9561223983764648,0.10759449005126953,-0.011717796325683594,-0.07989692687988281,0.5590724945068359,-0.20267200469970703,-0.7442235946655273,-0.3040943145751953
56,276330144.0,9.470553398132324,-2.376317024230957,2.0351333618164062,0.10759449005126953,-0.011717796325683594,-0.07989692687988281,0.5590724945068359,-0.20267200469970703,-0.7442235946655273,-0.3040943145751953
57,276330144.0,9.556747436523438,-2.3296289443969727,1.9561223983764648,0.10759449005126953,-0.011717796325683594,-0.07989692687988281,0.5590724945068359,-0.20267200469970703,-0.7442235946655273,-0.3040943145751953
58,276330144.0,9.470553398132324,-2.376317024230957,2.0351333618164062,0.10759449005126953,-0.011717796325683594,-0.07989692687988281,0.5590724945068359,-0.20267200469970703,-0.7442235946655273,-0.3040943145751953
59,276330176.0,9.179648399353027,-2.340402603149414,2.097384452819824,0.0287628173828125,0.024501800537109375,-0.041545867919921875,0.5590724945068359,-0.20267200469970703,-0.7442235946655273,-0.3040943145751953
60,276330176.0,9.179648399353027,-2.340402603149414,2.097384452819824,0.0287628173828125,0.024501800537109375,-0.041545867919921875,0.5590724945068359,-0.20267200469970703,-0.7442235946655273,-0.3040943145751953
61,276330208.0,9.037189483642578,-2.3032913208007812,2.014781951904297,-0.025567054748535156,-0.0010652542114257812,-0.022370338439941406,0.5590724945068359,-0.20267200469970703,-0.7442235946655273,-0.3040943145751953
62,276330208.0,9.1868314743042,-2.3619518280029297,1.968092918395996,-0.025567054748535156,-0.0010652542114257812,-0.022370338439941406,0.5590724945068359,-0.20267200469970703,-0.7442235946655273,-0.3040943145751953
63,276330208.0,9.037189483642578,-2.3032913208007812,2.014781951904297,-0.025567054748535156,-0.0010652542114257812,-0.022370338439941406,0.5590724945068359,-0.20267200469970703,-0.7442235946655273,-0.3040943145751953
64,276330208.0,9.1868314743042,-2.3619518280029297,1.968092918395996,-0.025567054748535156,-0.0010652542114257812,-0.022370338439941406,0.5590724945068359,-0.20267200469970703,-0.7442235946655273,-0.3040943145751953
65,276330240.0,9.423864364624023,-2.3595571517944336,1.9609107971191406,-0.045806884765625,0.0170440673828125,0.009587287902832031,0.5590724945068359,-0.20267200469970703,-0.7442235946655273,-0.3040943145751953
66,276330240.0,9.270630836486816,-2.406245231628418,1.9369678497314453,-0.045806884765625,0.0170440673828125,0.009587287902832031,0.5590724945068359,-0.20267200469970703,-0.7442235946655273,-0.3040943145751953
67,276330272.0,9.135354995727539,-2.3380088806152344,1.8950681686401367,0.01810932159423828,-0.00852203369140625,0.013848304748535156,0.5590724945068359,-0.20267200469970703,-0.7442235946655273,-0.3040943145751953
68,276330304.0,9.326896667480469,-2.2793493270874023,1.8890819549560547,0.01597881317138672,-0.02769756317138672,0.010652542114257812,0.5590724945068359,-0.20267200469970703,-0.7442235946655273,-0.3040943145751953
69,276330304.0,9.428653717041016,-2.2649831771850586,1.820845603942871,0.01597881317138672,-0.02769756317138672,0.010652542114257812,0.5590724945068359,-0.20267200469970703,-0.7442235946655273,-0.3040943145751953
70,276330432.0,9.431047439575195,-2.2673778533935547,1.9357709884643555,-0.010652542114257812,-0.020239830017089844,0.0,0.5590724945068359,-0.20267200469970703,-0.7442235946655273,-0.3040943145751953
71,276330464.0,9.435835838317871,-2.201535224914551,1.8603506088256836,0.0745706558227539,-0.034089088439941406,-0.01597881317138672,0.5618782043457031,-0.20129108428955078,-0.7434463500976562,-0.3018064498901367
72,276330496.0,9.369993209838867,-2.159635543823242,1.8555622100830078,0.05006885528564453,-0.04474163055419922,-0.020239830017089844,0.5623102188110352,-0.20094585418701172,-0.7433605194091797,-0.3013753890991211
73,276330496.0,9.431047439575195,-2.225478172302246,1.9405593872070312,0.05006885528564453,-0.04474163055419922,-0.020239830017089844,0.5623102188110352,-0.20094585418701172,-0.7433605194091797,-0.3013753890991211
74,276330528.0,9.57470417022705,-2.2075204849243164,1.919011116027832,0.057525634765625,-0.041545867919921875,-0.01597881317138672,0.5634317398071289,-0.20038509368896484,-0.7429714202880859,-0.30059814453125
75,276330624.0,9.402316093444824,-1.9836559295654297,1.8735198974609375,0.057525634765625,-0.041545867919921875,-0.01597881317138672,0.5634317398071289,-0.20038509368896484,-0.7429714202880859,-0.30059814453125
76,276330656.0,9.308939933776855,-2.014781951904297,1.8100709915161133,-0.05539512634277344,-0.023435592651367188,0.0,0.5634317398071289,-0.20038509368896484,-0.7429714202880859,-0.30059814453125
77,276330688.0,9.380767822265625,-2.1560440063476562,1.7813396453857422,0.041545867919921875,-0.02769756317138672,-0.020239830017089844,0.5634317398071289,-0.20038509368896484,-0.7429714202880859,-0.30059814453125
78,276330688.0,9.371191024780273,-2.190760612487793,1.7669744491577148,0.041545867919921875,-0.02769756317138672,-0.020239830017089844,0.5634317398071289,-0.20038509368896484,-0.7429714202880859,-0.30059814453125
79,276330720.0,9.326896667480469,-2.1524524688720703,1.7035255432128906,0.10013771057128906,-0.03835010528564453,-0.030893325805664062,0.5634317398071289,-0.20038509368896484,-0.7429714202880859,-0.30059814453125
80,276330720.0,9.317319869995117,-2.1428756713867188,1.638880729675293,0.10013771057128906,-0.03835010528564453,-0.030893325805664062,0.5634317398071289,-0.20038509368896484,-0.7429714202880859,-0.30059814453125
81,276330752.0,9.362811088562012,-2.134495735168457,1.6269092559814453,0.14594554901123047,-0.057525634765625,-0.05006885528564453,0.5634317398071289,-0.20038509368896484,-0.7429714202880859,-0.30059814453125
82,276330848.0,9.450201988220215,-2.315262794494629,1.737046241760254,0.14594554901123047,-0.057525634765625,-0.05006885528564453,0.5713300704956055,-0.19662952423095703,-0.7405977249145508,-0.2939949035644531
83,276330880.0,9.493298530578613,-2.256603240966797,1.7166948318481445,0.14594554901123047,-0.057525634765625,-0.05006885528564453,0.5730133056640625,-0.19559383392333984,-0.7398214340209961,-0.2933483123779297
84,276330880.0,9.543578147888184,-2.1811838150024414,1.759791374206543,0.14594554901123047,-0.057525634765625,-0.05006885528564453,0.5730133056640625,-0.19559383392333984,-0.7398214340209961,-0.2933483123779297
85,276330912.0,9.511256217956543,-2.1105527877807617,1.8639421463012695,0.14594554901123047,-0.057525634765625,-0.05006885528564453,0.5738763809204102,-0.19451522827148438,-0.7397775650024414,-0.2924842834472656
86,276330944.0,9.567521095275879,-2.0231618881225586,2.037527084350586,0.14594554901123047,-0.057525634765625,-0.05006885528564453,0.5753870010375977,-0.19235706329345703,-0.7400369644165039,-0.29036998748779297
87,276330944.0,9.639349937438965,-2.006402015686035,1.977670669555664,0.14594554901123047,-0.057525634765625,-0.05006885528564453,0.5753870010375977,-0.19235706329345703,-0.7400369644165039,-0.29036998748779297
88,276330976.0,9.542381286621094,-2.000415802001953,2.0483016967773438,0.14594554901123047,-0.057525634765625,-0.05006885528564453,0.5753870010375977,-0.19235706329345703,-0.7400369644165039,-0.29036998748779297
89,276330976.0,9.542381286621094,-2.000415802001953,2.0483016967773438,0.14594554901123047,-0.057525634765625,-0.05006885528564453,0.5753870010375977,-0.19235706329345703,-0.7400369644165039,-0.29036998748779297
90,276331008.0,9.480130195617676,-2.1045665740966797,2.1021728515625,0.14594554901123047,-0.057525634765625,-0.05006885528564453,0.5753870010375977,-0.19235706329345703,-0.7400369644165039,-0.29036998748779297
91,276331008.0,9.465764999389648,-2.2757577896118164,2.038724899291992,0.14594554901123047,-0.057525634765625,-0.05006885528564453,0.5753870010375977,-0.19235706329345703,-0.7400369644165039,-0.29036998748779297
92,276331008.0,9.480130195617676,-2.1045665740966797,2.1021728515625,0.14594554901123047,-0.057525634765625,-0.05006885528564453,0.5753870010375977,-0.19235706329345703,-0.7400369644165039,-0.29036998748779297
93,276331008.0,9.465764999389648,-2.2757577896118164,2.038724899291992,0.14594554901123047,-0.057525634765625,-0.05006885528564453,0.5753870010375977,-0.19235706329345703,-0.7400369644165039,-0.29036998748779297
94,276331040.0,9.501678466796875,-2.2434349060058594,1.9956274032592773,0.14594554901123047,-0.057525634765625,-0.05006885528564453,0.5753870010375977,-0.19235706329345703,-0.7400369644165039,-0.29036998748779297
95,276331040.0,9.463370323181152,-2.233858108520508,1.9920358657836914,0.14594554901123047,-0.057525634765625,-0.05006885528564453,0.5753870010375977,-0.19235706329345703,-0.7400369644165039,-0.29036998748779297
96,276331040.0,9.501678466796875,-2.2434349060058594,1.9956274032592773,0.14594554901123047,-0.057525634765625,-0.05006885528564453,0.5753870010375977,-0.19235706329345703,-0.7400369644165039,-0.29036998748779297
97,276331040.0,9.463370323181152,-2.233858108520508,1.9920358657836914,0.14594554901123047,-0.057525634765625,-0.05006885528564453,0.5753870010375977,-0.19235706329345703,-0.7400369644165039,-0.29036998748779297
98,276331264.0,9.538789749145508,-2.190760612487793,1.635289192199707,0.0010652542114257812,0.021305084228515625,0.0745706558227539,0.5700349807739258,-0.18644428253173828,-0.7449140548706055,-0.2922687530517578
99,276331296.0,9.395133018493652,-2.197943687438965,1.632894515991211,-0.0692434310913086,0.023435592651367188,0.0628519058227539,0.5700349807739258,-0.18644428253173828,-0.7449140548706055,-0.2922687530517578
100,276331328.0,9.308939933776855,-2.3320226669311523,1.6987371444702148,0.025567054748535156,-0.011717796325683594,0.033023834228515625,0.5700349807739258,-0.18644428253173828,-0.7449140548706055,-0.2922687530517578
101,276331328.0,9.35562801361084,-2.349980354309082,1.695145606994629,0.025567054748535156,-0.011717796325683594,0.033023834228515625,0.5700349807739258,-0.18644428253173828,-0.7449140548706055,-0.2922687530517578
102,276331360.0,9.35443115234375,-2.226675033569336,1.7166948318481445,0.025567054748535156,-0.011717796325683594,0.033023834228515625,0.5684814453125,-0.1848907470703125,-0.7455177307128906,-0.2947721481323242
103,276331360.0,9.197606086730957,-2.2458295822143555,1.7107086181640625,0.025567054748535156,-0.011717796325683594,0.033023834228515625,0.5684814453125,-0.1848907470703125,-0.7455177307128906,-0.2947721481323242
104,276331392.0,9.162888526916504,-2.2997007369995117,1.7538061141967773,0.025567054748535156,-0.011717796325683594,0.033023834228515625,0.5684385299682617,-0.18476104736328125,-0.7454748153686523,-0.29498767852783203
105,276331424.0,9.26464557647705,-2.369133949279785,1.7825374603271484,0.025567054748535156,-0.011717796325683594,0.033023834228515625,0.5687837600708008,-0.18424320220947266,-0.7453022003173828,-0.295074462890625
106,276331424.0,9.409499168395996,-2.219491958618164,1.7250747680664062,0.025567054748535156,-0.011717796325683594,0.033023834228515625,0.5687837600708008,-0.18424320220947266,-0.7453022003173828,-0.295074462890625
107,276331456.0,9.435835838317871,-2.1955490112304688,1.7202863693237305,-0.024501800537109375,-0.010652542114257812,0.012783050537109375,0.568913459777832,-0.1841573715209961,-0.7451295852661133,-0.2953767776489258
108,276331584.0,9.446610450744629,-2.258997917175293,1.7418346405029297,0.053264617919921875,-0.033023834228515625,-0.022370338439941406,0.5702075958251953,-0.18346691131591797,-0.7446117401123047,-0.2945995330810547
109,276331584.0,9.49569320678711,-2.3032913208007812,1.789719581604004,0.053264617919921875,-0.033023834228515625,-0.022370338439941406,0.5702075958251953,-0.18346691131591797,-0.7446117401123047,-0.2945995330810547
110,276331616.0,9.556747436523438,-2.2206897735595703,1.789719581604004,0.053264617919921875,-0.033023834228515625,-0.022370338439941406,0.5702075958251953,-0.18346691131591797,-0.7446117401123047,-0.2945995330810547
111,276331616.0,9.445413589477539,-2.22308349609375,1.7945079803466797,0.053264617919921875,-0.033023834228515625,-0.022370338439941406,0.5702075958251953,-0.18346691131591797,-0.7446117401123047,-0.2945995330810547
112,276331648.0,9.428653717041016,-2.2673778533935547,1.8124656677246094,0.010652542114257812,-0.03835010528564453,-0.042611122131347656,0.5702075958251953,-0.18346691131591797,-0.7446117401123047,-0.2945995330810547
113,276331680.0,9.536396026611328,-2.314065933227539,1.7729597091674805,0.033023834228515625,-0.031958580017089844,-0.034089088439941406,0.5702075958251953,-0.18346691131591797,-0.7446117401123047,-0.2945995330810547
114,276331680.0,9.52442455291748,-2.249420166015625,1.795705795288086,0.033023834228515625,-0.031958580017089844,-0.034089088439941406,0.5702075958251953,-0.18346691131591797,-0.7446117401123047,-0.2945995330810547
115,276331712.0,9.378373146057129,-2.2506179809570312,1.8076772689819336,0.02769756317138672,-0.02769756317138672,-0.013848304748535156,0.5702075958251953,-0.18346691131591797,-0.7446117401123047,-0.2945995330810547
116,276331744.0,9.378373146057129,-2.2374496459960938,1.8411970138549805,0.06498241424560547,-0.033023834228515625,-0.025567054748535156,0.5702075958251953,-0.18346691131591797,-0.7446117401123047,-0.2945995330810547
117,276331744.0,9.437033653259277,-2.226675033569336,1.8651399612426758,0.06498241424560547,-0.033023834228515625,-0.025567054748535156,0.5702075958251953,-0.18346691131591797,-0.7446117401123047,-0.2945995330810547
118,276331776.0,9.518438339233398,-2.123721122741699,1.8711252212524414,0.03835010528564453,0.0,-0.054329872131347656,0.5702075958251953,-0.18346691131591797,-0.7446117401123047,-0.2945995330810547
119,276331776.0,9.381964683532715,-2.1835784912109375,1.8040857315063477,0.03835010528564453,0.0,-0.054329872131347656,0.5702075958251953,-0.18346691131591797,-0.7446117401123047,-0.2945995330810547
120,276331808.0,9.360416412353516,-2.2314634323120117,1.7777481079101562,0.00852203369140625,-0.005326271057128906,-0.054329872131347656,0.5702075958251953,-0.18346691131591797,-0.7446117401123047,-0.2945995330810547
121,276331840.0,9.482524871826172,-2.2099151611328125,1.8112688064575195,-0.0063915252685546875,-0.0010652542114257812,-0.03728485107421875,0.5702075958251953,-0.18346691131591797,-0.7446117401123047,-0.2945995330810547
122,276331840.0,9.508861541748047,-2.1835784912109375,1.6891603469848633,-0.0063915252685546875,-0.0010652542114257812,-0.03728485107421875,0.5702075958251953,-0.18346691131591797,-0.7446117401123047,-0.2945995330810547
123,276331872.0,9.438230514526367,-2.196746826171875,1.7023286819458008,-0.040480613708496094,0.01597881317138672,-0.013848304748535156,0.5702075958251953,-0.18346691131591797,-0.7446117401123047,-0.2945995330810547
124,276331904.0,9.507664680480957,-2.190760612487793,1.7346515655517578,-0.05006885528564453,0.026632308959960938,0.0063915252685546875,0.5702075958251953,-0.18346691131591797,-0.7446117401123047,-0.2945995330810547
125,276331904.0,9.57590103149414,-2.1883668899536133,1.6891603469848633,-0.05006885528564453,0.026632308959960938,0.0063915252685546875,0.5702075958251953,-0.18346691131591797,-0.7446117401123047,-0.2945995330810547
126,276331936.0,9.523226737976074,-2.160832405090332,1.6664142608642578,-0.04474163055419922,0.024501800537109375,0.011717796325683594,0.5702075958251953,-0.18346691131591797,-0.7446117401123047,-0.2945995330810547
127,276331936.0,9.444215774536133,-2.1512556076049805,1.674795150756836,-0.04474163055419922,0.024501800537109375,0.011717796325683594,0.5702075958251953,-0.18346691131591797,-0.7446117401123047,-0.2945995330810547
128,276331968.0,9.460975646972656,-2.124917984008789,1.7430315017700195,-0.04474163055419922,0.024501800537109375,0.011717796325683594,0.5702075958251953,-0.18346691131591797,-0.7446117401123047,-0.2945995330810547
129,276331968.0,9.460975646972656,-2.124917984008789,1.7430315017700195,-0.04474163055419922,0.024501800537109375,0.011717796325683594,0.5702075958251953,-0.18346691131591797,-0.7446117401123047,-0.2945995330810547
130,276332000.0,9.517241477966309,-1.9345731735229492,1.7178916931152344,-0.04474163055419922,0.024501800537109375,0.011717796325683594,0.5702075958251953,-0.18346691131591797,-0.7446117401123047,-0.2945995330810547
131,276332000.0,9.435835838317871,-1.9824590682983398,1.7095117568969727,-0.04474163055419922,0.024501800537109375,0.011717796325683594,0.5702075958251953,-0.18346691131591797,-0.7446117401123047,-0.2945995330810547
132,276332000.0,9.517241477966309,-1.9345731735229492,1.7178916931152344,-0.04474163055419922,0.024501800537109375,0.011717796325683594,0.5702075958251953,-0.18346691131591797,-0.7446117401123047,-0.2945995330810547
133,276332000.0,9.435835838317871,-1.9824590682983398,1.7095117568969727,-0.04474163055419922,0.024501800537109375,0.011717796325683594,0.5702075958251953,-0.18346691131591797,-0.7446117401123047,-0.2945995330810547
134,276332032.0,9.42745590209961,-2.0758352279663086,1.726271629333496,-0.04474163055419922,0.024501800537109375,0.011717796325683594,0.5702075958251953,-0.18346691131591797,-0.7446117401123047,-0.2945995330810547
135,276332032.0,9.42745590209961,-2.0758352279663086,1.726271629333496,-0.04474163055419922,0.024501800537109375,0.011717796325683594,0.5702075958251953,-0.18346691131591797,-0.7446117401123047,-0.2945995330810547
136,276332064.0,9.432244300842285,-2.2721662521362305,1.7107086181640625,-0.04474163055419922,0.024501800537109375,0.011717796325683594,0.5702075958251953,-0.18346691131591797,-0.7446117401123047,-0.2945995330810547
137,276332064.0,9.432244300842285,-2.2721662521362305,1.7107086181640625,-0.04474163055419922,0.024501800537109375,0.011717796325683594,0.5702075958251953,-0.18346691131591797,-0.7446117401123047,-0.2945995330810547
138,276332064.0,9.483721733093262,-2.1560440063476562,1.668808937072754,-0.04474163055419922,0.024501800537109375,0.011717796325683594,0.5702075958251953,-0.18346691131591797,-0.7446117401123047,-0.2945995330810547
139,276332096.0,9.511256217956543,-2.0854129791259766,1.6783857345581055,-0.04474163055419922,0.024501800537109375,0.011717796325683594,0.5702075958251953,-0.18346691131591797,-0.7446117401123047,-0.2945995330810547
140,276332096.0,9.410696029663086,-2.066258430480957,1.7119054794311523,-0.04474163055419922,0.024501800537109375,0.011717796325683594,0.5702075958251953,-0.18346691131591797,-0.7446117401123047,-0.2945995330810547
141,276332128.0,9.472947120666504,-2.065061569213867,1.7849311828613281,-0.04474163055419922,0.024501800537109375,0.011717796325683594,0.5702075958251953,-0.18346691131591797,-0.7446117401123047,-0.2945995330810547
142,276332160.0,9.568717956542969,-2.0554847717285156,1.7382431030273438,0.030893325805664062,0.007456779479980469,-0.023435592651367188,0.5702075958251953,-0.18346691131591797,-0.7446117401123047,-0.2945995330810547
143,276332160.0,9.439427375793457,-2.0854129791259766,1.7669744491577148,0.030893325805664062,0.007456779479980469,-0.023435592651367188,0.5702075958251953,-0.18346691131591797,-0.7446117401123047,-0.2945995330810547
144,276332192.0,9.391542434692383,-2.134495735168457,1.7825374603271484,0.0,0.0021305084228515625,-0.0287628173828125,0.5702075958251953,-0.18346691131591797,-0.7446117401123047,-0.2945995330810547
145,276332224.0,9.398724555969238,-2.200338363647461,1.8100709915161133,0.009587287902832031,0.0170440673828125,0.0031957626342773438,0.5702075958251953,-0.18346691131591797,-0.7446117401123047,-0.2945995330810547
146,276332224.0,9.431047439575195,-2.066258430480957,1.7921142578125,0.009587287902832031,0.0170440673828125,0.0031957626342773438,0.5702075958251953,-0.18346691131591797,-0.7446117401123047,-0.2945995330810547
147,276332256.0,9.432244300842285,-2.066258430480957,1.7442283630371094,-0.03621959686279297,0.01810932159423828,0.007456779479980469,0.5702075958251953,-0.18346691131591797,-0.7446117401123047,-0.2945995330810547
148,276332256.0,9.47414493560791,-2.139284133911133,1.7166948318481445,-0.03621959686279297,0.01810932159423828,0.007456779479980469,0.5702075958251953,-0.18346691131591797,-0.7446117401123047,-0.2945995330810547
149,276332288.0,9.47414493560791,-2.2637863159179688,1.733454704284668,0.025567054748535156,0.0170440673828125,-0.0021305084228515625,0.5702075958251953,-0.18346691131591797,-0.7446117401123047,-0.2945995330810547
150,276332320.0,9.481327056884766,-2.1416778564453125,1.763382911682129,0.03941535949707031,0.010652542114257812,0.0031957626342773438,0.5702075958251953,-0.18346691131591797,-0.7446117401123047,-0.2945995330810547
151,276332320.0,9.514846801757812,-2.038724899291992,1.7573966979980469,0.03941535949707031,0.010652542114257812,0.0031957626342773438,0.5702075958251953,-0.18346691131591797,-0.7446117401123047,-0.2945995330810547
152,276332352.0,9.465764999389648,-2.0830183029174805,1.7382431030273438,-0.07670116424560547,0.02982807159423828,0.012783050537109375,0.5702075958251953,-0.18346691131591797,-0.7446117401123047,-0.2945995330810547
153,276332352.0,9.338868141174316,-2.1763954162597656,1.7394399642944336,-0.07670116424560547,0.02982807159423828,0.012783050537109375,0.5702075958251953,-0.18346691131591797,-0.7446117401123047,-0.2945995330810547
154,276332352.0,9.338868141174316,-2.1763954162597656,1.7394399642944336,-0.07670116424560547,0.02982807159423828,0.012783050537109375,0.5702075958251953,-0.18346691131591797,-0.7446117401123047,-0.2945995330810547
155,276332384.0,9.441822052001953,-2.2458295822143555,1.7286663055419922,-0.023435592651367188,0.005326271057128906,0.02769756317138672,0.5702075958251953,-0.18346691131591797,-0.7446117401123047,-0.2945995330810547
156,276332384.0,9.441822052001953,-2.2458295822143555,1.7286663055419922,-0.023435592651367188,0.005326271057128906,0.02769756317138672,0.5702075958251953,-0.18346691131591797,-0.7446117401123047,-0.2945995330810547
157,276332416.0,9.480130195617676,-2.15364933013916,1.7358484268188477,-0.0021305084228515625,0.010652542114257812,0.03621959686279297,0.5702075958251953,-0.18346691131591797,-0.7446117401123047,-0.2945995330810547
158,276332416.0,9.419075965881348,-2.1129465103149414,1.737046241760254,-0.0021305084228515625,0.010652542114257812,0.03621959686279297,0.5702075958251953,-0.18346691131591797,-0.7446117401123047,-0.2945995330810547
159,276332416.0,9.480130195617676,-2.15364933013916,1.7358484268188477,-0.0021305084228515625,0.010652542114257812,0.03621959686279297,0.5702075958251953,-0.18346691131591797,-0.7446117401123047,-0.2945995330810547
160,276332416.0,9.419075965881348,-2.1129465103149414,1.737046241760254,-0.0021305084228515625,0.010652542114257812,0.03621959686279297,0.5702075958251953,-0.18346691131591797,-0.7446117401123047,-0.2945995330810547
161,276332448.0,9.347248077392578,-2.1141443252563477,1.7442283630371094,-0.01597881317138672,0.0031957626342773438,0.023435592651367188,0.5702075958251953,-0.18346691131591797,-0.7446117401123047,-0.2945995330810547
162,276332448.0,9.347248077392578,-2.1141443252563477,1.7442283630371094,-0.01597881317138672,0.0031957626342773438,0.023435592651367188,0.5702075958251953,-0.18346691131591797,-0.7446117401123047,-0.2945995330810547
163,276332480.0,9.387950897216797,-2.1081581115722656,1.7765512466430664,-0.0287628173828125,0.0010652542114257812,0.019174575805664062,0.5702075958251953,-0.18346691131591797,-0.7446117401123047,-0.2945995330810547
164,276332480.0,9.47414493560791,-2.1105527877807617,1.729863166809082,-0.0287628173828125,0.0010652542114257812,0.019174575805664062,0.5702075958251953,-0.18346691131591797,-0.7446117401123047,-0.2945995330810547
165,276332480.0,9.387950897216797,-2.1081581115722656,1.7765512466430664,-0.0287628173828125,0.0010652542114257812,0.019174575805664062,0.5702075958251953,-0.18346691131591797,-0.7446117401123047,-0.2945995330810547
166,276332480.0,9.47414493560791,-2.1105527877807617,1.729863166809082,-0.0287628173828125,0.0010652542114257812,0.019174575805664062,0.5702075958251953,-0.18346691131591797,-0.7446117401123047,-0.2945995330810547
167,276332512.0,9.49569320678711,-2.1668176651000977,1.7442283630371094,-0.07776641845703125,0.00852203369140625,0.022370338439941406,0.5702075958251953,-0.18346691131591797,-0.7446117401123047,-0.2945995330810547
168,276332512.0,9.451398849487305,-2.2362518310546875,1.7741575241088867,-0.07776641845703125,0.00852203369140625,0.022370338439941406,0.5702075958251953,-0.18346691131591797,-0.7446117401123047,-0.2945995330810547
169,276332512.0,9.49569320678711,-2.1668176651000977,1.7442283630371094,-0.07776641845703125,0.00852203369140625,0.022370338439941406,0.5702075958251953,-0.18346691131591797,-0.7446117401123047,-0.2945995330810547
170,276332512.0,9.451398849487305,-2.2362518310546875,1.7741575241088867,-0.07776641845703125,0.00852203369140625,0.022370338439941406,0.5702075958251953,-0.18346691131591797,-0.7446117401123047,-0.2945995330810547
171,276332544.0,9.440624237060547,-2.284137725830078,1.7765512466430664,-0.05646038055419922,0.0010652542114257812,0.019174575805664062,0.5702075958251953,-0.18346691131591797,-0.7446117401123047,-0.2945995330810547
172,276332544.0,9.440624237060547,-2.284137725830078,1.7765512466430664,-0.05646038055419922,0.0010652542114257812,0.019174575805664062,0.5702075958251953,-0.18346691131591797,-0.7446117401123047,-0.2945995330810547
173,276332672.0,9.460975646972656,-2.2745609283447266,1.7825374603271484,-0.05859088897705078,0.007456779479980469,-0.005326271057128906,0.5702075958251953,-0.18346691131591797,-0.7446117401123047,-0.2945995330810547
174,276332672.0,9.445413589477539,-2.3356142044067383,1.7992973327636719,-0.05859088897705078,0.007456779479980469,-0.005326271057128906,0.5702075958251953,-0.18346691131591797,-0.7446117401123047,-0.2945995330810547
175,276332672.0,9.460975646972656,-2.2745609283447266,1.7825374603271484,-0.05859088897705078,0.007456779479980469,-0.005326271057128906,0.5702075958251953,-0.18346691131591797,-0.7446117401123047,-0.2945995330810547
176,276332672.0,9.445413589477539,-2.3356142044067383,1.7992973327636719,-0.05859088897705078,0.007456779479980469,-0.005326271057128906,0.5702075958251953,-0.18346691131591797,-0.7446117401123047,-0.2945995330810547
177,276332704.0,9.410696029663086,-2.409836769104004,1.8040857315063477,-0.031958580017089844,0.013848304748535156,-0.007456779479980469,0.5702075958251953,-0.18346691131591797,-0.7446117401123047,-0.2945995330810547
178,276332704.0,9.410696029663086,-2.409836769104004,1.8040857315063477,-0.031958580017089844,0.013848304748535156,-0.007456779479980469,0.5702075958251953,-0.18346691131591797,-0.7446117401123047,-0.2945995330810547
179,276332736.0,9.414287567138672,-2.378711700439453,1.752608299255371,-0.03728485107421875,0.00852203369140625,-0.0010652542114257812,0.5702075958251953,-0.18346691131591797,-0.7446117401123047,-0.2945995330810547
180,276332736.0,9.408302307128906,-2.353571891784668,1.7358484268188477,-0.03728485107421875,0.00852203369140625,-0.0010652542114257812,0.5702075958251953,-0.18346691131591797,-0.7446117401123047,-0.2945995330810547
181,276332736.0,9.414287567138672,-2.378711700439453,1.752608299255371,-0.03728485107421875,0.00852203369140625,-0.0010652542114257812,0.5702075958251953,-0.18346691131591797,-0.7446117401123047,-0.2945995330810547
182,276332736.0,9.408302307128906,-2.353571891784668,1.7358484268188477,-0.03728485107421875,0.00852203369140625,-0.0010652542114257812,0.5702075958251953,-0.18346691131591797,-0.7446117401123047,-0.2945995330810547
183,276332768.0,9.42506217956543,-2.4361743927001953,1.7406368255615234,-0.052199363708496094,0.0170440673828125,0.020239830017089844,0.5702075958251953,-0.18346691131591797,-0.7446117401123047,-0.2945995330810547
184,276332800.0,9.320911407470703,-2.444554328918457,1.7585945129394531,-0.019174575805664062,0.014913558959960938,0.031958580017089844,0.5702075958251953,-0.18346691131591797,-0.7446117401123047,-0.2945995330810547
185,276332800.0,9.28619384765625,-2.4122314453125,1.7609882354736328,-0.019174575805664062,0.014913558959960938,0.031958580017089844,0.5702075958251953,-0.18346691131591797,-0.7446117401123047,-0.2945995330810547
186,276332832.0,9.381964683532715,-2.3092775344848633,1.7286663055419922,-0.023435592651367188,0.0031957626342773438,0.03941535949707031,0.5702075958251953,-0.18346691131591797,-0.7446117401123047,-0.2945995330810547
187,276332832.0,9.444215774536133,-2.2829408645629883,1.6963434219360352,-0.023435592651367188,0.0031957626342773438,0.03941535949707031,0.5702075958251953,-0.18346691131591797,-0.7446117401123047,-0.2945995330810547
188,276332960.0,9.40471076965332,-2.219491958618164,1.7681713104248047,0.019174575805664062,-0.004261016845703125,0.045806884765625,0.5702075958251953,-0.18346691131591797,-0.7446117401123047,-0.2945995330810547
189,276332960.0,9.40471076965332,-2.219491958618164,1.7681713104248047,0.019174575805664062,-0.004261016845703125,0.045806884765625,0.5702075958251953,-0.18346691131591797,-0.7446117401123047,-0.2945995330810547
190,276332992.0,9.47653865814209,-2.2206897735595703,1.733454704284668,0.022370338439941406,-0.0031957626342773438,0.033023834228515625,0.5702075958251953,-0.18346691131591797,-0.7446117401123047,-0.2945995330810547
191,276332992.0,9.462173461914062,-2.1799869537353516,1.8160572052001953,0.022370338439941406,-0.0031957626342773438,0.033023834228515625,0.5702075958251953,-0.18346691131591797,-0.7446117401123047,-0.2945995330810547
192,276332992.0,9.47653865814209,-2.2206897735595703,1.733454704284668,0.022370338439941406,-0.0031957626342773438,0.033023834228515625,0.5702075958251953,-0.18346691131591797,-0.7446117401123047,-0.2945995330810547
193,276332992.0,9.462173461914062,-2.1799869537353516,1.8160572052001953,0.022370338439941406,-0.0031957626342773438,0.033023834228515625,0.5702075958251953,-0.18346691131591797,-0.7446117401123047,-0.2945995330810547
194,276333024.0,9.429850578308105,-2.196746826171875,1.8340139389038086,0.024501800537109375,-0.009587287902832031,-0.0010652542114257812,0.5702075958251953,-0.18346691131591797,-0.7446117401123047,-0.2945995330810547
195,276333024.0,9.429850578308105,-2.196746826171875,1.8340139389038086,0.024501800537109375,-0.009587287902832031,-0.0010652542114257812,0.5702075958251953,-0.18346691131591797,-0.7446117401123047,-0.2945995330810547
196,276333056.0,9.469355583190918,-2.1847753524780273,1.820845603942871,0.010652542114257812,-0.0031957626342773438,-0.010652542114257812,0.5702075958251953,-0.18346691131591797,-0.7446117401123047,-0.2945995330810547
197,276333056.0,9.469355583190918,-2.1847753524780273,1.820845603942871,0.010652542114257812,-0.0031957626342773438,-0.010652542114257812,0.5702075958251953,-0.18346691131591797,-0.7446117401123047,-0.2945995330810547
198,276333280.0,9.4071044921875,-2.278151512145996,1.786128044128418,0.03515434265136719,0.0,0.0,0.5670576095581055,-0.18795490264892578,-0.7441797256469727,-0.2988719940185547
199,276333280.0,9.419075965881348,-2.3236427307128906,1.8016910552978516,0.03515434265136719,0.0,0.0,0.5670576095581055,-0.18795490264892578,-0.7441797256469727,-0.2988719940185547
200,276333312.0,9.429850578308105,-2.3236427307128906,1.7789459228515625,0.03515434265136719,0.0,0.0,0.5668849945068359,-0.18834400177001953,-0.7443094253540039,-0.2986135482788086
201,276333312.0,9.330488204956055,-2.2829408645629883,1.7717628479003906,0.03515434265136719,0.0,0.0,0.5668849945068359,-0.18834400177001953,-0.7443094253540039,-0.2986135482788086
202,276333344.0,9.302953720092773,-2.3044891357421875,1.820845603942871,0.00852203369140625,0.0021305084228515625,-0.011717796325683594,0.5668411254882812,-0.18834400177001953,-0.7443962097167969,-0.2985696792602539
203,276333472.0,9.458581924438477,-2.280546188354492,1.7765512466430664,-0.0010652542114257812,0.0031957626342773438,-0.0063915252685546875,0.5665826797485352,-0.1886892318725586,-0.7444820404052734,-0.29848384857177734
204,276333472.0,9.402316093444824,-2.318854331970215,1.789719581604004,-0.0010652542114257812,0.0031957626342773438,-0.0063915252685546875,0.5665826797485352,-0.1886892318725586,-0.7444820404052734,-0.29848384857177734
205,276333472.0,9.458581924438477,-2.280546188354492,1.7765512466430664,-0.0010652542114257812,0.0031957626342773438,-0.0063915252685546875,0.5665826797485352,-0.1886892318725586,-0.7444820404052734,-0.29848384857177734
206,276333472.0,9.402316093444824,-2.318854331970215,1.789719581604004,-0.0010652542114257812,0.0031957626342773438,-0.0063915252685546875,0.5665826797485352,-0.1886892318725586,-0.7444820404052734,-0.29848384857177734
207,276333504.0,9.33527660369873,-2.3655433654785156,1.788522720336914,-0.0010652542114257812,0.0031957626342773438,-0.0063915252685546875,0.5665826797485352,-0.1886892318725586,-0.7444820404052734,-0.29848384857177734
208,276333504.0,9.33527660369873,-2.3655433654785156,1.788522720336914,-0.0010652542114257812,0.0031957626342773438,-0.0063915252685546875,0.5665826797485352,-0.1886892318725586,-0.7444820404052734,-0.29848384857177734
209,276333536.0,9.378373146057129,-2.278151512145996,1.8136625289916992,-0.0010652542114257812,0.0031957626342773438,-0.0063915252685546875,0.5665826797485352,-0.1886892318725586,-0.7444820404052734,-0.29848384857177734
210,276333536.0,9.450201988220215,-2.2410402297973633,1.8232393264770508,-0.0010652542114257812,0.0031957626342773438,-0.0063915252685546875,0.5665826797485352,-0.1886892318725586,-0.7444820404052734,-0.29848384857177734
211,276333536.0,9.378373146057129,-2.278151512145996,1.8136625289916992,-0.0010652542114257812,0.0031957626342773438,-0.0063915252685546875,0.5665826797485352,-0.1886892318725586,-0.7444820404052734,-0.29848384857177734
212,276333536.0,9.450201988220215,-2.2410402297973633,1.8232393264770508,-0.0010652542114257812,0.0031957626342773438,-0.0063915252685546875,0.5665826797485352,-0.1886892318725586,-0.7444820404052734,-0.29848384857177734
213,276333664.0,9.458581924438477,-2.3320226669311523,1.788522720336914,0.021305084228515625,0.0031957626342773438,-0.005326271057128906,0.5667552947998047,-0.1889047622680664,-0.7444391250610352,-0.2981386184692383
214,276333696.0,9.444215774536133,-2.3595571517944336,1.8160572052001953,0.021305084228515625,0.0031957626342773438,-0.005326271057128906,0.5667552947998047,-0.1889047622680664,-0.7444391250610352,-0.2981386184692383
215,276333696.0,9.435835838317871,-2.285334587097168,1.8064794540405273,0.021305084228515625,0.0031957626342773438,-0.005326271057128906,0.5667552947998047,-0.1889047622680664,-0.7444391250610352,-0.2981386184692383
216,276333728.0,9.45618724822998,-2.2649831771850586,1.8016910552978516,0.021305084228515625,0.0031957626342773438,-0.005326271057128906,0.5667552947998047,-0.1889047622680664,-0.7444391250610352,-0.2981386184692383
217,276333728.0,9.379570960998535,-2.285334587097168,1.8052825927734375,0.021305084228515625,0.0031957626342773438,-0.005326271057128906,0.5667552947998047,-0.1889047622680664,-0.7444391250610352,-0.2981386184692383
218,276333760.0,9.35562801361084,-2.3583602905273438,1.7849311828613281,0.021305084228515625,0.0031957626342773438,-0.005326271057128906,0.5667552947998047,-0.1889047622680664,-0.7444391250610352,-0.2981386184692383
219,276333792.0,9.408302307128906,-2.3296289443969727,1.8160572052001953,0.021305084228515625,0.0031957626342773438,-0.005326271057128906,0.5667552947998047,-0.1889047622680664,-0.7444391250610352,-0.2981386184692383
220,276333792.0,9.417879104614258,-2.2422380447387695,1.786128044128418,0.021305084228515625,0.0031957626342773438,-0.005326271057128906,0.5667552947998047,-0.1889047622680664,-0.7444391250610352,-0.2981386184692383
221,276333824.0,9.4071044921875,-2.2434349060058594,1.820845603942871,0.021305084228515625,0.0031957626342773438,-0.005326271057128906,0.5667552947998047,-0.1889047622680664,-0.7444391250610352,-0.2981386184692383
222,276333856.0,9.326896667480469,-2.2434349060058594,1.7933111190795898,-0.0010652542114257812,-0.005326271057128906,0.0170440673828125,0.5665397644042969,-0.18855953216552734,-0.7447843551635742,-0.29792308807373047
223,276333952.0,9.402316093444824,-2.189563751220703,1.7992973327636719,-0.0021305084228515625,0.0,-0.014913558959960938,0.5665826797485352,-0.18881797790527344,-0.7446975708007812,-0.29796600341796875
224,276333984.0,9.449005126953125,-2.1799869537353516,1.820845603942871,-0.0021305084228515625,0.0,-0.014913558959960938,0.5665826797485352,-0.18881797790527344,-0.7446975708007812,-0.29796600341796875
225,276334016.0,9.3855562210083,-2.1835784912109375,1.8124656677246094,-0.0021305084228515625,0.0,-0.014913558959960938,0.5665826797485352,-0.18881797790527344,-0.7446975708007812,-0.29796600341796875
226,276334016.0,9.362811088562012,-2.2326602935791016,1.7909173965454102,-0.0021305084228515625,0.0,-0.014913558959960938,0.5665826797485352,-0.18881797790527344,-0.7446975708007812,-0.29796600341796875
227,276334048.0,9.408302307128906,-2.2434349060058594,1.7933111190795898,0.0031957626342773438,-0.009587287902832031,-0.011717796325683594,0.5665826797485352,-0.18881797790527344,-0.7446975708007812,-0.29796600341796875
228,276334048.0,9.468158721923828,-2.2063236236572266,1.7921142578125,0.0031957626342773438,-0.009587287902832031,-0.011717796325683594,0.5665826797485352,-0.18881797790527344,-0.7446975708007812,-0.29796600341796875
229,276334080.0,9.441822052001953,-2.175198554992676,1.7801427841186523,-0.0031957626342773438,-0.007456779479980469,-0.0170440673828125,0.5665826797485352,-0.18881797790527344,-0.7446975708007812,-0.29796600341796875
230,276334112.0,9.410696029663086,-2.218295097351074,1.8076772689819336,-0.0021305084228515625,-0.007456779479980469,-0.020239830017089844,0.5665826797485352,-0.18881797790527344,-0.7446975708007812,-0.29796600341796875
231,276334112.0,9.468158721923828,-2.1524524688720703,1.8076772689819336,-0.0021305084228515625,-0.007456779479980469,-0.020239830017089844,0.5665826797485352,-0.18881797790527344,-0.7446975708007812,-0.29796600341796875
232,276334144.0,9.422667503356934,-2.1692123413085938,1.8064794540405273,-0.007456779479980469,-0.005326271057128906,-0.022370338439941406,0.5665826797485352,-0.18881797790527344,-0.7446975708007812,-0.29796600341796875
233,276334176.0,9.368796348571777,-2.2075204849243164,1.8088741302490234,-0.007456779479980469,-0.005326271057128906,-0.022370338439941406,0.5665826797485352,-0.18881797790527344,-0.7446975708007812,-0.29796600341796875
234,276334176.0,9.395133018493652,-2.248223304748535,1.7992973327636719,-0.007456779479980469,-0.005326271057128906,-0.022370338439941406,0.5665826797485352,-0.18881797790527344,-0.7446975708007812,-0.29796600341796875
235,276334176.0,9.368796348571777,-2.2075204849243164,1.8088741302490234,-0.007456779479980469,-0.005326271057128906,-0.022370338439941406,0.5665826797485352,-0.18881797790527344,-0.7446975708007812,-0.29796600341796875
236,276334176.0,9.395133018493652,-2.248223304748535,1.7992973327636719,-0.007456779479980469,-0.005326271057128906,-0.022370338439941406,0.5665826797485352,-0.18881797790527344,-0.7446975708007812,-0.29796600341796875
237,276334208.0,9.434638977050781,-2.2135066986083984,1.8124656677246094,-0.007456779479980469,-0.005326271057128906,-0.022370338439941406,0.5665826797485352,-0.18881797790527344,-0.7446975708007812,-0.29796600341796875
238,276334208.0,9.465764999389648,-2.135692596435547,1.8292255401611328,-0.007456779479980469,-0.005326271057128906,-0.022370338439941406,0.5665826797485352,-0.18881797790527344,-0.7446975708007812,-0.29796600341796875
239,276334208.0,9.434638977050781,-2.2135066986083984,1.8124656677246094,-0.007456779479980469,-0.005326271057128906,-0.022370338439941406,0.5665826797485352,-0.18881797790527344,-0.7446975708007812,-0.29796600341796875
240,276334208.0,9.465764999389648,-2.135692596435547,1.8292255401611328,-0.007456779479980469,-0.005326271057128906,-0.022370338439941406,0.5665826797485352,-0.18881797790527344,-0.7446975708007812,-0.29796600341796875
241,276334240.0,9.378373146057129,-2.2063236236572266,1.8040857315063477,-0.034089088439941406,0.0010652542114257812,-0.019174575805664062,0.5665826797485352,-0.18881797790527344,-0.7446975708007812,-0.29796600341796875
242,276334240.0,9.378373146057129,-2.2063236236572266,1.8040857315063477,-0.034089088439941406,0.0010652542114257812,-0.019174575805664062,0.5665826797485352,-0.18881797790527344,-0.7446975708007812,-0.29796600341796875
243,276334368.0,9.512453079223633,-2.249420166015625,1.8076772689819336,-0.004261016845703125,0.0170440673828125,-0.009587287902832031,0.5665826797485352,-0.18881797790527344,-0.7446975708007812,-0.29796600341796875
244,276334368.0,9.378373146057129,-2.124917984008789,1.7933111190795898,-0.004261016845703125,0.0170440673828125,-0.009587287902832031,0.5665826797485352,-0.18881797790527344,-0.7446975708007812,-0.29796600341796875
245,276334400.0,9.417879104614258,-2.219491958618164,1.857956886291504,-0.09907245635986328,-0.009587287902832031,0.0010652542114257812,0.5665826797485352,-0.18881797790527344,-0.7446975708007812,-0.29796600341796875
246,276334432.0,9.672869682312012,-2.0794267654418945,2.1045665740966797,-0.2428874969482422,0.014913558959960938,0.052199363708496094,0.5665826797485352,-0.18881797790527344,-0.7446975708007812,-0.29796600341796875
247,276334432.0,9.820116996765137,-1.4581127166748047,2.2434349060058594,-0.2428874969482422,0.014913558959960938,0.052199363708496094,0.5665826797485352,-0.18881797790527344,-0.7446975708007812,-0.29796600341796875
248,276334464.0,9.81652545928955,-1.697540283203125,2.5127906799316406,-1.3028573989868164,0.19388389587402344,0.3568744659423828,0.5665826797485352,-0.18881797790527344,-0.7446975708007812,-0.29796600341796875
249,276334496.0,10.142147064208984,-2.5187768936157227,2.700741767883301,-2.0996999740600586,0.7350540161132812,0.9971170425415039,0.5665826797485352,-0.18881797790527344,-0.7446975708007812,-0.29796600341796875
250,276334496.0,11.083097457885742,-3.184385299682617,2.697150230407715,-2.0996999740600586,0.7350540161132812,0.9971170425415039,0.5665826797485352,-0.18881797790527344,-0.7446975708007812,-0.29796600341796875
251,276334528.0,11.001691818237305,-5.172829627990723,3.4441633224487305,-2.446986198425293,1.1963281631469727,1.5382881164550781,0.5665826797485352,-0.18881797790527344,-0.7446975708007812,-0.29796600341796875
252,276334528.0,11.060351371765137,-6.80452823638916,3.6656341552734375,-2.446986198425293,1.1963281631469727,1.5382881164550781,0.5665826797485352,-0.18881797790527344,-0.7446975708007812,-0.29796600341796875
253,276334560.0,11.759479522705078,-6.884736061096191,3.6069746017456055,-3.04781436920166,1.6661243438720703,2.7910776138305664,0.5665826797485352,-0.18881797790527344,-0.7446975708007812,-0.29796600341796875
254,276334592.0,12.550787925720215,-9.141340255737305,4.058295249938965,-2.8549957275390625,2.0038232803344727,3.4281253814697266,0.5665826797485352,-0.18881797790527344,-0.7446975708007812,-0.29796600341796875
255,276334592.0,13.17808723449707,-10.9573974609375,4.016395568847656,-2.8549957275390625,2.0038232803344727,3.4281253814697266,0.5665826797485352,-0.18881797790527344,-0.7446975708007812,-0.29796600341796875
256,276334624.0,11.721171379089355,-12.203618049621582,4.297722816467285,-2.2871923446655273,2.432072639465332,4.286754608154297,0.5665826797485352,-0.18881797790527344,-0.7446975708007812,-0.29796600341796875
257,276334656.0,10.806558609008789,-13.787430763244629,4.316876411437988,-2.2871923446655273,2.432072639465332,4.286754608154297,0.5665826797485352,-0.18881797790527344,-0.7446975708007812,-0.29796600341796875
258,276334656.0,10.07510757446289,-13.855667114257812,3.736265182495117,-2.2871923446655273,2.432072639465332,4.286754608154297,0.5665826797485352,-0.18881797790527344,-0.7446975708007812,-0.29796600341796875
259,276334656.0,10.07510757446289,-13.855667114257812,3.736265182495117,-2.2871923446655273,2.432072639465332,4.286754608154297,0.5665826797485352,-0.18881797790527344,-0.7446975708007812,-0.29796600341796875
260,276334688.0,8.010046005249023,-11.919896125793457,2.964111328125,-2.2871923446655273,2.432072639465332,4.286754608154297,0.5665826797485352,-0.18881797790527344,-0.7446975708007812,-0.29796600341796875
261,276334688.0,7.060715675354004,-15.153364181518555,1.4186077117919922,-2.2871923446655273,2.432072639465332,4.286754608154297,0.5665826797485352,-0.18881797790527344,-0.7446975708007812,-0.29796600341796875
262,276334688.0,8.010046005249023,-11.919896125793457,2.964111328125,-2.2871923446655273,2.432072639465332,4.286754608154297,0.5665826797485352,-0.18881797790527344,-0.7446975708007812,-0.29796600341796875
263,276334688.0,7.060715675354004,-15.153364181518555,1.4186077117919922,-2.2871923446655273,2.432072639465332,4.286754608154297,0.5665826797485352,-0.18881797790527344,-0.7446975708007812,-0.29796600341796875
264,276334720.0,7.441405296325684,-15.34969425201416,-0.38787174224853516,-2.2871923446655273,2.432072639465332,4.286754608154297,0.5665826797485352,-0.18881797790527344,-0.7446975708007812,-0.29796600341796875
265,276334720.0,7.441405296325684,-15.34969425201416,-0.38787174224853516,-2.2871923446655273,2.432072639465332,4.286754608154297,0.5665826797485352,-0.18881797790527344,-0.7446975708007812,-0.29796600341796875
266,276334752.0,5.737878799438477,-12.452622413635254,-1.4617042541503906,1.832310676574707,-0.7563600540161133,5.663118362426758,0.5665826797485352,-0.18881797790527344,-0.7446975708007812,-0.29796600341796875
267,276334752.0,5.737878799438477,-12.452622413635254,-1.4617042541503906,1.832310676574707,-0.7563600540161133,5.663118362426758,0.5665826797485352,-0.18881797790527344,-0.7446975708007812,-0.29796600341796875
268,276334752.0,3.784151077270508,-10.352843284606934,-1.9537277221679688,1.832310676574707,-0.7563600540161133,5.663118362426758,0.5665826797485352,-0.18881797790527344,-0.7446975708007812,-0.29796600341796875
269,276334784.0,2.60257625579834,-11.078309059143066,-1.2737541198730469,1.2410707473754883,-0.8021678924560547,6.038102149963379,0.5665826797485352,-0.18881797790527344,-0.7446975708007812,-0.29796600341796875
270,276334784.0,2.4277944564819336,-9.532804489135742,-2.3416004180908203,1.2410707473754883,-0.8021678924560547,6.038102149963379,0.5665826797485352,-0.18881797790527344,-0.7446975708007812,-0.29796600341796875
271,276334816.0,1.1516456604003906,-8.06750774383545,-2.3056859970092773,1.3135108947753906,-0.33130645751953125,6.1787214279174805,0.5665826797485352,-0.18881797790527344,-0.7446975708007812,-0.29796600341796875
272,276334848.0,0.7853212356567383,-6.68361759185791,-1.3156538009643555,1.0961904525756836,-0.35367774963378906,6.141436576843262,0.5665826797485352,-0.18881797790527344,-0.7446975708007812,-0.29796600341796875
273,276334848.0,0.98284912109375,-6.162862777709961,-1.2330513000488281,1.0961904525756836,-0.35367774963378906,6.141436576843262,0.5665826797485352,-0.18881797790527344,-0.7446975708007812,-0.29796600341796875
274,276334880.0,-0.022745132446289062,-5.1836042404174805,-1.3431873321533203,0.3632659912109375,-0.1320962905883789,5.875112533569336,0.5665826797485352,-0.18881797790527344,-0.7446975708007812,-0.29796600341796875
275,276334912.0,-0.6512422561645508,-5.871957778930664,-0.9253864288330078,-0.6125450134277344,-0.19814491271972656,5.2870683670043945,0.5665826797485352,-0.18881797790527344,-0.7446975708007812,-0.29796600341796875
276,276334912.0,-0.3866748809814453,-5.108184814453125,-1.0103836059570312,-0.6125450134277344,-0.19814491271972656,5.2870683670043945,0.5665826797485352,-0.18881797790527344,-0.7446975708007812,-0.29796600341796875
277,276334944.0,-1.169602394104004,-4.63411808013916,-1.2414312362670898,-0.6125450134277344,-0.19814491271972656,5.2870683670043945,0.5665826797485352,-0.18881797790527344,-0.7446975708007812,-0.29796600341796875
278,276335072.0,-4.094209671020508,-5.619361877441406,-5.200364112854004,-5.591743469238281,-5.929442405700684,1.6107282638549805,0.5665826797485352,-0.18881797790527344,-0.7446975708007812,-0.29796600341796875
279,276335072.0,-0.15682411193847656,-5.230292320251465,-0.7015218734741211,-5.591743469238281,-5.929442405700684,1.6107282638549805,0.5665826797485352,-0.18881797790527344,-0.7446975708007812,-0.29796600341796875
280,276335104.0,2.7749643325805664,-2.8001041412353516,4.338425636291504,-3.5016307830810547,-8.527701377868652,-0.6157407760620117,0.5665826797485352,-0.18881797790527344,-0.7446975708007812,-0.29796600341796875
281,276335104.0,29.957164764404297,-20.09275245666504,21.86212158203125,-3.5016307830810547,-8.527701377868652,-0.6157407760620117,0.5665826797485352,-0.18881797790527344,-0.7446975708007812,-0.29796600341796875
282,276335136.0,-31.081275939941406,16.58873176574707,32.42326736450195,1.3518610000610352,-0.5156030654907227,0.20560169219970703,0.5665826797485352,-0.18881797790527344,-0.7446975708007812,-0.29796600341796875
283,276335168.0,-4.441379547119141,-8.883955955505371,1.789719581604004,-2.372415542602539,-2.0996999740600586,-0.9981822967529297,0.5665826797485352,-0.18881797790527344,-0.7446975708007812,-0.29796600341796875
284,276335168.0,0.12330436706542969,-14.092700004577637,-2.2937145233154297,-2.372415542602539,-2.0996999740600586,-0.9981822967529297,0.5665826797485352,-0.18881797790527344,-0.7446975708007812,-0.29796600341796875
285,276335168.0,-4.441379547119141,-8.883955955505371,1.789719581604004,-2.372415542602539,-2.0996999740600586,-0.9981822967529297,0.5665826797485352,-0.18881797790527344,-0.7446975708007812,-0.29796600341796875
286,276335168.0,0.12330436706542969,-14.092700004577637,-2.2937145233154297,-2.372415542602539,-2.0996999740600586,-0.9981822967529297,0.5665826797485352,-0.18881797790527344,-0.7446975708007812,-0.29796600341796875
287,276335200.0,-3.3890953063964844,-1.7490167617797852,11.114222526550293,0.2950868606567383,1.257049560546875,-0.20453643798828125,0.5665826797485352,-0.18881797790527344,-0.7446975708007812,-0.29796600341796875
288,276335200.0,-3.3890953063964844,-1.7490167617797852,11.114222526550293,0.2950868606567383,1.257049560546875,-0.20453643798828125,0.5665826797485352,-0.18881797790527344,-0.7446975708007812,-0.29796600341796875
289,276335232.0,-5.3691606521606445,-6.8512163162231445,9.156903266906738,1.2240257263183594,2.45444393157959,-0.17470836639404297,0.5665826797485352,-0.18881797790527344,-0.7446975708007812,-0.29796600341796875
290,276335232.0,-7.093038558959961,-6.0192060470581055,3.769784927368164,1.2240257263183594,2.45444393157959,-0.17470836639404297,0.5665826797485352,-0.18881797790527344,-0.7446975708007812,-0.29796600341796875
291,276335232.0,-5.3691606521606445,-6.8512163162231445,9.156903266906738,1.2240257263183594,2.45444393157959,-0.17470836639404297,0.5665826797485352,-0.18881797790527344,-0.7446975708007812,-0.29796600341796875
292,276335232.0,-7.093038558959961,-6.0192060470581055,3.769784927368164,1.2240257263183594,2.45444393157959,-0.17470836639404297,0.5665826797485352,-0.18881797790527344,-0.7446975708007812,-0.29796600341796875
293,276335264.0,-9.95419692993164,-5.292543411254883,-1.5981779098510742,0.5113420486450195,2.146573066711426,-0.12037849426269531,0.5665826797485352,-0.18881797790527344,-0.7446975708007812,-0.29796600341796875
294,276335264.0,-9.92546558380127,-3.8272476196289062,-3.4393749237060547,0.5113420486450195,2.146573066711426,-0.12037849426269531,0.5665826797485352,-0.18881797790527344,-0.7446975708007812,-0.29796600341796875
295,276335296.0,-12.020455360412598,-4.185192108154297,-8.583474159240723,-1.4211053848266602,1.4562606811523438,0.1438150405883789,0.5665826797485352,-0.18881797790527344,-0.7446975708007812,-0.29796600341796875
296,276335328.0,-14.992947578430176,-5.193181037902832,-13.287027359008789,-2.5439281463623047,-0.6295900344848633,0.6391773223876953,0.5665826797485352,-0.18881797790527344,-0.7446975708007812,-0.29796600341796875
297,276335328.0,-13.609057426452637,-4.746648788452148,-9.441822052001953,-2.5439281463623047,-0.6295900344848633,0.6391773223876953,0.5665826797485352,-0.18881797790527344,-0.7446975708007812,-0.29796600341796875
298,276335456.0,4.176812171936035,-7.488093376159668,4.9681196212768555,-0.052199363708496094,0.48151397705078125,-1.194197654724121,0.5665826797485352,-0.18881797790527344,-0.7446975708007812,-0.29796600341796875
299,276335456.0,4.176812171936035,-7.488093376159668,4.9681196212768555,-0.052199363708496094,0.48151397705078125,-1.194197654724121,0.5665826797485352,-0.18881797790527344,-0.7446975708007812,-0.29796600341796875
300,276335488.0,3.8511905670166016,-8.30693531036377,9.624983787536621,2.1337890625,2.05069637298584,-1.1675653457641602,0.5665826797485352,-0.18881797790527344,-0.7446975708007812,-0.29796600341796875
301,276335488.0,-1.8795051574707031,-4.39229679107666,10.549174308776855,2.1337890625,2.05069637298584,-1.1675653457641602,0.5665826797485352,-0.18881797790527344,-0.7446975708007812,-0.29796600341796875
302,276335488.0,3.8511905670166016,-8.30693531036377,9.624983787536621,2.1337890625,2.05069637298584,-1.1675653457641602,0.5665826797485352,-0.18881797790527344,-0.7446975708007812,-0.29796600341796875
303,276335488.0,-1.8795051574707031,-4.39229679107666,10.549174308776855,2.1337890625,2.05069637298584,-1.1675653457641602,0.5665826797485352,-0.18881797790527344,-0.7446975708007812,-0.29796600341796875
304,276335520.0,-1.234248161315918,-4.13491153717041,8.309329986572266,2.553516387939453,1.9271221160888672,-2.0890464782714844,0.5665826797485352,-0.18881797790527344,-0.7446975708007812,-0.29796600341796875
305,276335520.0,-1.234248161315918,-4.13491153717041,8.309329986572266,2.553516387939453,1.9271221160888672,-2.0890464782714844,0.5665826797485352,-0.18881797790527344,-0.7446975708007812,-0.29796600341796875
306,276335552.0,-0.8236303329467773,-4.416238784790039,5.651684761047363,2.553516387939453,1.9271221160888672,-2.0890464782714844,0.5665826797485352,-0.18881797790527344,-0.7446975708007812,-0.29796600341796875
307,276335552.0,-0.8236303329467773,-4.416238784790039,5.651684761047363,2.553516387939453,1.9271221160888672,-2.0890464782714844,0.5665826797485352,-0.18881797790527344,-0.7446975708007812,-0.29796600341796875
308,276335552.0,-2.565464973449707,-3.6069746017456055,3.3184642791748047,2.553516387939453,1.9271221160888672,-2.0890464782714844,0.5665826797485352,-0.18881797790527344,-0.7446975708007812,-0.29796600341796875
309,276335584.0,-3.062276840209961,-2.725881576538086,1.8818998336791992,2.553516387939453,1.9271221160888672,-2.0890464782714844,0.5665826797485352,-0.18881797790527344,-0.7446975708007812,-0.29796600341796875
310,276335584.0,-2.17160701751709,-2.565464973449707,2.068653106689453,2.553516387939453,1.9271221160888672,-2.0890464782714844,0.5665826797485352,-0.18881797790527344,-0.7446975708007812,-0.29796600341796875
311,276335616.0,-0.8667268753051758,-3.9146385192871094,1.4353675842285156,2.553516387939453,1.9271221160888672,-2.0890464782714844,0.5665826797485352,-0.18881797790527344,-0.7446975708007812,-0.29796600341796875
312,276335648.0,-0.2885093688964844,-4.079843521118164,0.6919450759887695,1.8248529434204102,-0.2013406753540039,-5.3829450607299805,0.5665826797485352,-0.18881797790527344,-0.7446975708007812,-0.29796600341796875
313,276335744.0,4.030760765075684,-9.369993209838867,3.623734474182129,0.2716503143310547,-1.4733047485351562,-6.5558366775512695,0.5665826797485352,-0.18881797790527344,-0.7446975708007812,-0.29796600341796875
314,276335776.0,8.278203964233398,-14.425504684448242,4.672426223754883,0.2716503143310547,-1.4733047485351562,-6.5558366775512695,0.5665826797485352,-0.18881797790527344,-0.7446975708007812,-0.29796600341796875
315,276335808.0,6.122159957885742,-10.965777397155762,3.7554197311401367,0.2716503143310547,-1.4733047485351562,-6.5558366775512695,0.5665826797485352,-0.18881797790527344,-0.7446975708007812,-0.29796600341796875
316,276335808.0,2.9258031845092773,-6.810513496398926,2.7713727951049805,0.2716503143310547,-1.4733047485351562,-6.5558366775512695,0.5665826797485352,-0.18881797790527344,-0.7446975708007812,-0.29796600341796875
317,276335840.0,5.092621803283691,-3.7554197311401367,2.0878067016601562,-0.15446758270263672,-3.7413225173950195,-6.344907760620117,0.5665826797485352,-0.18881797790527344,-0.7446975708007812,-0.29796600341796875
318,276335872.0,10.295380592346191,-2.8551721572875977,0.9253864288330078,-2.957263946533203,-4.106719017028809,-5.522499084472656,0.5665826797485352,-0.18881797790527344,-0.7446975708007812,-0.29796600341796875
319,276335872.0,16.005725860595703,-3.951749801635742,1.2522048950195312,-2.957263946533203,-4.106719017028809,-5.522499084472656,0.5665826797485352,-0.18881797790527344,-0.7446975708007812,-0.29796600341796875
320,276335904.0,19.101524353027344,-3.3591670989990234,0.6668052673339844,-3.9629039764404297,-3.1628665924072266,-5.136861801147461,0.5665826797485352,-0.18881797790527344,-0.7446975708007812,-0.29796600341796875
321,276335904.0,19.53009796142578,-3.5782432556152344,2.4768762588500977,-3.9629039764404297,-3.1628665924072266,-5.136861801147461,0.5665826797485352,-0.18881797790527344,-0.7446975708007812,-0.29796600341796875
322,276335936.0,22.866519927978516,-8.239895820617676,2.3942737579345703,-4.6542816162109375,-2.277604103088379,-4.964282989501953,0.5665826797485352,-0.18881797790527344,-0.7446975708007812,-0.29796600341796875
323,276335968.0,24.81186866760254,-12.492127418518066,0.8511638641357422,-2.475749969482422,-0.6967039108276367,-4.318713188171387,0.5665826797485352,-0.18881797790527344,-0.7446975708007812,-0.29796600341796875
324,276335968.0,18.493377685546875,-11.602654457092285,-1.0055952072143555,-2.475749969482422,-0.6967039108276367,-4.318713188171387,0.5665826797485352,-0.18881797790527344,-0.7446975708007812,-0.29796600341796875
325,276336000.0,12.629798889160156,-10.388757705688477,1.5945863723754883,-0.38989830017089844,0.6242637634277344,-2.108222007751465,0.5665826797485352,-0.18881797790527344,-0.7446975708007812,-0.29796600341796875
326,276336000.0,9.183239936828613,-8.141730308532715,2.930591583251953,-0.38989830017089844,0.6242637634277344,-2.108222007751465,0.5665826797485352,-0.18881797790527344,-0.7446975708007812,-0.29796600341796875
327,276336032.0,7.859206199645996,-3.367547035217285,3.834430694580078,-0.31532764434814453,-0.20879745483398438,0.92254638671875,0.5665826797485352,-0.18881797790527344,-0.7446975708007812,-0.29796600341796875
328,276336160.0,9.460975646972656,-1.674795150756836,2.6744041442871094,-0.061786651611328125,-0.10652923583984375,1.3412084579467773,0.5904054641723633,-0.25951194763183594,-0.7131061553955078,-0.27483272552490234
329,276336160.0,9.632166862487793,-1.3012876510620117,2.8958749771118164,-0.061786651611328125,-0.10652923583984375,1.3412084579467773,0.5904054641723633,-0.25951194763183594,-0.7131061553955078,-0.27483272552490234
330,276336192.0,9.760260581970215,-1.6269092559814453,2.401456832885742,-0.061786651611328125,-0.10652923583984375,1.3412084579467773,0.5904054641723633,-0.25951194763183594,-0.7131061553955078,-0.27483272552490234
331,276336224.0,10.063136100769043,-1.4377613067626953,1.7777481079101562,-0.061786651611328125,-0.10652923583984375,1.3412084579467773,0.5904054641723633,-0.25951194763183594,-0.7131061553955078,-0.27483272552490234
332,276336224.0,9.967365264892578,-1.4952239990234375,1.6137409210205078,-0.061786651611328125,-0.10652923583984375,1.3412084579467773,0.5904054641723633,-0.25951194763183594,-0.7131061553955078,-0.27483272552490234
333,276336352.0,9.938633918762207,-1.3000907897949219,1.5598697662353516,-0.012783050537109375,0.06391716003417969,0.588043212890625,0.5904054641723633,-0.25951194763183594,-0.7131061553955078,-0.27483272552490234
334,276336384.0,9.699206352233887,-1.4676895141601562,1.4976186752319336,0.03621959686279297,0.09587669372558594,0.5827169418334961,0.5904054641723633,-0.25951194763183594,-0.7131061553955078,-0.27483272552490234
335,276336384.0,9.349641799926758,-1.6305007934570312,1.5850095748901367,0.03621959686279297,0.09587669372558594,0.5827169418334961,0.5904054641723633,-0.25951194763183594,-0.7131061553955078,-0.27483272552490234
336,276336416.0,9.416682243347168,-1.7645797729492188,1.788522720336914,0.26738929748535156,-0.004261016845703125,0.5571498870849609,0.5904054641723633,-0.25951194763183594,-0.7131061553955078,-0.27483272552490234
337,276336448.0,9.368796348571777,-1.971684455871582,1.8124656677246094,0.26738929748535156,-0.004261016845703125,0.5571498870849609,0.5861759185791016,-0.19814014434814453,-0.7342538833618164,-0.27932167053222656
338,276336544.0,9.040781021118164,-1.145660400390625,1.6568374633789062,0.26738929748535156,-0.004261016845703125,0.5571498870849609,0.5847949981689453,-0.16995811462402344,-0.7445688247680664,-0.2734518051147461
339,276336576.0,9.290982246398926,-1.6113462448120117,1.7585945129394531,0.26738929748535156,-0.004261016845703125,0.5571498870849609,0.5847949981689453,-0.16995811462402344,-0.7445688247680664,-0.2734518051147461
340,276336608.0,9.562732696533203,-1.7550029754638672,1.576629638671875,0.26738929748535156,-0.004261016845703125,0.5571498870849609,0.5847949981689453,-0.16995811462402344,-0.7445688247680664,-0.2734518051147461
341,276336608.0,9.318516731262207,-1.9980220794677734,1.4210014343261719,0.26738929748535156,-0.004261016845703125,0.5571498870849609,0.5847949981689453,-0.16995811462402344,-0.7445688247680664,-0.2734518051147461
342,276336640.0,9.172466278076172,-2.1728038787841797,1.5024070739746094,-0.025567054748535156,0.03728485107421875,-0.040480613708496094,0.5847949981689453,-0.16995811462402344,-0.7445688247680664,-0.2734518051147461
343,276336768.0,9.441822052001953,-2.310474395751953,1.6903572082519531,0.020239830017089844,-0.030893325805664062,-0.10120296478271484,0.5847949981689453,-0.16995811462402344,-0.7445688247680664,-0.2734518051147461
344,276336768.0,9.296968460083008,-2.340402603149414,1.6508522033691406,0.020239830017089844,-0.030893325805664062,-0.10120296478271484,0.5847949981689453,-0.16995811462402344,-0.7445688247680664,-0.2734518051147461
345,276336800.0,9.289785385131836,-2.4253997802734375,1.7107086181640625,0.020239830017089844,-0.030893325805664062,-0.10120296478271484,0.5847949981689453,-0.16995811462402344,-0.7445688247680664,-0.2734518051147461
346,276336800.0,9.417879104614258,-2.5175790786743164,1.814859390258789,0.020239830017089844,-0.030893325805664062,-0.10120296478271484,0.5847949981689453,-0.16995811462402344,-0.7445688247680664,-0.2734518051147461
347,276336832.0,9.413090705871582,-2.4984254837036133,1.8459854125976562,0.020239830017089844,-0.030893325805664062,-0.10120296478271484,0.5847949981689453,-0.16995811462402344,-0.7445688247680664,-0.2734518051147461
348,276336864.0,9.501678466796875,-2.4661026000976562,1.7585945129394531,0.020239830017089844,-0.030893325805664062,-0.10120296478271484,0.5847949981689453,-0.16995811462402344,-0.7445688247680664,-0.2734518051147461
349,276336864.0,9.40590763092041,-2.417019844055176,1.7825374603271484,0.020239830017089844,-0.030893325805664062,-0.10120296478271484,0.5847949981689453,-0.16995811462402344,-0.7445688247680664,-0.2734518051147461
350,276336896.0,9.38675308227539,-2.3894853591918945,1.880702018737793,0.020239830017089844,-0.030893325805664062,-0.10120296478271484,0.5847949981689453,-0.16995811462402344,-0.7445688247680664,-0.2734518051147461
351,276336896.0,9.470553398132324,-2.375120162963867,1.848379135131836,0.020239830017089844,-0.030893325805664062,-0.10120296478271484,0.5847949981689453,-0.16995811462402344,-0.7445688247680664,-0.2734518051147461
352,276336928.0,9.45618724822998,-2.4301881790161133,1.7502145767211914,-0.07030868530273438,-0.004261016845703125,-0.11611652374267578,0.5847949981689453,-0.16995811462402344,-0.7445688247680664,-0.2734518051147461
353,276336960.0,9.332881927490234,-2.475679397583008,1.7119054794311523,-0.07350540161132812,0.005326271057128906,-0.08735370635986328,0.5847949981689453,-0.16995811462402344,-0.7445688247680664,-0.2734518051147461
354,276336960.0,9.300559997558594,-2.5187768936157227,1.7035255432128906,-0.07350540161132812,0.005326271057128906,-0.08735370635986328,0.5847949981689453,-0.16995811462402344,-0.7445688247680664,-0.2734518051147461
355,276336960.0,9.332881927490234,-2.475679397583008,1.7119054794311523,-0.07350540161132812,0.005326271057128906,-0.08735370635986328,0.5847949981689453,-0.16995811462402344,-0.7445688247680664,-0.2734518051147461
356,276336960.0,9.300559997558594,-2.5187768936157227,1.7035255432128906,-0.07350540161132812,0.005326271057128906,-0.08735370635986328,0.5847949981689453,-0.16995811462402344,-0.7445688247680664,-0.2734518051147461
357,276336992.0,9.478933334350586,-2.470890998840332,1.6891603469848633,-0.023435592651367188,-0.009587287902832031,-0.042611122131347656,0.5847949981689453,-0.16995811462402344,-0.7445688247680664,-0.2734518051147461
358,276336992.0,9.478933334350586,-2.470890998840332,1.6891603469848633,-0.023435592651367188,-0.009587287902832031,-0.042611122131347656,0.5847949981689453,-0.16995811462402344,-0.7445688247680664,-0.2734518051147461
359,276337024.0,9.513649940490723,-2.4230051040649414,1.5886011123657227,-0.02982807159423828,0.01810932159423828,-0.0170440673828125,0.5847949981689453,-0.16995811462402344,-0.7445688247680664,-0.2734518051147461
360,276337024.0,9.368796348571777,-2.4182167053222656,1.573038101196289,-0.02982807159423828,0.01810932159423828,-0.0170440673828125,0.5847949981689453,-0.16995811462402344,-0.7445688247680664,-0.2734518051147461
361,276337024.0,9.513649940490723,-2.4230051040649414,1.5886011123657227,-0.02982807159423828,0.01810932159423828,-0.0170440673828125,0.5847949981689453,-0.16995811462402344,-0.7445688247680664,-0.2734518051147461
362,276337024.0,9.368796348571777,-2.4182167053222656,1.573038101196289,-0.02982807159423828,0.01810932159423828,-0.0170440673828125,0.5847949981689453,-0.16995811462402344,-0.7445688247680664,-0.2734518051147461
363,276337152.0,9.369993209838867,-2.3008975982666016,1.7693681716918945,-0.0010652542114257812,-0.053264617919921875,-0.033023834228515625,0.5847949981689453,-0.16995811462402344,-0.7445688247680664,-0.2734518051147461
364,276337184.0,9.539987564086914,-2.29132080078125,1.6831750869750977,0.0010652542114257812,-0.031958580017089844,-0.023435592651367188,0.5847949981689453,-0.16995811462402344,-0.7445688247680664,-0.2734518051147461
365,276337184.0,9.468158721923828,-2.190760612487793,1.6376838684082031,0.0010652542114257812,-0.031958580017089844,-0.023435592651367188,0.5847949981689453,-0.16995811462402344,-0.7445688247680664,-0.2734518051147461
366,276337216.0,9.329291343688965,-2.1835784912109375,1.7166948318481445,-0.041545867919921875,-0.030893325805664062,-0.009587287902832031,0.5847949981689453,-0.16995811462402344,-0.7445688247680664,-0.2734518051147461
367,276337216.0,9.571112632751465,-2.258997917175293,1.7131032943725586,-0.041545867919921875,-0.030893325805664062,-0.009587287902832031,0.5847949981689453,-0.16995811462402344,-0.7445688247680664,-0.2734518051147461
368,276337248.0,9.624983787536621,-2.212308883666992,1.6604290008544922,-0.05006885528564453,-0.03515434265136719,-0.005326271057128906,0.5847949981689453,-0.16995811462402344,-0.7445688247680664,-0.2734518051147461
369,276337280.0,9.366402626037598,-2.135692596435547,1.667612075805664,-0.05006885528564453,-0.03515434265136719,-0.005326271057128906,0.5847949981689453,-0.16995811462402344,-0.7445688247680664,-0.2734518051147461
370,276337280.0,9.328093528747559,-2.200338363647461,1.7645797729492188,-0.05006885528564453,-0.03515434265136719,-0.005326271057128906,0.5847949981689453,-0.16995811462402344,-0.7445688247680664,-0.2734518051147461
371,276337312.0,9.468158721923828,-2.1668176651000977,1.7083148956298828,-0.05006885528564453,-0.03515434265136719,-0.005326271057128906,0.5847949981689453,-0.16995811462402344,-0.7445688247680664,-0.2734518051147461
372,276337344.0,9.42506217956543,-2.139284133911133,1.5933895111083984,-0.05006885528564453,-0.03515434265136719,-0.005326271057128906,0.5847949981689453,-0.16995811462402344,-0.7445688247680664,-0.2734518051147461
373,276337344.0,9.377176284790039,-2.1991405487060547,1.5514898300170898,-0.05006885528564453,-0.03515434265136719,-0.005326271057128906,0.5847949981689453,-0.16995811462402344,-0.7445688247680664,-0.2734518051147461
374,276337344.0,9.377176284790039,-2.1991405487060547,1.5514898300170898,-0.05006885528564453,-0.03515434265136719,-0.005326271057128906,0.5847949981689453,-0.16995811462402344,-0.7445688247680664,-0.2734518051147461
375,276337376.0,9.40351390838623,-2.2613916397094727,1.668808937072754,-0.05006885528564453,-0.03515434265136719,-0.005326271057128906,0.5847949981689453,-0.16995811462402344,-0.7445688247680664,-0.2734518051147461
376,276337376.0,9.553155899047852,-2.2386465072631836,1.6305007934570312,-0.05006885528564453,-0.03515434265136719,-0.005326271057128906,0.5847949981689453,-0.16995811462402344,-0.7445688247680664,-0.2734518051147461
377,276337376.0,9.40351390838623,-2.2613916397094727,1.668808937072754,-0.05006885528564453,-0.03515434265136719,-0.005326271057128906,0.5847949981689453,-0.16995811462402344,-0.7445688247680664,-0.2734518051147461
378,276337376.0,9.553155899047852,-2.2386465072631836,1.6305007934570312,-0.05006885528564453,-0.03515434265136719,-0.005326271057128906,0.5847949981689453,-0.16995811462402344,-0.7445688247680664,-0.2734518051147461
379,276337408.0,9.536396026611328,-2.185972213745117,1.5981779098510742,-0.05006885528564453,-0.03515434265136719,-0.005326271057128906,0.5847949981689453,-0.16995811462402344,-0.7445688247680664,-0.2734518051147461
380,276337408.0,9.536396026611328,-2.185972213745117,1.5981779098510742,-0.05006885528564453,-0.03515434265136719,-0.005326271057128906,0.5847949981689453,-0.16995811462402344,-0.7445688247680664,-0.2734518051147461
381,276337440.0,9.410696029663086,-2.1740007400512695,1.5969810485839844,-0.05006885528564453,-0.03515434265136719,-0.005326271057128906,0.5847949981689453,-0.16995811462402344,-0.7445688247680664,-0.2734518051147461
382,276337440.0,9.534001350402832,-2.248223304748535,1.6915550231933594,-0.05006885528564453,-0.03515434265136719,-0.005326271057128906,0.5847949981689453,-0.16995811462402344,-0.7445688247680664,-0.2734518051147461
383,276337440.0,9.410696029663086,-2.1740007400512695,1.5969810485839844,-0.05006885528564453,-0.03515434265136719,-0.005326271057128906,0.5847949981689453,-0.16995811462402344,-0.7445688247680664,-0.2734518051147461
384,276337440.0,9.534001350402832,-2.248223304748535,1.6915550231933594,-0.05006885528564453,-0.03515434265136719,-0.005326271057128906,0.5847949981689453,-0.16995811462402344,-0.7445688247680664,-0.2734518051147461
385,276337472.0,9.627378463745117,-2.197943687438965,1.7490167617797852,0.02982807159423828,-0.031958580017089844,-0.013848304748535156,0.5847949981689453,-0.16995811462402344,-0.7445688247680664,-0.2734518051147461
386,276337504.0,9.54597282409668,-2.1153411865234375,1.6783857345581055,0.0,-0.013848304748535156,-0.0021305084228515625,0.5847949981689453,-0.16995811462402344,-0.7445688247680664,-0.2734518051147461
387,276337504.0,9.483721733093262,-2.200338363647461,1.631697654724121,0.0,-0.013848304748535156,-0.0021305084228515625,0.5847949981689453,-0.16995811462402344,-0.7445688247680664,-0.2734518051147461
388,276337536.0,9.57709789276123,-2.215900421142578,1.697540283203125,-0.0031957626342773438,0.00852203369140625,0.005326271057128906,0.5847949981689453,-0.16995811462402344,-0.7445688247680664,-0.2734518051147461
389,276337536.0,9.551958084106445,-2.215900421142578,1.8088741302490234,-0.0031957626342773438,0.00852203369140625,0.005326271057128906,0.5847949981689453,-0.16995811462402344,-0.7445688247680664,-0.2734518051147461
390,276337568.0,9.45618724822998,-2.0758352279663086,1.789719581604004,-0.0031957626342773438,0.00852203369140625,0.005326271057128906,0.5847949981689453,-0.16995811462402344,-0.7445688247680664,-0.2734518051147461
391,276337600.0,9.415484428405762,-2.0195703506469727,1.8016910552978516,-0.0031957626342773438,0.00852203369140625,0.005326271057128906,0.5847949981689453,-0.16995811462402344,-0.7445688247680664,-0.2734518051147461
392,276337600.0,9.446610450744629,-2.0506954193115234,1.8352108001708984,-0.0031957626342773438,0.00852203369140625,0.005326271057128906,0.5847949981689453,-0.16995811462402344,-0.7445688247680664,-0.2734518051147461
393,276337632.0,9.439427375793457,-2.1476640701293945,1.7873258590698242,-0.0031957626342773438,0.00852203369140625,0.005326271057128906,0.5847949981689453,-0.16995811462402344,-0.7445688247680664,-0.2734518051147461
394,276337664.0,9.504073143005371,-2.1404809951782227,1.7131032943725586,-0.0031957626342773438,0.00852203369140625,0.005326271057128906,0.5847949981689453,-0.16995811462402344,-0.7445688247680664,-0.2734518051147461
395,276337664.0,9.475341796875,-2.2458295822143555,1.631697654724121,-0.0031957626342773438,0.00852203369140625,0.005326271057128906,0.5847949981689453,-0.16995811462402344,-0.7445688247680664,-0.2734518051147461
396,276337696.0,9.416682243347168,-2.2901229858398438,1.6340923309326172,-0.0031957626342773438,0.00852203369140625,0.005326271057128906,0.5847949981689453,-0.16995811462402344,-0.7445688247680664,-0.2734518051147461
397,276337696.0,9.468158721923828,-2.2206897735595703,1.5897979736328125,-0.0031957626342773438,0.00852203369140625,0.005326271057128906,0.5847949981689453,-0.16995811462402344,-0.7445688247680664,-0.2734518051147461
398,276337728.0,9.419075965881348,-2.132101058959961,1.5921926498413086,-0.0031957626342773438,0.00852203369140625,0.005326271057128906,0.5847949981689453,-0.16995811462402344,-0.7445688247680664,-0.2734518051147461
399,276337760.0,9.408302307128906,-2.097384452819824,1.5227584838867188,-0.0031957626342773438,0.00852203369140625,0.005326271057128906,0.5847949981689453,-0.16995811462402344,-0.7445688247680664,-0.2734518051147461
400,276337760.0,9.415484428405762,-2.194352149963379,1.4748725891113281,-0.0031957626342773438,0.00852203369140625,0.005326271057128906,0.5847949981689453,-0.16995811462402344,-0.7445688247680664,-0.2734518051147461
401,276337760.0,9.415484428405762,-2.194352149963379,1.4748725891113281,-0.0031957626342773438,0.00852203369140625,0.005326271057128906,0.5847949981689453,-0.16995811462402344,-0.7445688247680664,-0.2734518051147461
402,276337760.0,9.415484428405762,-2.194352149963379,1.4748725891113281,-0.0031957626342773438,0.00852203369140625,0.005326271057128906,0.5847949981689453,-0.16995811462402344,-0.7445688247680664,-0.2734518051147461
403,276337792.0,9.415484428405762,-2.2793493270874023,1.4736757278442383,-0.0031957626342773438,0.00852203369140625,0.005326271057128906,0.5847949981689453,-0.16995811462402344,-0.7445688247680664,-0.2734518051147461
404,276337792.0,9.415484428405762,-2.2793493270874023,1.4736757278442383,-0.0031957626342773438,0.00852203369140625,0.005326271057128906,0.5847949981689453,-0.16995811462402344,-0.7445688247680664,-0.2734518051147461
405,276337792.0,9.415484428405762,-2.2793493270874023,1.4736757278442383,-0.0031957626342773438,0.00852203369140625,0.005326271057128906,0.5847949981689453,-0.16995811462402344,-0.7445688247680664,-0.2734518051147461
406,276337824.0,9.433442115783691,-2.229069709777832,1.5287437438964844,-0.0031957626342773438,0.00852203369140625,0.005326271057128906,0.5847949981689453,-0.16995811462402344,-0.7445688247680664,-0.2734518051147461
407,276337824.0,9.449005126953125,-2.1452693939208984,1.4569158554077148,-0.0031957626342773438,0.00852203369140625,0.005326271057128906,0.5847949981689453,-0.16995811462402344,-0.7445688247680664,-0.2734518051147461
408,276337824.0,9.433442115783691,-2.229069709777832,1.5287437438964844,-0.0031957626342773438,0.00852203369140625,0.005326271057128906,0.5847949981689453,-0.16995811462402344,-0.7445688247680664,-0.2734518051147461
409,276337824.0,9.449005126953125,-2.1452693939208984,1.4569158554077148,-0.0031957626342773438,0.00852203369140625,0.005326271057128906,0.5847949981689453,-0.16995811462402344,-0.7445688247680664,-0.2734518051147461
410,276337824.0,9.433442115783691,-2.229069709777832,1.5287437438964844,-0.0031957626342773438,0.00852203369140625,0.005326271057128906,0.5847949981689453,-0.16995811462402344,-0.7445688247680664,-0.2734518051147461
411,276337824.0,9.449005126953125,-2.1452693939208984,1.4569158554077148,-0.0031957626342773438,0.00852203369140625,0.005326271057128906,0.5847949981689453,-0.16995811462402344,-0.7445688247680664,-0.2734518051147461
412,276337856.0,9.414287567138672,-2.135692596435547,1.413818359375,-0.023435592651367188,0.00852203369140625,-0.0063915252685546875,0.5847949981689453,-0.16995811462402344,-0.7445688247680664,-0.2734518051147461
413,276337856.0,9.414287567138672,-2.135692596435547,1.413818359375,-0.023435592651367188,0.00852203369140625,-0.0063915252685546875,0.5847949981689453,-0.16995811462402344,-0.7445688247680664,-0.2734518051147461
414,276337856.0,9.414287567138672,-2.135692596435547,1.413818359375,-0.023435592651367188,0.00852203369140625,-0.0063915252685546875,0.5847949981689453,-0.16995811462402344,-0.7445688247680664,-0.2734518051147461
415,276338080.0,9.634560585021973,-2.218295097351074,1.7466230392456055,-0.0021305084228515625,-0.0010652542114257812,0.014913558959960938,0.577458381652832,-0.18933582305908203,-0.7393465042114258,-0.28993797302246094
416,276338080.0,9.624983787536621,-2.133297920227051,1.6783857345581055,-0.0021305084228515625,-0.0010652542114257812,0.014913558959960938,0.577458381652832,-0.18933582305908203,-0.7393465042114258,-0.28993797302246094
417,276338080.0,9.634560585021973,-2.218295097351074,1.7466230392456055,-0.0021305084228515625,-0.0010652542114257812,0.014913558959960938,0.577458381652832,-0.18933582305908203,-0.7393465042114258,-0.28993797302246094
418,276338080.0,9.624983787536621,-2.133297920227051,1.6783857345581055,-0.0021305084228515625,-0.0010652542114257812,0.014913558959960938,0.577458381652832,-0.18933582305908203,-0.7393465042114258,-0.28993797302246094
419,276338112.0,9.463370323181152,-2.1452693939208984,1.7095117568969727,-0.020239830017089844,0.009587287902832031,0.01597881317138672,0.577458381652832,-0.18933582305908203,-0.7393465042114258,-0.28993797302246094
420,276338112.0,9.40351390838623,-2.1177358627319336,1.7119054794311523,-0.020239830017089844,0.009587287902832031,0.01597881317138672,0.577458381652832,-0.18933582305908203,-0.7393465042114258,-0.28993797302246094
421,276338112.0,9.463370323181152,-2.1452693939208984,1.7095117568969727,-0.020239830017089844,0.009587287902832031,0.01597881317138672,0.577458381652832,-0.18933582305908203,-0.7393465042114258,-0.28993797302246094
422,276338112.0,9.40351390838623,-2.1177358627319336,1.7119054794311523,-0.020239830017089844,0.009587287902832031,0.01597881317138672,0.577458381652832,-0.18933582305908203,-0.7393465042114258,-0.28993797302246094
423,276338144.0,9.471750259399414,-2.150057792663574,1.7083148956298828,-0.02769756317138672,-0.004261016845703125,0.014913558959960938,0.577458381652832,-0.18933582305908203,-0.7393465042114258,-0.28993797302246094
424,276338144.0,9.471750259399414,-2.150057792663574,1.7083148956298828,-0.02769756317138672,-0.004261016845703125,0.014913558959960938,0.577458381652832,-0.18933582305908203,-0.7393465042114258,-0.28993797302246094
425,276338176.0,9.437033653259277,-2.10097599029541,1.693948745727539,-0.02769756317138672,-0.004261016845703125,0.014913558959960938,0.577458381652832,-0.18933582305908203,-0.7393465042114258,-0.28993797302246094
426,276338176.0,9.389147758483887,-2.1440725326538086,1.6568374633789062,-0.02769756317138672,-0.004261016845703125,0.014913558959960938,0.577458381652832,-0.18933582305908203,-0.7393465042114258,-0.28993797302246094
427,276338208.0,9.346051216125488,-2.159635543823242,1.6233177185058594,-0.02769756317138672,-0.004261016845703125,0.014913558959960938,0.577458381652832,-0.18933582305908203,-0.7393465042114258,-0.28993797302246094
428,276338240.0,9.511256217956543,-2.0937929153442383,1.6915550231933594,-0.02769756317138672,-0.004261016845703125,0.014913558959960938,0.577458381652832,-0.18933582305908203,-0.7393465042114258,-0.28993797302246094
429,276338240.0,9.530409812927246,-1.9944305419921875,1.6508522033691406,-0.02769756317138672,-0.004261016845703125,0.014913558959960938,0.577458381652832,-0.18933582305908203,-0.7393465042114258,-0.28993797302246094
430,276338272.0,9.377176284790039,-2.0530900955200195,1.606557846069336,-0.08309268951416016,0.00852203369140625,-0.0031957626342773438,0.577458381652832,-0.18933582305908203,-0.7393465042114258,-0.28993797302246094
431,276338272.0,9.402316093444824,-2.1728038787841797,1.5945863723754883,-0.08309268951416016,0.00852203369140625,-0.0031957626342773438,0.577458381652832,-0.18933582305908203,-0.7393465042114258,-0.28993797302246094
432,276338304.0,9.519636154174805,-2.226675033569336,1.6113462448120117,-0.0021305084228515625,-0.012783050537109375,-0.03835010528564453,0.577458381652832,-0.18933582305908203,-0.7393465042114258,-0.28993797302246094
433,276338336.0,9.54716968536377,-2.158437728881836,1.6137409210205078,0.0031957626342773438,-0.014913558959960938,-0.04474163055419922,0.577458381652832,-0.18933582305908203,-0.7393465042114258,-0.28993797302246094
434,276338336.0,9.499284744262695,-2.165620803833008,1.6364860534667969,0.0031957626342773438,-0.014913558959960938,-0.04474163055419922,0.577458381652832,-0.18933582305908203,-0.7393465042114258,-0.28993797302246094
435,276338368.0,9.379570960998535,-2.194352149963379,1.695145606994629,0.0,-0.022370338439941406,-0.053264617919921875,0.577458381652832,-0.18933582305908203,-0.7393465042114258,-0.28993797302246094
436,276338400.0,9.38675308227539,-2.2410402297973633,1.7178916931152344,0.00852203369140625,-0.033023834228515625,-0.04687213897705078,0.577458381652832,-0.18933582305908203,-0.7393465042114258,-0.28993797302246094
437,276338400.0,9.522029876708984,-2.1524524688720703,1.729863166809082,0.00852203369140625,-0.033023834228515625,-0.04687213897705078,0.577458381652832,-0.18933582305908203,-0.7393465042114258,-0.28993797302246094
438,276338432.0,9.481327056884766,-2.1488609313964844,1.6867656707763672,-0.05859088897705078,0.00852203369140625,-0.005326271057128906,0.577458381652832,-0.18933582305908203,-0.7393465042114258,-0.28993797302246094
439,276338432.0,9.402316093444824,-2.194352149963379,1.6795835494995117,-0.05859088897705078,0.00852203369140625,-0.005326271057128906,0.577458381652832,-0.18933582305908203,-0.7393465042114258,-0.28993797302246094
440,276338464.0,9.441822052001953,-2.2099151611328125,1.6520490646362305,-0.05859088897705078,0.00852203369140625,-0.005326271057128906,0.577458381652832,-0.18933582305908203,-0.7393465042114258,-0.28993797302246094
441,276338496.0,9.539987564086914,-2.162029266357422,1.6807804107666016,-0.05859088897705078,0.00852203369140625,-0.005326271057128906,0.577458381652832,-0.18933582305908203,-0.7393465042114258,-0.28993797302246094
442,276338496.0,9.556747436523438,-2.0602731704711914,1.632894515991211,-0.05859088897705078,0.00852203369140625,-0.005326271057128906,0.577458381652832,-0.18933582305908203,-0.7393465042114258,-0.28993797302246094
443,276338528.0,9.462173461914062,-2.097384452819824,1.567051887512207,-0.05859088897705078,0.00852203369140625,-0.005326271057128906,0.577458381652832,-0.18933582305908203,-0.7393465042114258,-0.28993797302246094
444,276338560.0,9.493298530578613,-2.191958427429199,1.5778264999389648,-0.05859088897705078,0.00852203369140625,-0.005326271057128906,0.577458381652832,-0.18933582305908203,-0.7393465042114258,-0.28993797302246094
445,276338560.0,9.585478782653809,-2.191958427429199,1.6005725860595703,-0.05859088897705078,0.00852203369140625,-0.005326271057128906,0.577458381652832,-0.18933582305908203,-0.7393465042114258,-0.28993797302246094
446,276338560.0,9.585478782653809,-2.191958427429199,1.6005725860595703,-0.05859088897705078,0.00852203369140625,-0.005326271057128906,0.577458381652832,-0.18933582305908203,-0.7393465042114258,-0.28993797302246094
447,276338592.0,9.548367500305176,-2.0854129791259766,1.574234962463379,-0.05859088897705078,0.00852203369140625,-0.005326271057128906,0.577458381652832,-0.18933582305908203,-0.7393465042114258,-0.28993797302246094
448,276338592.0,9.4071044921875,-2.109355926513672,1.6113462448120117,-0.05859088897705078,0.00852203369140625,-0.005326271057128906,0.577458381652832,-0.18933582305908203,-0.7393465042114258,-0.28993797302246094
449,276338592.0,9.548367500305176,-2.0854129791259766,1.574234962463379,-0.05859088897705078,0.00852203369140625,-0.005326271057128906,0.577458381652832,-0.18933582305908203,-0.7393465042114258,-0.28993797302246094
450,276338592.0,9.4071044921875,-2.109355926513672,1.6113462448120117,-0.05859088897705078,0.00852203369140625,-0.005326271057128906,0.577458381652832,-0.18933582305908203,-0.7393465042114258,-0.28993797302246094
451,276338624.0,9.410696029663086,-2.1728038787841797,1.573038101196289,-0.05859088897705078,0.00852203369140625,-0.005326271057128906,0.577458381652832,-0.18933582305908203,-0.7393465042114258,-0.28993797302246094
452,276338624.0,9.410696029663086,-2.1728038787841797,1.573038101196289,-0.05859088897705078,0.00852203369140625,-0.005326271057128906,0.577458381652832,-0.18933582305908203,-0.7393465042114258,-0.28993797302246094
453,276338656.0,9.445413589477539,-2.135692596435547,1.6113462448120117,-0.009587287902832031,-0.007456779479980469,-0.009587287902832031,0.577458381652832,-0.18933582305908203,-0.7393465042114258,-0.28993797302246094
454,276338656.0,9.445413589477539,-2.135692596435547,1.6113462448120117,-0.009587287902832031,-0.007456779479980469,-0.009587287902832031,0.577458381652832,-0.18933582305908203,-0.7393465042114258,-0.28993797302246094
455,276338752.0,9.482524871826172,-2.0890045166015625,1.6496543884277344,0.023435592651367188,-0.021305084228515625,-0.022370338439941406,0.5763359069824219,-0.19365215301513672,-0.7367572784423828,-0.2958946228027344
456,276338752.0,9.482524871826172,-2.0890045166015625,1.6496543884277344,0.023435592651367188,-0.021305084228515625,-0.022370338439941406,0.5763359069824219,-0.19365215301513672,-0.7367572784423828,-0.2958946228027344
457,276338784.0,9.395133018493652,-2.1464672088623047,1.6281061172485352,0.023435592651367188,-0.021305084228515625,-0.022370338439941406,0.5762929916381836,-0.19408321380615234,-0.7365846633911133,-0.2960233688354492
458,276338784.0,9.395133018493652,-2.1464672088623047,1.6281061172485352,0.023435592651367188,-0.021305084228515625,-0.022370338439941406,0.5762929916381836,-0.19408321380615234,-0.7365846633911133,-0.2960233688354492
459,276338816.0,9.45618724822998,-2.2709693908691406,1.6101493835449219,0.023435592651367188,-0.021305084228515625,-0.022370338439941406,0.5763797760009766,-0.1944284439086914,-0.7363252639770508,-0.2962827682495117
460,276338816.0,9.530409812927246,-2.2410402297973633,1.661625862121582,0.023435592651367188,-0.021305084228515625,-0.022370338439941406,0.5763797760009766,-0.1944284439086914,-0.7363252639770508,-0.2962827682495117
461,276338816.0,9.45618724822998,-2.2709693908691406,1.6101493835449219,0.023435592651367188,-0.021305084228515625,-0.022370338439941406,0.5763797760009766,-0.1944284439086914,-0.7363252639770508,-0.2962827682495117
462,276338816.0,9.530409812927246,-2.2410402297973633,1.661625862121582,0.023435592651367188,-0.021305084228515625,-0.022370338439941406,0.5763797760009766,-0.1944284439086914,-0.7363252639770508,-0.2962827682495117
463,276338848.0,9.49569320678711,-2.1452693939208984,1.606557846069336,0.020239830017089844,-0.007456779479980469,-0.011717796325683594,0.5764656066894531,-0.19429969787597656,-0.7363681793212891,-0.29619598388671875
464,276338848.0,9.49569320678711,-2.1452693939208984,1.606557846069336,0.020239830017089844,-0.007456779479980469,-0.011717796325683594,0.5764656066894531,-0.19429969787597656,-0.7363681793212891,-0.29619598388671875
465,276339072.0,9.483721733093262,-2.163227081298828,1.574234962463379,-0.011717796325683594,-0.010652542114257812,-0.013848304748535156,0.5766811370849609,-0.19559383392333984,-0.7359371185302734,-0.29598045349121094
466,276339072.0,9.487313270568848,-2.2147035598754883,1.605360984802246,-0.011717796325683594,-0.010652542114257812,-0.013848304748535156,0.5766811370849609,-0.19559383392333984,-0.7359371185302734,-0.29598045349121094
467,276339072.0,9.483721733093262,-2.163227081298828,1.574234962463379,-0.011717796325683594,-0.010652542114257812,-0.013848304748535156,0.5766811370849609,-0.19559383392333984,-0.7359371185302734,-0.29598045349121094
468,276339072.0,9.487313270568848,-2.2147035598754883,1.605360984802246,-0.011717796325683594,-0.010652542114257812,-0.013848304748535156,0.5766811370849609,-0.19559383392333984,-0.7359371185302734,-0.29598045349121094
469,276339104.0,9.443018913269043,-2.130904197692871,1.5921926498413086,-0.011717796325683594,-0.010652542114257812,-0.013848304748535156,0.5766811370849609,-0.19559383392333984,-0.7359371185302734,-0.29598045349121094
470,276339104.0,9.443018913269043,-2.130904197692871,1.5921926498413086,-0.011717796325683594,-0.010652542114257812,-0.013848304748535156,0.5766811370849609,-0.19559383392333984,-0.7359371185302734,-0.29598045349121094
471,276339136.0,9.409499168395996,-2.073441505432129,1.5790233612060547,-0.011717796325683594,-0.010652542114257812,-0.013848304748535156,0.5766811370849609,-0.19559383392333984,-0.7359371185302734,-0.29598045349121094
472,276339136.0,9.475341796875,-2.1129465103149414,1.5514898300170898,-0.011717796325683594,-0.010652542114257812,-0.013848304748535156,0.5766811370849609,-0.19559383392333984,-0.7359371185302734,-0.29598045349121094
473,276339136.0,9.409499168395996,-2.073441505432129,1.5790233612060547,-0.011717796325683594,-0.010652542114257812,-0.013848304748535156,0.5766811370849609,-0.19559383392333984,-0.7359371185302734,-0.29598045349121094
474,276339136.0,9.475341796875,-2.1129465103149414,1.5514898300170898,-0.011717796325683594,-0.010652542114257812,-0.013848304748535156,0.5766811370849609,-0.19559383392333984,-0.7359371185302734,-0.29598045349121094
475,276339168.0,9.592660903930664,-2.197943687438965,1.5455036163330078,-0.0021305084228515625,-0.009587287902832031,-0.00852203369140625,0.5766811370849609,-0.19559383392333984,-0.7359371185302734,-0.29598045349121094
476,276339200.0,9.538789749145508,-2.194352149963379,1.5275468826293945,0.024501800537109375,-0.01810932159423828,0.021305084228515625,0.5766811370849609,-0.19559383392333984,-0.7359371185302734,-0.29598045349121094
477,276339200.0,9.504073143005371,-2.1847753524780273,1.5921926498413086,0.024501800537109375,-0.01810932159423828,0.021305084228515625,0.5766811370849609,-0.19559383392333984,-0.7359371185302734,-0.29598045349121094
478,276339232.0,9.480130195617676,-2.1835784912109375,1.5419120788574219,0.026632308959960938,-0.02769756317138672,0.031958580017089844,0.5766811370849609,-0.19559383392333984,-0.7359371185302734,-0.29598045349121094
479,276339232.0,9.61540699005127,-2.2206897735595703,1.4688873291015625,0.026632308959960938,-0.02769756317138672,0.031958580017089844,0.5766811370849609,-0.19559383392333984,-0.7359371185302734,-0.29598045349121094
480,276339264.0,9.88476276397705,-2.262589454650879,1.2857246398925781,0.026632308959960938,-0.02769756317138672,0.031958580017089844,0.5766811370849609,-0.19559383392333984,-0.7359371185302734,-0.29598045349121094
481,276339296.0,10.023630142211914,-2.9234085083007812,1.667612075805664,0.026632308959960938,-0.02769756317138672,0.031958580017089844,0.5766811370849609,-0.19559383392333984,-0.7359371185302734,-0.29598045349121094
482,276339296.0,10.233129501342773,-4.332439422607422,2.062666893005371,0.026632308959960938,-0.02769756317138672,0.031958580017089844,0.5766811370849609,-0.19559383392333984,-0.7359371185302734,-0.29598045349121094
483,276339328.0,11.758282661437988,-6.930227279663086,2.077033042907715,0.026632308959960938,-0.02769756317138672,0.031958580017089844,0.5766811370849609,-0.19559383392333984,-0.7359371185302734,-0.29598045349121094
484,276339328.0,13.433077812194824,-9.681249618530273,1.8938703536987305,0.026632308959960938,-0.02769756317138672,0.031958580017089844,0.5766811370849609,-0.19559383392333984,-0.7359371185302734,-0.29598045349121094
485,276339360.0,15.15934944152832,-9.197606086730957,3.0096025466918945,5.007960319519043,-0.16512012481689453,2.9178476333618164,0.5766811370849609,-0.19559383392333984,-0.7359371185302734,-0.29598045349121094
486,276339392.0,16.190086364746094,-8.084267616271973,5.545139312744141,4.363455772399902,-0.5709991455078125,3.8680925369262695,0.5766811370849609,-0.19559383392333984,-0.7359371185302734,-0.29598045349121094
487,276339392.0,18.768718719482422,-9.779414176940918,4.519192695617676,4.363455772399902,-0.5709991455078125,3.8680925369262695,0.5766811370849609,-0.19559383392333984,-0.7359371185302734,-0.29598045349121094
488,276339424.0,20.33936309814453,-12.909928321838379,2.5163822174072266,4.8716020584106445,0.7275972366333008,4.891842842102051,0.5766811370849609,-0.19559383392333984,-0.7359371185302734,-0.29598045349121094
489,276339456.0,18.832168579101562,-10.482133865356445,3.5985946655273438,4.8716020584106445,0.7275972366333008,4.891842842102051,0.5766811370849609,-0.19559383392333984,-0.7359371185302734,-0.29598045349121094
490,276339456.0,15.270683288574219,-6.595028877258301,5.819284439086914,4.8716020584106445,0.7275972366333008,4.891842842102051,0.5766811370849609,-0.19559383392333984,-0.7359371185302734,-0.29598045349121094
491,276339488.0,10.489316940307617,-7.737098693847656,5.576265335083008,4.8716020584106445,0.7275972366333008,4.891842842102051,0.5766811370849609,-0.19559383392333984,-0.7359371185302734,-0.29598045349121094
492,276339488.0,7.083460807800293,-8.573897361755371,4.593415260314941,4.8716020584106445,0.7275972366333008,4.891842842102051,0.5766811370849609,-0.19559383392333984,-0.7359371185302734,-0.29598045349121094
493,276339520.0,4.1911773681640625,-6.559115409851074,2.4804677963256836,4.8716020584106445,0.7275972366333008,4.891842842102051,0.5766811370849609,-0.19559383392333984,-0.7359371185302734,-0.29598045349121094
494,276339552.0,0.7326478958129883,-4.028367042541504,0.6153278350830078,0.853302001953125,3.943728446960449,5.353116989135742,0.5766811370849609,-0.19559383392333984,-0.7359371185302734,-0.29598045349121094
495,276339552.0,-1.7909173965454102,-3.6692256927490234,0.9864406585693359,0.853302001953125,3.943728446960449,5.353116989135742,0.5766811370849609,-0.19559383392333984,-0.7359371185302734,-0.29598045349121094
496,276339584.0,-1.7645797729492188,-2.201535224914551,0.9337663650512695,0.2418222427368164,3.4121456146240234,5.329680442810059,0.5766811370849609,-0.19559383392333984,-0.7359371185302734,-0.29598045349121094
497,276339616.0,-2.002810478210449,-4.63411808013916,0.46089744567871094,0.540104866027832,3.201216697692871,5.593873977661133,0.5766811370849609,-0.19559383392333984,-0.7359371185302734,-0.29598045349121094
498,276339616.0,-0.8152503967285156,-5.188392639160156,1.5239553451538086,0.540104866027832,3.201216697692871,5.593873977661133,0.5766811370849609,-0.19559383392333984,-0.7359371185302734,-0.29598045349121094
499,276339648.0,-1.0498886108398438,-3.247833251953125,2.0016136169433594,0.9598321914672852,3.2683305740356445,5.510780334472656,0.019507408142089844,0.5068082809448242,-0.7339086532592773,-0.4517822265625
500,276339776.0,-2.7390499114990234,-4.550318717956543,-2.473285675048828,0.9598321914672852,3.2683305740356445,5.510780334472656,-0.09499168395996094,0.596405029296875,-0.6173810958862305,-0.5041332244873047
501,276339776.0,-3.4477548599243164,-3.960129737854004,-5.256629943847656,0.9598321914672852,3.2683305740356445,5.510780334472656,-0.09499168395996094,0.596405029296875,-0.6173810958862305,-0.5041332244873047
502,276339776.0,-2.7390499114990234,-4.550318717956543,-2.473285675048828,0.9598321914672852,3.2683305740356445,5.510780334472656,-0.09499168395996094,0.596405029296875,-0.6173810958862305,-0.5041332244873047
503,276339776.0,-3.4477548599243164,-3.960129737854004,-5.256629943847656,0.9598321914672852,3.2683305740356445,5.510780334472656,-0.09499168395996094,0.596405029296875,-0.6173810958862305,-0.5041332244873047
504,276339808.0,-4.20314884185791,-6.920650482177734,-6.380742073059082,0.9598321914672852,3.2683305740356445,5.510780334472656,-0.09499168395996094,0.596405029296875,-0.6173810958862305,-0.5041332244873047
505,276339808.0,-2.5475082397460938,-6.49446964263916,-1.537123680114746,0.9598321914672852,3.2683305740356445,5.510780334472656,-0.09499168395996094,0.596405029296875,-0.6173810958862305,-0.5041332244873047
506,276339808.0,-4.20314884185791,-6.920650482177734,-6.380742073059082,0.9598321914672852,3.2683305740356445,5.510780334472656,-0.09499168395996094,0.596405029296875,-0.6173810958862305,-0.5041332244873047
507,276339808.0,-2.5475082397460938,-6.49446964263916,-1.537123680114746,0.9598321914672852,3.2683305740356445,5.510780334472656,-0.09499168395996094,0.596405029296875,-0.6173810958862305,-0.5041332244873047
508,276339840.0,0.14126205444335938,-4.423421859741211,3.894287109375,-3.6774044036865234,-7.944984436035156,0.2578010559082031,-0.09499168395996094,0.596405029296875,-0.6173810958862305,-0.5041332244873047
509,276339840.0,0.14126205444335938,-4.423421859741211,3.894287109375,-3.6774044036865234,-7.944984436035156,0.2578010559082031,-0.09499168395996094,0.596405029296875,-0.6173810958862305,-0.5041332244873047
510,276339872.0,3.270578384399414,0.016759872436523438,-7.518022537231445,-2.208359718322754,-2.1646833419799805,1.242136001586914,-0.09499168395996094,0.596405029296875,-0.6173810958862305,-0.5041332244873047
511,276339872.0,-4.065478324890137,-9.244294166564941,39.098506927490234,-2.208359718322754,-2.1646833419799805,1.242136001586914,-0.09499168395996094,0.596405029296875,-0.6173810958862305,-0.5041332244873047
512,276339872.0,3.270578384399414,0.016759872436523438,-7.518022537231445,-2.208359718322754,-2.1646833419799805,1.242136001586914,-0.09499168395996094,0.596405029296875,-0.6173810958862305,-0.5041332244873047
513,276339872.0,-4.065478324890137,-9.244294166564941,39.098506927490234,-2.208359718322754,-2.1646833419799805,1.242136001586914,-0.09499168395996094,0.596405029296875,-0.6173810958862305,-0.5041332244873047
514,276339904.0,-9.47653865814209,-22.126689910888672,0.7661676406860352,4.005516052246094,-0.1214437484741211,-1.3348169326782227,-0.09499168395996094,0.596405029296875,-0.6173810958862305,-0.5041332244873047
515,276339904.0,-9.47653865814209,-22.126689910888672,0.7661676406860352,4.005516052246094,-0.1214437484741211,-1.3348169326782227,-0.09499168395996094,0.596405029296875,-0.6173810958862305,-0.5041332244873047
516,276339936.0,0.3387889862060547,-8.764242172241211,1.175588607788086,3.8723535537719727,2.220078468322754,-0.11718177795410156,-0.09499168395996094,0.596405029296875,-0.6173810958862305,-0.5041332244873047
517,276339936.0,-7.069095611572266,-2.682784080505371,5.376343727111816,3.8723535537719727,2.220078468322754,-0.11718177795410156,-0.09499168395996094,0.596405029296875,-0.6173810958862305,-0.5041332244873047
518,276339936.0,0.3387889862060547,-8.764242172241211,1.175588607788086,3.8723535537719727,2.220078468322754,-0.11718177795410156,-0.09499168395996094,0.596405029296875,-0.6173810958862305,-0.5041332244873047
519,276339936.0,-7.069095611572266,-2.682784080505371,5.376343727111816,3.8723535537719727,2.220078468322754,-0.11718177795410156,-0.09499168395996094,0.596405029296875,-0.6173810958862305,-0.5041332244873047
520,276340160.0,29.576475143432617,-19.70966911315918,39.098506927490234,-1.2197647094726562,-5.901744842529297,-0.5145378112792969,0.12067031860351562,0.7780580520629883,-0.390411376953125,-0.47707271575927734
521,276340192.0,-18.437110900878906,4.970513343811035,10.773038864135742,-1.2197647094726562,-5.901744842529297,-0.5145378112792969,0.10677337646484375,0.760838508605957,-0.4143638610839844,-0.4879493713378906
522,276340192.0,-2.591801643371582,-8.670865058898926,5.733090400695801,-1.2197647094726562,-5.901744842529297,-0.5145378112792969,0.10677337646484375,0.760838508605957,-0.4143638610839844,-0.4879493713378906
523,276340224.0,7.492881774902344,-10.282212257385254,7.898712158203125,-1.2197647094726562,-5.901744842529297,-0.5145378112792969,0.10401153564453125,0.7442226409912109,-0.43805789947509766,-0.49338722229003906
524,276340224.0,-0.05626487731933594,-8.042367935180664,7.465348243713379,-1.2197647094726562,-5.901744842529297,-0.5145378112792969,0.10401153564453125,0.7442226409912109,-0.43805789947509766,-0.49338722229003906
525,276340256.0,-1.6496543884277344,-3.7913331985473633,7.940611839294434,2.2435150146484375,1.9814519882202148,-1.9484272003173828,0.10401153564453125,0.7442226409912109,-0.43805789947509766,-0.49338722229003906
526,276340288.0,-0.27174949645996094,-4.84242057800293,6.342432975769043,2.225404739379883,2.1945114135742188,-2.4352684020996094,0.10401153564453125,0.7442226409912109,-0.43805789947509766,-0.49338722229003906
527,276340288.0,-0.47167205810546875,-4.178009033203125,4.661652565002441,2.225404739379883,2.1945114135742188,-2.4352684020996094,0.10401153564453125,0.7442226409912109,-0.43805789947509766,-0.49338722229003906
528,276340320.0,-1.9333763122558594,-3.6440858840942383,3.270578384399414,2.2584285736083984,1.9100770950317383,-3.731734275817871,0.10401153564453125,0.7442226409912109,-0.43805789947509766,-0.49338722229003906
529,276340352.0,-0.9110212326049805,-4.7526350021362305,2.594196319580078,2.2584285736083984,1.9100770950317383,-3.731734275817871,0.10401153564453125,0.7442226409912109,-0.43805789947509766,-0.49338722229003906
530,276340352.0,0.08499622344970703,-5.396695137023926,2.2039289474487305,2.2584285736083984,1.9100770950317383,-3.731734275817871,0.10401153564453125,0.7442226409912109,-0.43805789947509766,-0.49338722229003906
531,276340352.0,0.08499622344970703,-5.396695137023926,2.2039289474487305,2.2584285736083984,1.9100770950317383,-3.731734275817871,0.10401153564453125,0.7442226409912109,-0.43805789947509766,-0.49338722229003906
532,276340384.0,-0.30646705627441406,-3.9170331954956055,0.6368770599365234,2.2584285736083984,1.9100770950317383,-3.731734275817871,0.10401153564453125,0.7442226409912109,-0.43805789947509766,-0.49338722229003906
533,276340384.0,-0.30646705627441406,-3.9170331954956055,0.6368770599365234,2.2584285736083984,1.9100770950317383,-3.731734275817871,0.10401153564453125,0.7442226409912109,-0.43805789947509766,-0.49338722229003906
534,276340416.0,0.15921878814697266,-3.776968002319336,-0.2394266128540039,2.2584285736083984,1.9100770950317383,-3.731734275817871,0.10401153564453125,0.7442226409912109,-0.43805789947509766,-0.49338722229003906
535,276340416.0,1.1863622665405273,-5.533168792724609,0.19633007049560547,2.2584285736083984,1.9100770950317383,-3.731734275817871,0.10401153564453125,0.7442226409912109,-0.43805789947509766,-0.49338722229003906
536,276340416.0,0.15921878814697266,-3.776968002319336,-0.2394266128540039,2.2584285736083984,1.9100770950317383,-3.731734275817871,0.10401153564453125,0.7442226409912109,-0.43805789947509766,-0.49338722229003906
537,276340416.0,1.1863622665405273,-5.533168792724609,0.19633007049560547,2.2584285736083984,1.9100770950317383,-3.731734275817871,0.10401153564453125,0.7442226409912109,-0.43805789947509766,-0.49338722229003906
538,276340448.0,2.0746383666992188,-7.140923500061035,1.2557964324951172,2.4288768768310547,-1.1100387573242188,-5.997621536254883,0.10401153564453125,0.7442226409912109,-0.43805789947509766,-0.49338722229003906
539,276340448.0,2.0746383666992188,-7.140923500061035,1.2557964324951172,2.4288768768310547,-1.1100387573242188,-5.997621536254883,0.10401153564453125,0.7442226409912109,-0.43805789947509766,-0.49338722229003906
540,276340448.0,2.8192577362060547,-7.348028182983398,2.10097599029541,2.4288768768310547,-1.1100387573242188,-5.997621536254883,0.10401153564453125,0.7442226409912109,-0.43805789947509766,-0.49338722229003906
541,276340480.0,2.7617950439453125,-4.44377326965332,2.0554847717285156,1.3220329284667969,-1.9739952087402344,-6.056212425231934,0.10401153564453125,0.7442226409912109,-0.43805789947509766,-0.49338722229003906
542,276340512.0,3.9721012115478516,-7.965751647949219,1.6568374633789062,1.0482521057128906,-2.5354061126708984,-6.115869522094727,0.10401153564453125,0.7442226409912109,-0.43805789947509766,-0.49338722229003906
543,276340512.0,4.783760070800781,-8.80614185333252,3.3412094116210938,1.0482521057128906,-2.5354061126708984,-6.115869522094727,0.10401153564453125,0.7442226409912109,-0.43805789947509766,-0.49338722229003906
544,276340544.0,5.712738990783691,-9.364007949829102,7.239089012145996,0.5656719207763672,-3.201216697692871,-6.461025238037109,0.10401153564453125,0.7442226409912109,-0.43805789947509766,-0.49338722229003906
545,276340544.0,9.296968460083008,-10.704801559448242,6.426233291625977,0.5656719207763672,-3.201216697692871,-6.461025238037109,0.10401153564453125,0.7442226409912109,-0.43805789947509766,-0.49338722229003906
546,276340576.0,9.359219551086426,-12.015666961669922,3.2346649169921875,0.5656719207763672,-3.201216697692871,-6.461025238037109,0.10401153564453125,0.7442226409912109,-0.43805789947509766,-0.49338722229003906
547,276340608.0,9.081483840942383,-9.110215187072754,3.247833251953125,0.5656719207763672,-3.201216697692871,-6.461025238037109,0.10401153564453125,0.7442226409912109,-0.43805789947509766,-0.49338722229003906
548,276340608.0,9.457385063171387,-5.587039947509766,3.919426918029785,0.5656719207763672,-3.201216697692871,-6.461025238037109,0.10401153564453125,0.7442226409912109,-0.43805789947509766,-0.49338722229003906
549,276340640.0,12.020455360412598,-3.70513916015625,3.1029796600341797,-0.8117561340332031,-3.9937973022460938,-5.271088600158691,0.10401153564453125,0.7442226409912109,-0.43805789947509766,-0.49338722229003906
550,276340672.0,14.372830390930176,-2.168015480041504,1.453324317932129,-1.2197647094726562,-4.050258636474609,-5.180538177490234,0.5908803939819336,-0.0890359878540039,-0.7881155014038086,-0.14755916595458984
551,276340672.0,17.490177154541016,-2.2314634323120117,1.3635387420654297,-1.2197647094726562,-4.050258636474609,-5.180538177490234,0.5908803939819336,-0.0890359878540039,-0.7881155014038086,-0.14755916595458984
552,276340704.0,20.753572463989258,-2.717501640319824,3.2657899856567383,-2.0666751861572266,-3.2299795150756836,-4.420981407165527,0.6493167877197266,-0.17289257049560547,-0.7292041778564453,-0.12960529327392578
553,276340704.0,20.981029510498047,-5.737878799438477,4.065478324890137,-2.0666751861572266,-3.2299795150756836,-4.420981407165527,0.6493167877197266,-0.17289257049560547,-0.7292041778564453,-0.12960529327392578
554,276340736.0,17.49616241455078,-8.079479217529297,2.2410402297973633,-2.261625289916992,-2.0304555892944336,-3.731734275817871,0.6620054244995117,-0.21018123626708984,-0.7084016799926758,-0.12546157836914062
555,276340864.0,10.864021301269531,-0.6225109100341797,3.0383338928222656,-1.7737188339233398,0.578455924987793,1.9409704208374023,0.6519927978515625,-0.2198925018310547,-0.7052516937255859,-0.17060565948486328
556,276340864.0,9.359219551086426,-1.1145343780517578,2.7953147888183594,-1.7737188339233398,0.578455924987793,1.9409704208374023,0.6519927978515625,-0.2198925018310547,-0.7052516937255859,-0.17060565948486328
557,276340896.0,9.201197624206543,-1.0403118133544922,2.8922834396362305,-2.017671585083008,0.4953622817993164,1.2772903442382812,0.6403837203979492,-0.22205066680908203,-0.7092218399047852,-0.19386768341064453
558,276340928.0,9.723149299621582,-1.2126998901367188,2.948549270629883,-1.9313831329345703,0.4655342102050781,0.9779424667358398,0.6206169128417969,-0.23314189910888672,-0.7115955352783203,-0.23253726959228516
559,276340928.0,9.420273780822754,-1.7765512466430664,2.729473114013672,-1.9313831329345703,0.4655342102050781,0.9779424667358398,0.6206169128417969,-0.23314189910888672,-0.7115955352783203,-0.23253726959228516
560,276340960.0,9.7171630859375,-2.134495735168457,2.4182167053222656,-1.9313831329345703,0.4655342102050781,0.9779424667358398,0.6206169128417969,-0.23314189910888672,-0.7115955352783203,-0.23253726959228516
