,timestamp,accel_x,accel_y,accel_z,gyro_x,gyro_y,gyro_z,ori_scalar,ori_x,ori_y,ori_z
0,276802880.0,9.038386344909668,-4.379127502441406,3.098191261291504,0.16938209533691406,-0.07030868530273438,0.2705850601196289,0.31328582763671875,0.5843639373779297,-0.7483663558959961,0.01747894287109375
1,276802912.0,9.324501991271973,-4.118151664733887,3.312479019165039,0.16938209533691406,-0.07030868530273438,0.2705850601196289,0.31328582763671875,0.5843639373779297,-0.7483663558959961,0.01747894287109375
2,276802912.0,9.332881927490234,-3.770981788635254,3.284944534301758,0.16938209533691406,-0.07030868530273438,0.2705850601196289,0.31328582763671875,0.5843639373779297,-0.7483663558959961,0.01747894287109375
3,276802944.0,9.176057815551758,-3.6105661392211914,3.0814313888549805,0.16938209533691406,-0.07030868530273438,0.2705850601196289,0.31328582763671875,0.5843639373779297,-0.7483663558959961,0.01747894287109375
4,276802976.0,9.1868314743042,-3.4094467163085938,3.08382511138916,0.16938209533691406,-0.07030868530273438,0.2705850601196289,0.31328582763671875,0.5843639373779297,-0.7483663558959961,0.01747894287109375
5,276802976.0,9.270630836486816,-3.2322702407836914,3.1448793411254883,0.16938209533691406,-0.07030868530273438,0.2705850601196289,0.31328582763671875,0.5843639373779297,-0.7483663558959961,0.01747894287109375
6,276803008.0,9.447807312011719,-3.150864601135254,2.9808712005615234,-0.03728485107421875,0.04367637634277344,0.27910709381103516,0.3131999969482422,0.5885505676269531,-0.7451295852661133,0.016615867614746094
7,276803008.0,9.37478256225586,-3.119739532470703,2.7043323516845703,-0.03728485107421875,0.04367637634277344,0.27910709381103516,0.3131999969482422,0.5885505676269531,-0.7451295852661133,0.016615867614746094
8,276803040.0,9.223942756652832,-3.113753318786621,2.6959524154663086,-0.03728485107421875,0.04367637634277344,0.27910709381103516,0.3131999969482422,0.5885505676269531,-0.7451295852661133,0.016615867614746094
9,276803072.0,9.152114868164062,-3.2011451721191406,2.649264335632324,-0.03728485107421875,0.04367637634277344,0.27910709381103516,0.3131999969482422,0.5885505676269531,-0.7451295852661133,0.016615867614746094
10,276803072.0,9.262250900268555,-3.184385299682617,2.407443046569824,-0.03728485107421875,0.04367637634277344,0.27910709381103516,0.3131999969482422,0.5885505676269531,-0.7451295852661133,0.016615867614746094
11,276803104.0,9.21436595916748,-3.089811325073242,2.212308883666992,-0.03728485107421875,0.04367637634277344,0.27910709381103516,0.3131999969482422,0.5885505676269531,-0.7451295852661133,0.016615867614746094
12,276803136.0,9.070709228515625,-3.0730514526367188,2.2039289474487305,0.0,0.08309268951416016,0.2578010559082031,0.5847949981689453,0.4625711441040039,-0.6464262008666992,0.16193008422851562
13,276803264.0,9.092257499694824,-2.9461545944213867,2.0506954193115234,0.0916147232055664,0.024501800537109375,0.27271556854248047,0.5869102478027344,0.4698209762573242,-0.6398658752441406,0.1592111587524414
14,276803296.0,8.980923652648926,-3.0527000427246094,2.0937929153442383,0.0916147232055664,0.024501800537109375,0.27271556854248047,0.5869102478027344,0.4698209762573242,-0.6398658752441406,0.1592111587524414
15,276803328.0,8.956981658935547,-2.9653091430664062,2.0758352279663086,0.1491413116455078,-0.004261016845703125,0.20560169219970703,0.5869102478027344,0.4698209762573242,-0.6398658752441406,0.1592111587524414
16,276803520.0,8.998881340026855,-3.190370559692383,2.4242029190063477,0.08522319793701172,-0.07883167266845703,-0.1374225616455078,0.5917873382568359,0.47279930114746094,-0.6299829483032227,0.1715106964111328
17,276803552.0,8.915081024169922,-3.131711006164551,2.387091636657715,0.08948421478271484,-0.06711292266845703,-0.15233707427978516,0.5917873382568359,0.47279930114746094,-0.6299829483032227,0.1715106964111328
18,276803584.0,8.92465877532959,-3.185582160949707,2.417019844055176,0.052199363708496094,-0.07350540161132812,-0.1789693832397461,0.5917873382568359,0.47279930114746094,-0.6299829483032227,0.1715106964111328
19,276803584.0,8.99528980255127,-3.211918830871582,2.443356513977051,0.052199363708496094,-0.07350540161132812,-0.1789693832397461,0.5917873382568359,0.47279930114746094,-0.6299829483032227,0.1715106964111328
20,276803616.0,9.04676628112793,-3.255016326904297,2.5247621536254883,0.04793834686279297,-0.06711292266845703,-0.18216514587402344,0.5917873382568359,0.47279930114746094,-0.6299829483032227,0.1715106964111328
21,276803648.0,9.010852813720703,-3.219101905822754,2.4206113815307617,-0.004261016845703125,-0.041545867919921875,-0.16405487060546875,0.5909242630004883,0.4661102294921875,-0.6322708129882812,0.1838541030883789
22,276803648.0,8.998881340026855,-3.3005075454711914,2.4289913177490234,-0.004261016845703125,-0.041545867919921875,-0.16405487060546875,0.5909242630004883,0.4661102294921875,-0.6322708129882812,0.1838541030883789
23,276803776.0,9.058737754821777,-3.432191848754883,2.3990631103515625,-0.004261016845703125,-0.041545867919921875,-0.16405487060546875,0.5900602340698242,0.4633913040161133,-0.6340398788452148,0.18730640411376953
24,276803776.0,9.073103904724121,-3.3148727416992188,2.4529342651367188,-0.004261016845703125,-0.041545867919921875,-0.16405487060546875,0.5900602340698242,0.4633913040161133,-0.6340398788452148,0.18730640411376953
25,276803808.0,9.063526153564453,-3.3424072265625,2.3092775344848633,-0.004261016845703125,-0.041545867919921875,-0.16405487060546875,0.5900602340698242,0.4633913040161133,-0.6340398788452148,0.18730640411376953
26,276803840.0,9.092257499694824,-3.310084342956543,2.3356142044067383,-0.004261016845703125,-0.041545867919921875,-0.16405487060546875,0.5900602340698242,0.4633913040161133,-0.6340398788452148,0.18730640411376953
27,276803840.0,9.050357818603516,-3.3867006301879883,2.339205741882324,-0.004261016845703125,-0.041545867919921875,-0.16405487060546875,0.5900602340698242,0.4633913040161133,-0.6340398788452148,0.18730640411376953
28,276803872.0,9.032401084899902,-3.368743896484375,2.3368120193481445,-0.019174575805664062,0.03621959686279297,-0.053264617919921875,0.5892839431762695,0.46071529388427734,-0.6366291046142578,0.1873931884765625
29,276803904.0,9.035992622375488,-3.365152359008789,2.22308349609375,-0.03728485107421875,0.03621959686279297,-0.013848304748535156,0.5894136428833008,0.4606285095214844,-0.6368017196655273,0.1869182586669922
30,276803904.0,9.140143394470215,-3.3412094116210938,2.227871894836426,-0.03728485107421875,0.03621959686279297,-0.013848304748535156,0.5894136428833008,0.4606285095214844,-0.6368017196655273,0.1869182586669922
31,276803936.0,9.051554679870605,-3.39388370513916,2.2087182998657227,-0.031958580017089844,0.04900360107421875,0.0,0.5895862579345703,0.4606285095214844,-0.6369743347167969,0.1856231689453125
32,276803968.0,9.008458137512207,-3.3926868438720703,2.1728038787841797,-0.0031957626342773438,0.033023834228515625,0.010652542114257812,0.5895862579345703,0.4606285095214844,-0.6369743347167969,0.1856231689453125
33,276804160.0,9.02521800994873,-3.0682621002197266,2.1835784912109375,0.057525634765625,-0.025567054748535156,0.0809621810913086,0.5912694931030273,0.46572113037109375,-0.6328315734863281,0.18178272247314453
34,276804192.0,8.92705249786377,-3.059882164001465,2.286531448364258,0.04900360107421875,-0.02982807159423828,0.06817817687988281,0.5912694931030273,0.46572113037109375,-0.6328315734863281,0.18178272247314453
35,276804224.0,8.985712051391602,-3.146076202392578,2.29132080078125,0.0809621810913086,-0.04687213897705078,0.042611122131347656,0.5912694931030273,0.46572113037109375,-0.6328315734863281,0.18178272247314453
36,276804224.0,9.056344032287598,-3.0862197875976562,2.3116722106933594,0.0809621810913086,-0.04687213897705078,0.042611122131347656,0.5912694931030273,0.46572113037109375,-0.6328315734863281,0.18178272247314453
37,276804256.0,9.04437255859375,-3.03115177154541,2.248223304748535,0.06391716003417969,-0.030893325805664062,0.03621959686279297,0.5916576385498047,0.46951961517333984,-0.629206657409668,0.18320655822753906
38,276804384.0,9.11500358581543,-3.087416648864746,2.3703317642211914,0.041545867919921875,-0.013848304748535156,-0.004261016845703125,0.5920886993408203,0.47046852111816406,-0.6278247833251953,0.18406963348388672
39,276804384.0,9.003669738769531,-3.1005849838256836,2.3715286254882812,0.041545867919921875,-0.013848304748535156,-0.004261016845703125,0.5920886993408203,0.47046852111816406,-0.6278247833251953,0.18406963348388672
40,276804416.0,9.000078201293945,-3.0706567764282227,2.3595571517944336,0.053264617919921875,-0.024501800537109375,-0.01597881317138672,0.5920886993408203,0.47046852111816406,-0.6278247833251953,0.18406963348388672
41,276804416.0,9.04556941986084,-3.061079978942871,2.314065933227539,0.053264617919921875,-0.024501800537109375,-0.01597881317138672,0.5920886993408203,0.47046852111816406,-0.6278247833251953,0.18406963348388672
42,276804448.0,9.028809547424316,-3.1185426712036133,2.3595571517944336,0.06391716003417969,-0.01810932159423828,-0.01810932159423828,0.5914421081542969,0.47150421142578125,-0.6268758773803711,0.18678855895996094
43,276804576.0,8.983318328857422,-3.057488441467285,2.099778175354004,0.17577362060546875,-0.05539512634277344,-0.06498241424560547,0.5901470184326172,0.4724111557006836,-0.6265735626220703,0.18972396850585938
44,276804576.0,8.984515190124512,-3.0862197875976562,2.1117496490478516,0.17577362060546875,-0.05539512634277344,-0.06498241424560547,0.5901470184326172,0.4724111557006836,-0.6265735626220703,0.18972396850585938
45,276804608.0,8.943812370300293,-3.03115177154541,2.244631767272949,0.196014404296875,-0.07244014739990234,-0.0862884521484375,0.5901470184326172,0.4724111557006836,-0.6265735626220703,0.18972396850585938
46,276804640.0,9.031203269958496,-2.970097541809082,2.2326602935791016,0.05539512634277344,-0.09374523162841797,-0.11718177795410156,0.5901470184326172,0.4724111557006836,-0.6265735626220703,0.18972396850585938
47,276804640.0,9.134157180786133,-3.0479116439819336,2.175198554992676,0.05539512634277344,-0.09374523162841797,-0.11718177795410156,0.5901470184326172,0.4724111557006836,-0.6265735626220703,0.18972396850585938
48,276804672.0,9.131763458251953,-3.128119468688965,2.280546188354492,0.05539512634277344,-0.09374523162841797,-0.11718177795410156,0.5901470184326172,0.4724111557006836,-0.6265735626220703,0.18972396850585938
49,276804672.0,9.131763458251953,-3.3567724227905273,2.2709693908691406,0.05539512634277344,-0.09374523162841797,-0.11718177795410156,0.5901470184326172,0.4724111557006836,-0.6265735626220703,0.18972396850585938
50,276804704.0,9.190423011779785,-3.3855037689208984,2.3523740768432617,0.05539512634277344,-0.09374523162841797,-0.11718177795410156,0.5901470184326172,0.4724111557006836,-0.6265735626220703,0.18972396850585938
51,276804736.0,9.239505767822266,-3.280156135559082,2.354768753051758,0.05539512634277344,-0.09374523162841797,-0.11718177795410156,0.5901470184326172,0.4724111557006836,-0.6265735626220703,0.18972396850585938
52,276804736.0,9.201197624206543,-3.249030113220215,2.324840545654297,0.05539512634277344,-0.09374523162841797,-0.11718177795410156,0.5901470184326172,0.4724111557006836,-0.6265735626220703,0.18972396850585938
53,276804768.0,9.070709228515625,-3.219101905822754,2.3739233016967773,0.07244014739990234,-0.034089088439941406,0.023435592651367188,0.5901470184326172,0.4724111557006836,-0.6265735626220703,0.18972396850585938
54,276804800.0,9.070709228515625,-3.2131166458129883,2.4361743927001953,0.07350540161132812,-0.0170440673828125,0.05539512634277344,0.5901470184326172,0.4724111557006836,-0.6265735626220703,0.18972396850585938
55,276804800.0,9.06592082977295,-3.124527931213379,2.3308258056640625,0.07350540161132812,-0.0170440673828125,0.05539512634277344,0.5901470184326172,0.4724111557006836,-0.6265735626220703,0.18972396850585938
56,276804832.0,9.171268463134766,-3.117344856262207,2.278151512145996,0.054329872131347656,-0.009587287902832031,0.05006885528564453,0.5901470184326172,0.4724111557006836,-0.6265735626220703,0.18972396850585938
57,276804864.0,9.123383522033691,-3.1400909423828125,2.2697715759277344,0.040480613708496094,0.0021305084228515625,0.042611122131347656,0.5880317687988281,0.4758634567260742,-0.6210489273071289,0.20495891571044922
58,276804960.0,9.106623649597168,-3.064671516418457,2.1763954162597656,0.01810932159423828,0.019174575805664062,0.08202743530273438,0.5874710083007812,0.47780609130859375,-0.620142936706543,0.20491504669189453
59,276804992.0,9.057540893554688,-3.000025749206543,2.281743049621582,0.04474163055419922,0.01810932159423828,0.07989692687988281,0.5874710083007812,0.47780609130859375,-0.620142936706543,0.20491504669189453
60,276804992.0,9.027612686157227,-2.9437599182128906,2.197943687438965,0.04474163055419922,0.01810932159423828,0.07989692687988281,0.5874710083007812,0.47780609130859375,-0.620142936706543,0.20491504669189453
61,276805024.0,8.99528980255127,-2.875523567199707,2.225478172302246,0.02982807159423828,0.019174575805664062,0.05965614318847656,0.5874710083007812,0.47780609130859375,-0.620142936706543,0.20491504669189453
62,276805056.0,8.949798583984375,-2.9234085083007812,2.2326602935791016,0.0170440673828125,0.009587287902832031,0.030893325805664062,0.5874710083007812,0.47780609130859375,-0.620142936706543,0.20491504669189453
63,276805056.0,8.953390121459961,-2.9904489517211914,2.2398433685302734,0.0170440673828125,0.009587287902832031,0.030893325805664062,0.5874710083007812,0.47780609130859375,-0.620142936706543,0.20491504669189453
64,276805088.0,8.988106727600098,-2.9820690155029297,2.159635543823242,0.0170440673828125,0.009587287902832031,0.030893325805664062,0.5874710083007812,0.47780609130859375,-0.620142936706543,0.20491504669189453
65,276805120.0,9.031203269958496,-3.029953956604004,2.185972213745117,0.0170440673828125,0.009587287902832031,0.030893325805664062,0.5874710083007812,0.47780609130859375,-0.620142936706543,0.20491504669189453
66,276805120.0,9.089863777160645,-3.03354549407959,2.2051267623901367,0.0170440673828125,0.009587287902832031,0.030893325805664062,0.5874710083007812,0.47780609130859375,-0.620142936706543,0.20491504669189453
67,276805152.0,9.130566596984863,-3.0096025466918945,2.230266571044922,0.0170440673828125,0.009587287902832031,0.030893325805664062,0.5874710083007812,0.47780609130859375,-0.620142936706543,0.20491504669189453
68,276805152.0,9.176057815551758,-2.970097541809082,2.229069709777832,0.0170440673828125,0.009587287902832031,0.030893325805664062,0.5874710083007812,0.47780609130859375,-0.620142936706543,0.20491504669189453
69,276805152.0,9.176057815551758,-2.970097541809082,2.229069709777832,0.0170440673828125,0.009587287902832031,0.030893325805664062,0.5874710083007812,0.47780609130859375,-0.620142936706543,0.20491504669189453
70,276805184.0,9.091060638427734,-3.0155887603759766,2.255406379699707,0.0170440673828125,0.009587287902832031,0.030893325805664062,0.5874710083007812,0.47780609130859375,-0.620142936706543,0.20491504669189453
71,276805184.0,9.091060638427734,-3.0155887603759766,2.255406379699707,0.0170440673828125,0.009587287902832031,0.030893325805664062,0.5874710083007812,0.47780609130859375,-0.620142936706543,0.20491504669189453
72,276805216.0,9.053949356079102,-3.0347423553466797,2.316460609436035,0.0170440673828125,0.009587287902832031,0.030893325805664062,0.5874710083007812,0.47780609130859375,-0.620142936706543,0.20491504669189453
73,276805216.0,9.110215187072754,-3.091008186340332,2.3236427307128906,0.0170440673828125,0.009587287902832031,0.030893325805664062,0.5874710083007812,0.47780609130859375,-0.620142936706543,0.20491504669189453
74,276805216.0,9.053949356079102,-3.0347423553466797,2.316460609436035,0.0170440673828125,0.009587287902832031,0.030893325805664062,0.5874710083007812,0.47780609130859375,-0.620142936706543,0.20491504669189453
75,276805216.0,9.110215187072754,-3.091008186340332,2.3236427307128906,0.0170440673828125,0.009587287902832031,0.030893325805664062,0.5874710083007812,0.47780609130859375,-0.620142936706543,0.20491504669189453
76,276805248.0,9.219154357910156,-3.0682621002197266,2.316460609436035,0.0170440673828125,0.009587287902832031,0.030893325805664062,0.5874710083007812,0.47780609130859375,-0.620142936706543,0.20491504669189453
77,276805248.0,9.219154357910156,-3.0682621002197266,2.316460609436035,0.0170440673828125,0.009587287902832031,0.030893325805664062,0.5874710083007812,0.47780609130859375,-0.620142936706543,0.20491504669189453
78,276805280.0,9.16648006439209,-3.1089649200439453,2.320052146911621,0.0809621810913086,-0.0063915252685546875,-0.02769756317138672,0.5874710083007812,0.47780609130859375,-0.620142936706543,0.20491504669189453
79,276805280.0,9.056344032287598,-3.1376962661743164,2.3020944595336914,0.0809621810913086,-0.0063915252685546875,-0.02769756317138672,0.5874710083007812,0.47780609130859375,-0.620142936706543,0.20491504669189453
80,276805312.0,9.068314552307129,-3.1329078674316406,2.3296289443969727,0.05006885528564453,0.0063915252685546875,0.03941535949707031,0.5874710083007812,0.47780609130859375,-0.620142936706543,0.20491504669189453
81,276805312.0,9.104228973388672,-3.094599723815918,2.2769546508789062,0.05006885528564453,0.0063915252685546875,0.03941535949707031,0.5874710083007812,0.47780609130859375,-0.620142936706543,0.20491504669189453
82,276805344.0,9.098243713378906,-3.0467138290405273,2.256603240966797,0.0063915252685546875,0.010652542114257812,0.07776641845703125,0.5874710083007812,0.47780609130859375,-0.620142936706543,0.20491504669189453
83,276805376.0,9.0754976272583,-3.063473701477051,2.215900421142578,0.0063915252685546875,0.010652542114257812,0.07776641845703125,0.5874710083007812,0.47780609130859375,-0.620142936706543,0.20491504669189453
84,276805376.0,9.09465217590332,-3.0167856216430664,2.225478172302246,0.0063915252685546875,0.010652542114257812,0.07776641845703125,0.5874710083007812,0.47780609130859375,-0.620142936706543,0.20491504669189453
85,276805408.0,9.131763458251953,-3.001222610473633,2.212308883666992,0.0063915252685546875,0.010652542114257812,0.07776641845703125,0.5874710083007812,0.47780609130859375,-0.620142936706543,0.20491504669189453
86,276805440.0,9.088665962219238,-2.942563056945801,2.1955490112304688,0.0063915252685546875,0.010652542114257812,0.07776641845703125,0.5874710083007812,0.47780609130859375,-0.620142936706543,0.20491504669189453
87,276805440.0,9.049160957336426,-2.8970718383789062,2.3056859970092773,0.0063915252685546875,0.010652542114257812,0.07776641845703125,0.5874710083007812,0.47780609130859375,-0.620142936706543,0.20491504669189453
88,276805472.0,9.047964096069336,-2.752218246459961,2.3092775344848633,0.02769756317138672,-0.00852203369140625,0.08415794372558594,0.5874710083007812,0.47780609130859375,-0.620142936706543,0.20491504669189453
89,276805472.0,8.967755317687988,-2.7139101028442383,2.2673778533935547,0.02769756317138672,-0.00852203369140625,0.08415794372558594,0.5874710083007812,0.47780609130859375,-0.620142936706543,0.20491504669189453
90,276805504.0,8.990501403808594,-2.758204460144043,2.3008975982666016,-0.00852203369140625,-0.013848304748535156,0.03835010528564453,0.5874710083007812,0.47780609130859375,-0.620142936706543,0.20491504669189453
91,276805536.0,8.985712051391602,-2.8839035034179688,2.296109199523926,0.042611122131347656,-0.022370338439941406,-0.04367637634277344,0.5874710083007812,0.47780609130859375,-0.620142936706543,0.20491504669189453
92,276805536.0,8.960572242736816,-2.871932029724121,2.3032913208007812,0.042611122131347656,-0.022370338439941406,-0.04367637634277344,0.5874710083007812,0.47780609130859375,-0.620142936706543,0.20491504669189453
93,276805664.0,9.125777244567871,-2.9916458129882812,2.339205741882324,0.10865974426269531,-0.04367637634277344,-0.08415794372558594,0.5874710083007812,0.47780609130859375,-0.620142936706543,0.20491504669189453
94,276805696.0,9.140143394470215,-2.948549270629883,2.3595571517944336,0.011717796325683594,-0.0170440673828125,-0.053264617919921875,0.5874710083007812,0.47780609130859375,-0.620142936706543,0.20491504669189453
95,276805696.0,9.080286026000977,-2.9724912643432617,2.314065933227539,0.011717796325683594,-0.0170440673828125,-0.053264617919921875,0.5874710083007812,0.47780609130859375,-0.620142936706543,0.20491504669189453
96,276805728.0,9.079089164733887,-3.007208824157715,2.340402603149414,-0.020239830017089844,-0.013848304748535156,-0.041545867919921875,0.5874710083007812,0.47780609130859375,-0.620142936706543,0.20491504669189453
97,276805760.0,9.109017372131348,-3.0826282501220703,2.324840545654297,-0.020239830017089844,-0.011717796325683594,-0.033023834228515625,0.5874710083007812,0.47780609130859375,-0.620142936706543,0.20491504669189453
98,276805760.0,9.110215187072754,-3.0742483139038086,2.296109199523926,-0.020239830017089844,-0.011717796325683594,-0.033023834228515625,0.5874710083007812,0.47780609130859375,-0.620142936706543,0.20491504669189453
99,276805760.0,9.110215187072754,-3.0742483139038086,2.296109199523926,-0.020239830017089844,-0.011717796325683594,-0.033023834228515625,0.5874710083007812,0.47780609130859375,-0.620142936706543,0.20491504669189453
100,276805792.0,9.135354995727539,-2.9880542755126953,2.324840545654297,-0.020239830017089844,-0.011717796325683594,-0.033023834228515625,0.5874710083007812,0.47780609130859375,-0.620142936706543,0.20491504669189453
101,276805792.0,9.16648006439209,-2.9772796630859375,2.2673778533935547,-0.020239830017089844,-0.011717796325683594,-0.033023834228515625,0.5874710083007812,0.47780609130859375,-0.620142936706543,0.20491504669189453
102,276805792.0,9.135354995727539,-2.9880542755126953,2.324840545654297,-0.020239830017089844,-0.011717796325683594,-0.033023834228515625,0.5874710083007812,0.47780609130859375,-0.620142936706543,0.20491504669189453
103,276805792.0,9.16648006439209,-2.9772796630859375,2.2673778533935547,-0.020239830017089844,-0.011717796325683594,-0.033023834228515625,0.5874710083007812,0.47780609130859375,-0.620142936706543,0.20491504669189453
104,276805824.0,9.147326469421387,-3.010800361633301,2.2997007369995117,-0.020239830017089844,-0.011717796325683594,-0.033023834228515625,0.5874710083007812,0.47780609130859375,-0.620142936706543,0.20491504669189453
105,276805824.0,9.147326469421387,-3.010800361633301,2.2997007369995117,-0.020239830017089844,-0.011717796325683594,-0.033023834228515625,0.5874710083007812,0.47780609130859375,-0.620142936706543,0.20491504669189453
106,276805856.0,9.16408634185791,-3.1053733825683594,2.2757577896118164,0.019174575805664062,0.0021305084228515625,-0.0063915252685546875,0.5874710083007812,0.47780609130859375,-0.620142936706543,0.20491504669189453
107,276805856.0,9.16408634185791,-3.1053733825683594,2.2757577896118164,0.019174575805664062,0.0021305084228515625,-0.0063915252685546875,0.5874710083007812,0.47780609130859375,-0.620142936706543,0.20491504669189453
108,276805952.0,9.0754976272583,-2.8575668334960938,2.2135066986083984,0.1033334732055664,0.0,-0.0021305084228515625,0.5874710083007812,0.47780609130859375,-0.620142936706543,0.20491504669189453
109,276805984.0,9.098243713378906,-2.8946781158447266,2.22428035736084,0.041545867919921875,-0.0063915252685546875,-0.009587287902832031,0.5874710083007812,0.47780609130859375,-0.620142936706543,0.20491504669189453
110,276806016.0,9.123383522033691,-2.9832658767700195,2.2206897735595703,0.0170440673828125,-0.01597881317138672,-0.01810932159423828,0.5874710083007812,0.47780609130859375,-0.620142936706543,0.20491504669189453
111,276806016.0,9.113805770874023,-3.058685302734375,2.262589454650879,0.0170440673828125,-0.01597881317138672,-0.01810932159423828,0.5874710083007812,0.47780609130859375,-0.620142936706543,0.20491504669189453
112,276806048.0,9.105425834655762,-2.9772796630859375,2.2362518310546875,0.033023834228515625,-0.023435592651367188,-0.0010652542114257812,0.5874710083007812,0.47780609130859375,-0.620142936706543,0.20491504669189453
113,276806080.0,9.098243713378906,-2.968899726867676,2.2039289474487305,0.033023834228515625,-0.023435592651367188,-0.0010652542114257812,0.5874710083007812,0.47780609130859375,-0.620142936706543,0.20491504669189453
114,276806080.0,9.09584903717041,-2.9832658767700195,2.2757577896118164,0.033023834228515625,-0.023435592651367188,-0.0010652542114257812,0.5874710083007812,0.47780609130859375,-0.620142936706543,0.20491504669189453
115,276806112.0,9.092257499694824,-3.063473701477051,2.2673778533935547,0.033023834228515625,-0.023435592651367188,-0.0010652542114257812,0.5874710083007812,0.47780609130859375,-0.620142936706543,0.20491504669189453
116,276806112.0,9.104228973388672,-2.9533376693725586,2.253011703491211,0.033023834228515625,-0.023435592651367188,-0.0010652542114257812,0.5874710083007812,0.47780609130859375,-0.620142936706543,0.20491504669189453
117,276806144.0,9.11739730834961,-2.916226387023926,2.226675033569336,0.033023834228515625,-0.023435592651367188,-0.0010652542114257812,0.5874710083007812,0.47780609130859375,-0.620142936706543,0.20491504669189453
118,276806176.0,9.148523330688477,-2.904254913330078,2.2673778533935547,-0.004261016845703125,-0.014913558959960938,0.021305084228515625,0.5874710083007812,0.47780609130859375,-0.620142936706543,0.20491504669189453
119,276806176.0,9.119791984558105,-2.968899726867676,2.2685747146606445,-0.004261016845703125,-0.014913558959960938,0.021305084228515625,0.5874710083007812,0.47780609130859375,-0.620142936706543,0.20491504669189453
120,276806176.0,9.148523330688477,-2.904254913330078,2.2673778533935547,-0.004261016845703125,-0.014913558959960938,0.021305084228515625,0.5874710083007812,0.47780609130859375,-0.620142936706543,0.20491504669189453
121,276806176.0,9.119791984558105,-2.968899726867676,2.2685747146606445,-0.004261016845703125,-0.014913558959960938,0.021305084228515625,0.5874710083007812,0.47780609130859375,-0.620142936706543,0.20491504669189453
122,276806208.0,9.105425834655762,-3.0048141479492188,2.2470264434814453,0.061786651611328125,-0.02769756317138672,0.01597881317138672,0.5874710083007812,0.47780609130859375,-0.620142936706543,0.20491504669189453
123,276806208.0,9.119791984558105,-2.9880542755126953,2.2135066986083984,0.061786651611328125,-0.02769756317138672,0.01597881317138672,0.5874710083007812,0.47780609130859375,-0.620142936706543,0.20491504669189453
124,276806208.0,9.105425834655762,-3.0048141479492188,2.2470264434814453,0.061786651611328125,-0.02769756317138672,0.01597881317138672,0.5874710083007812,0.47780609130859375,-0.620142936706543,0.20491504669189453
125,276806208.0,9.119791984558105,-2.9880542755126953,2.2135066986083984,0.061786651611328125,-0.02769756317138672,0.01597881317138672,0.5874710083007812,0.47780609130859375,-0.620142936706543,0.20491504669189453
126,276806240.0,9.123383522033691,-3.0443201065063477,2.22308349609375,0.09587669372558594,-0.025567054748535156,0.0170440673828125,0.5874710083007812,0.47780609130859375,-0.620142936706543,0.20491504669189453
127,276806240.0,9.123383522033691,-3.0443201065063477,2.22308349609375,0.09587669372558594,-0.025567054748535156,0.0170440673828125,0.5874710083007812,0.47780609130859375,-0.620142936706543,0.20491504669189453
128,276806368.0,9.182043075561523,-3.0419254302978516,2.347585678100586,0.07563591003417969,-0.0170440673828125,0.030893325805664062,0.5874710083007812,0.47780609130859375,-0.620142936706543,0.20491504669189453
129,276806368.0,9.162888526916504,-2.9617176055908203,2.3116722106933594,0.07563591003417969,-0.0170440673828125,0.030893325805664062,0.5874710083007812,0.47780609130859375,-0.620142936706543,0.20491504669189453
130,276806368.0,9.182043075561523,-3.0419254302978516,2.347585678100586,0.07563591003417969,-0.0170440673828125,0.030893325805664062,0.5874710083007812,0.47780609130859375,-0.620142936706543,0.20491504669189453
131,276806368.0,9.162888526916504,-2.9617176055908203,2.3116722106933594,0.07563591003417969,-0.0170440673828125,0.030893325805664062,0.5874710083007812,0.47780609130859375,-0.620142936706543,0.20491504669189453
132,276806368.0,9.182043075561523,-3.0419254302978516,2.347585678100586,0.07563591003417969,-0.0170440673828125,0.030893325805664062,0.5874710083007812,0.47780609130859375,-0.620142936706543,0.20491504669189453
133,276806368.0,9.162888526916504,-2.9617176055908203,2.3116722106933594,0.07563591003417969,-0.0170440673828125,0.030893325805664062,0.5874710083007812,0.47780609130859375,-0.620142936706543,0.20491504669189453
134,276806400.0,9.162888526916504,-2.9138317108154297,2.347585678100586,0.07244014739990234,-0.023435592651367188,0.040480613708496094,0.5874710083007812,0.47780609130859375,-0.620142936706543,0.20491504669189453
135,276806400.0,9.162888526916504,-2.9138317108154297,2.347585678100586,0.07244014739990234,-0.023435592651367188,0.040480613708496094,0.5874710083007812,0.47780609130859375,-0.620142936706543,0.20491504669189453
136,276806400.0,9.162888526916504,-2.9138317108154297,2.347585678100586,0.07244014739990234,-0.023435592651367188,0.040480613708496094,0.5874710083007812,0.47780609130859375,-0.620142936706543,0.20491504669189453
137,276806432.0,9.198802947998047,-2.874326705932617,2.4301881790161133,0.0170440673828125,0.0063915252685546875,0.04900360107421875,0.5874710083007812,0.47780609130859375,-0.620142936706543,0.20491504669189453
138,276806432.0,9.165283203125,-2.853975296020508,2.448145866394043,0.0170440673828125,0.0063915252685546875,0.04900360107421875,0.5874710083007812,0.47780609130859375,-0.620142936706543,0.20491504669189453
139,276806432.0,9.198802947998047,-2.874326705932617,2.4301881790161133,0.0170440673828125,0.0063915252685546875,0.04900360107421875,0.5874710083007812,0.47780609130859375,-0.620142936706543,0.20491504669189453
140,276806432.0,9.165283203125,-2.853975296020508,2.448145866394043,0.0170440673828125,0.0063915252685546875,0.04900360107421875,0.5874710083007812,0.47780609130859375,-0.620142936706543,0.20491504669189453
141,276806432.0,9.198802947998047,-2.874326705932617,2.4301881790161133,0.0170440673828125,0.0063915252685546875,0.04900360107421875,0.5874710083007812,0.47780609130859375,-0.620142936706543,0.20491504669189453
142,276806432.0,9.165283203125,-2.853975296020508,2.448145866394043,0.0170440673828125,0.0063915252685546875,0.04900360107421875,0.5874710083007812,0.47780609130859375,-0.620142936706543,0.20491504669189453
143,276806560.0,8.921067237854004,-2.8611574172973633,2.3607540130615234,0.02982807159423828,0.042611122131347656,0.007456779479980469,0.5874710083007812,0.47780609130859375,-0.620142936706543,0.20491504669189453
144,276806592.0,9.089863777160645,-3.0048141479492188,2.346388816833496,0.11611652374267578,0.031958580017089844,-0.011717796325683594,0.5874710083007812,0.47780609130859375,-0.620142936706543,0.20491504669189453
145,276806592.0,9.16408634185791,-3.000025749206543,2.2673778533935547,0.11611652374267578,0.031958580017089844,-0.011717796325683594,0.5874710083007812,0.47780609130859375,-0.620142936706543,0.20491504669189453
146,276806624.0,9.089863777160645,-2.905451774597168,2.29251766204834,0.16298961639404297,0.034089088439941406,-0.00852203369140625,0.5874710083007812,0.47780609130859375,-0.620142936706543,0.20491504669189453
147,276806656.0,9.101835250854492,-2.832426071166992,2.3044891357421875,0.08202743530273438,0.02982807159423828,-0.0031957626342773438,0.5874710083007812,0.47780609130859375,-0.620142936706543,0.20491504669189453
148,276806656.0,9.107820510864258,-2.84439754486084,2.2685747146606445,0.08202743530273438,0.02982807159423828,-0.0031957626342773438,0.5874710083007812,0.47780609130859375,-0.620142936706543,0.20491504669189453
149,276806688.0,9.09345531463623,-2.8910865783691406,2.22428035736084,0.010652542114257812,0.01810932159423828,0.0010652542114257812,0.5874710083007812,0.47780609130859375,-0.620142936706543,0.20491504669189453
150,276806688.0,9.09465217590332,-2.938971519470215,2.229069709777832,0.010652542114257812,0.01810932159423828,0.0010652542114257812,0.5874710083007812,0.47780609130859375,-0.620142936706543,0.20491504669189453
151,276806720.0,9.031203269958496,-2.9653091430664062,2.1775922775268555,0.0063915252685546875,0.014913558959960938,0.0031957626342773438,0.5874710083007812,0.47780609130859375,-0.620142936706543,0.20491504669189453
152,276806752.0,9.06592082977295,-2.9461545944213867,2.226675033569336,0.014913558959960938,-0.0021305084228515625,0.012783050537109375,0.5874710083007812,0.47780609130859375,-0.620142936706543,0.20491504669189453
153,276806752.0,9.06472396850586,-2.900663375854492,2.2206897735595703,0.014913558959960938,-0.0021305084228515625,0.012783050537109375,0.5874710083007812,0.47780609130859375,-0.620142936706543,0.20491504669189453
154,276806752.0,9.06472396850586,-2.900663375854492,2.2206897735595703,0.014913558959960938,-0.0021305084228515625,0.012783050537109375,0.5874710083007812,0.47780609130859375,-0.620142936706543,0.20491504669189453
155,276806784.0,9.055146217346191,-2.871932029724121,2.2326602935791016,-0.012783050537109375,-0.0031957626342773438,0.0170440673828125,0.5874710083007812,0.47780609130859375,-0.620142936706543,0.20491504669189453
156,276806784.0,9.055146217346191,-2.871932029724121,2.2326602935791016,-0.012783050537109375,-0.0031957626342773438,0.0170440673828125,0.5874710083007812,0.47780609130859375,-0.620142936706543,0.20491504669189453
157,276806816.0,9.049160957336426,-2.9102401733398438,2.2314634323120117,-0.03728485107421875,-0.010652542114257812,0.00852203369140625,0.5874710083007812,0.47780609130859375,-0.620142936706543,0.20491504669189453
158,276806816.0,9.041977882385254,-2.964111328125,2.2470264434814453,-0.03728485107421875,-0.010652542114257812,0.00852203369140625,0.5874710083007812,0.47780609130859375,-0.620142936706543,0.20491504669189453
159,276806816.0,9.049160957336426,-2.9102401733398438,2.2314634323120117,-0.03728485107421875,-0.010652542114257812,0.00852203369140625,0.5874710083007812,0.47780609130859375,-0.620142936706543,0.20491504669189453
160,276806816.0,9.041977882385254,-2.964111328125,2.2470264434814453,-0.03728485107421875,-0.010652542114257812,0.00852203369140625,0.5874710083007812,0.47780609130859375,-0.620142936706543,0.20491504669189453
161,276806848.0,9.040781021118164,-2.9138317108154297,2.284137725830078,-0.014913558959960938,-0.021305084228515625,0.005326271057128906,0.5874710083007812,0.47780609130859375,-0.620142936706543,0.20491504669189453
162,276806848.0,9.040781021118164,-2.9138317108154297,2.284137725830078,-0.014913558959960938,-0.021305084228515625,0.005326271057128906,0.5874710083007812,0.47780609130859375,-0.620142936706543,0.20491504669189453
163,276806976.0,9.122185707092285,-2.9569292068481445,2.3583602905273438,0.0,-0.02769756317138672,0.0031957626342773438,0.5874710083007812,0.47780609130859375,-0.620142936706543,0.20491504669189453
164,276806976.0,9.147326469421387,-2.9760828018188477,2.381105422973633,0.0,-0.02769756317138672,0.0031957626342773438,0.5874710083007812,0.47780609130859375,-0.620142936706543,0.20491504669189453
165,276807008.0,9.104228973388672,-2.9653091430664062,2.3858938217163086,0.022370338439941406,-0.021305084228515625,0.010652542114257812,0.5874710083007812,0.47780609130859375,-0.620142936706543,0.20491504669189453
166,276807008.0,9.09584903717041,-2.9150285720825195,2.381105422973633,0.022370338439941406,-0.021305084228515625,0.010652542114257812,0.5874710083007812,0.47780609130859375,-0.620142936706543,0.20491504669189453
167,276807040.0,9.137748718261719,-2.8922834396362305,2.390683174133301,0.012783050537109375,-0.019174575805664062,0.010652542114257812,0.5717182159423828,0.5074558258056641,-0.6005926132202148,0.23430633544921875
168,276807168.0,9.132960319519043,-2.8671436309814453,2.3523740768432617,0.0063915252685546875,-0.0031957626342773438,0.013848304748535156,0.571502685546875,0.5080165863037109,-0.6001176834106445,0.23486709594726562
169,276807168.0,9.074300765991211,-2.8946781158447266,2.3619518280029297,0.0063915252685546875,-0.0031957626342773438,0.013848304748535156,0.571502685546875,0.5080165863037109,-0.6001176834106445,0.23486709594726562
170,276807200.0,9.106623649597168,-2.8372154235839844,2.357163429260254,0.0063915252685546875,-0.0031957626342773438,0.013848304748535156,0.571502685546875,0.5080165863037109,-0.6001176834106445,0.23486709594726562
171,276807232.0,9.04676628112793,-2.806089401245117,2.328432083129883,0.0063915252685546875,-0.0031957626342773438,0.013848304748535156,0.571502685546875,0.5080165863037109,-0.6001176834106445,0.23486709594726562
172,276807232.0,9.18563461303711,-2.8240461349487305,2.343994140625,0.0063915252685546875,-0.0031957626342773438,0.013848304748535156,0.571502685546875,0.5080165863037109,-0.6001176834106445,0.23486709594726562
173,276807360.0,9.107820510864258,-2.9533376693725586,2.354768753051758,-0.025567054748535156,0.0021305084228515625,-0.024501800537109375,0.5708122253417969,0.5076284408569336,-0.6005926132202148,0.23607540130615234
174,276807360.0,9.107820510864258,-2.9533376693725586,2.354768753051758,-0.025567054748535156,0.0021305084228515625,-0.024501800537109375,0.5708122253417969,0.5076284408569336,-0.6005926132202148,0.23607540130615234
175,276807392.0,9.06592082977295,-2.9820690155029297,2.346388816833496,-0.025567054748535156,0.0021305084228515625,-0.024501800537109375,0.5708122253417969,0.5076284408569336,-0.6005926132202148,0.23607540130615234
176,276807392.0,9.091060638427734,-2.8922834396362305,2.320052146911621,-0.025567054748535156,0.0021305084228515625,-0.024501800537109375,0.5708122253417969,0.5076284408569336,-0.6005926132202148,0.23607540130615234
177,276807392.0,9.06592082977295,-2.9820690155029297,2.346388816833496,-0.025567054748535156,0.0021305084228515625,-0.024501800537109375,0.5708122253417969,0.5076284408569336,-0.6005926132202148,0.23607540130615234
178,276807392.0,9.091060638427734,-2.8922834396362305,2.320052146911621,-0.025567054748535156,0.0021305084228515625,-0.024501800537109375,0.5708122253417969,0.5076284408569336,-0.6005926132202148,0.23607540130615234
179,276807424.0,9.091060638427734,-2.8599605560302734,2.3451919555664062,-0.025567054748535156,0.0021305084228515625,-0.024501800537109375,0.5708122253417969,0.5076284408569336,-0.6005926132202148,0.23607540130615234
180,276807424.0,9.099440574645996,-2.875523567199707,2.314065933227539,-0.025567054748535156,0.0021305084228515625,-0.024501800537109375,0.5708122253417969,0.5076284408569336,-0.6005926132202148,0.23607540130615234
181,276807424.0,9.091060638427734,-2.8599605560302734,2.3451919555664062,-0.025567054748535156,0.0021305084228515625,-0.024501800537109375,0.5708122253417969,0.5076284408569336,-0.6005926132202148,0.23607540130615234
182,276807424.0,9.099440574645996,-2.875523567199707,2.314065933227539,-0.025567054748535156,0.0021305084228515625,-0.024501800537109375,0.5708122253417969,0.5076284408569336,-0.6005926132202148,0.23607540130615234
183,276807456.0,9.092257499694824,-2.9138317108154297,2.3080806732177734,-0.012783050537109375,0.0063915252685546875,-0.01597881317138672,0.5708122253417969,0.5076284408569336,-0.6005926132202148,0.23607540130615234
184,276807488.0,9.129368782043457,-2.8970718383789062,2.3080806732177734,-0.014913558959960938,0.0,-0.022370338439941406,0.5708122253417969,0.5076284408569336,-0.6005926132202148,0.23607540130615234
185,276807488.0,9.168874740600586,-2.838412284851074,2.29251766204834,-0.014913558959960938,0.0,-0.022370338439941406,0.5708122253417969,0.5076284408569336,-0.6005926132202148,0.23607540130615234
186,276807520.0,9.120988845825195,-2.905451774597168,2.286531448364258,-0.053264617919921875,0.0031957626342773438,-0.022370338439941406,0.5708122253417969,0.5076284408569336,-0.6005926132202148,0.23607540130615234
187,276807552.0,9.079089164733887,-2.9796743392944336,2.2506179809570312,0.0,-0.004261016845703125,-0.021305084228515625,0.5708122253417969,0.5076284408569336,-0.6005926132202148,0.23607540130615234
188,276807648.0,9.100637435913086,-2.967702865600586,2.2637863159179688,0.004261016845703125,-0.012783050537109375,-0.0031957626342773438,0.5708122253417969,0.5076284408569336,-0.6005926132202148,0.23607540130615234
189,276807680.0,9.125777244567871,-2.9138317108154297,2.287729263305664,0.013848304748535156,-0.019174575805664062,-0.0021305084228515625,0.5708122253417969,0.5076284408569336,-0.6005926132202148,0.23607540130615234
190,276807712.0,9.191619873046875,-2.8958749771118164,2.2745609283447266,0.0,-0.007456779479980469,0.0,0.5708122253417969,0.5076284408569336,-0.6005926132202148,0.23607540130615234
191,276807712.0,9.135354995727539,-2.901860237121582,2.2973060607910156,0.0,-0.007456779479980469,0.0,0.5708122253417969,0.5076284408569336,-0.6005926132202148,0.23607540130615234
192,276807840.0,9.110215187072754,-2.8623552322387695,2.3272342681884766,-0.0010652542114257812,-0.01597881317138672,0.0010652542114257812,0.5721931457519531,0.5050382614135742,-0.6013689041137695,0.23650741577148438
193,276807872.0,9.089863777160645,-2.8527774810791016,2.296109199523926,-0.004261016845703125,-0.013848304748535156,-0.0010652542114257812,0.5721931457519531,0.5050382614135742,-0.6013689041137695,0.23650741577148438
194,276807872.0,9.177254676818848,-2.8659467697143555,2.286531448364258,-0.004261016845703125,-0.013848304748535156,-0.0010652542114257812,0.5721931457519531,0.5050382614135742,-0.6013689041137695,0.23650741577148438
195,276807904.0,9.195211410522461,-2.8862972259521484,2.3368120193481445,0.0063915252685546875,-0.004261016845703125,-0.005326271057128906,0.5721931457519531,0.5050382614135742,-0.6013689041137695,0.23650741577148438
196,276807936.0,9.131763458251953,-2.8575668334960938,2.339205741882324,0.012783050537109375,-0.009587287902832031,-0.012783050537109375,0.5721931457519531,0.5050382614135742,-0.6013689041137695,0.23650741577148438
197,276807936.0,9.178451538085938,-2.8312292098999023,2.324840545654297,0.012783050537109375,-0.009587287902832031,-0.012783050537109375,0.5721931457519531,0.5050382614135742,-0.6013689041137695,0.23650741577148438
198,276807968.0,9.161691665649414,-2.8970718383789062,2.346388816833496,-0.010652542114257812,-0.0031957626342773438,-0.011717796325683594,0.5721931457519531,0.5050382614135742,-0.6013689041137695,0.23650741577148438
199,276808000.0,9.150917053222656,-2.9198179244995117,2.316460609436035,0.005326271057128906,-0.005326271057128906,-0.0031957626342773438,0.5721931457519531,0.5050382614135742,-0.6013689041137695,0.23650741577148438
200,276808000.0,9.131763458251953,-2.948549270629883,2.2997007369995117,0.005326271057128906,-0.005326271057128906,-0.0031957626342773438,0.5721931457519531,0.5050382614135742,-0.6013689041137695,0.23650741577148438
201,276808032.0,9.147326469421387,-2.868340492248535,2.3332204818725586,0.012783050537109375,-0.0010652542114257812,0.0063915252685546875,0.5721931457519531,0.5050382614135742,-0.6013689041137695,0.23650741577148438
202,276808032.0,9.148523330688477,-2.849186897277832,2.3356142044067383,0.012783050537109375,-0.0010652542114257812,0.0063915252685546875,0.5721931457519531,0.5050382614135742,-0.6013689041137695,0.23650741577148438
203,276808032.0,9.148523330688477,-2.849186897277832,2.3356142044067383,0.012783050537109375,-0.0010652542114257812,0.0063915252685546875,0.5721931457519531,0.5050382614135742,-0.6013689041137695,0.23650741577148438
204,276808064.0,9.099440574645996,-2.8527774810791016,2.3332204818725586,0.012783050537109375,-0.0010652542114257812,0.0063915252685546875,0.5721931457519531,0.5050382614135742,-0.6013689041137695,0.23650741577148438
205,276808064.0,9.111412048339844,-2.8276376724243164,2.339205741882324,0.012783050537109375,-0.0010652542114257812,0.0063915252685546875,0.5721931457519531,0.5050382614135742,-0.6013689041137695,0.23650741577148438
206,276808064.0,9.09345531463623,-2.8839035034179688,2.306882858276367,0.012783050537109375,-0.0010652542114257812,0.0063915252685546875,0.5721931457519531,0.5050382614135742,-0.6013689041137695,0.23650741577148438
207,276808064.0,9.099440574645996,-2.8527774810791016,2.3332204818725586,0.012783050537109375,-0.0010652542114257812,0.0063915252685546875,0.5721931457519531,0.5050382614135742,-0.6013689041137695,0.23650741577148438
208,276808096.0,9.112608909606934,-2.9246063232421875,2.285334587097168,0.012783050537109375,-0.0010652542114257812,0.0063915252685546875,0.5721931457519531,0.5050382614135742,-0.6013689041137695,0.23650741577148438
209,276808096.0,9.129368782043457,-2.864748954772949,2.3056859970092773,0.012783050537109375,-0.0010652542114257812,0.0063915252685546875,0.5721931457519531,0.5050382614135742,-0.6013689041137695,0.23650741577148438
210,276808096.0,9.134157180786133,-2.901860237121582,2.3020944595336914,0.012783050537109375,-0.0010652542114257812,0.0063915252685546875,0.5721931457519531,0.5050382614135742,-0.6013689041137695,0.23650741577148438
211,276808096.0,9.112608909606934,-2.9246063232421875,2.285334587097168,0.012783050537109375,-0.0010652542114257812,0.0063915252685546875,0.5721931457519531,0.5050382614135742,-0.6013689041137695,0.23650741577148438
212,276808096.0,9.129368782043457,-2.864748954772949,2.3056859970092773,0.012783050537109375,-0.0010652542114257812,0.0063915252685546875,0.5721931457519531,0.5050382614135742,-0.6013689041137695,0.23650741577148438
213,276808128.0,9.149720191955566,-2.8312292098999023,2.2709693908691406,0.012783050537109375,-0.0010652542114257812,0.0063915252685546875,0.5721931457519531,0.5050382614135742,-0.6013689041137695,0.23650741577148438
214,276808128.0,9.137748718261719,-2.8611574172973633,2.29251766204834,0.012783050537109375,-0.0010652542114257812,0.0063915252685546875,0.5721931457519531,0.5050382614135742,-0.6013689041137695,0.23650741577148438
215,276808128.0,9.149720191955566,-2.8312292098999023,2.2709693908691406,0.012783050537109375,-0.0010652542114257812,0.0063915252685546875,0.5721931457519531,0.5050382614135742,-0.6013689041137695,0.23650741577148438
216,276808256.0,9.103032112121582,-2.91143798828125,2.2398433685302734,-0.014913558959960938,0.0021305084228515625,-0.004261016845703125,0.5721931457519531,0.5050382614135742,-0.6013689041137695,0.23650741577148438
217,276808256.0,9.099440574645996,-2.932986259460449,2.2422380447387695,-0.014913558959960938,0.0021305084228515625,-0.004261016845703125,0.5721931457519531,0.5050382614135742,-0.6013689041137695,0.23650741577148438
218,276808288.0,9.135354995727539,-2.930591583251953,2.2769546508789062,0.0031957626342773438,-0.0063915252685546875,0.0010652542114257812,0.5721931457519531,0.5050382614135742,-0.6013689041137695,0.23650741577148438
219,276808320.0,9.124580383300781,-2.8946781158447266,2.258997917175293,-0.014913558959960938,0.0,0.007456779479980469,0.5721931457519531,0.5050382614135742,-0.6013689041137695,0.23650741577148438
220,276808320.0,9.172466278076172,-2.909043312072754,2.2721662521362305,-0.014913558959960938,0.0,0.007456779479980469,0.5721931457519531,0.5050382614135742,-0.6013689041137695,0.23650741577148438
221,276808448.0,9.113805770874023,-2.934183120727539,2.310474395751953,0.023435592651367188,-0.00852203369140625,0.0063915252685546875,0.5721931457519531,0.5050382614135742,-0.6013689041137695,0.23650741577148438
222,276808448.0,9.113805770874023,-2.934183120727539,2.310474395751953,0.023435592651367188,-0.00852203369140625,0.0063915252685546875,0.5721931457519531,0.5050382614135742,-0.6013689041137695,0.23650741577148438
223,276808448.0,9.113805770874023,-2.934183120727539,2.310474395751953,0.023435592651367188,-0.00852203369140625,0.0063915252685546875,0.5721931457519531,0.5050382614135742,-0.6013689041137695,0.23650741577148438
224,276808480.0,9.141340255737305,-2.879115104675293,2.3380088806152344,0.033023834228515625,-0.0021305084228515625,0.010652542114257812,0.5721931457519531,0.5050382614135742,-0.6013689041137695,0.23650741577148438
225,276808480.0,9.141340255737305,-2.879115104675293,2.3380088806152344,0.033023834228515625,-0.0021305084228515625,0.010652542114257812,0.5721931457519531,0.5050382614135742,-0.6013689041137695,0.23650741577148438
226,276808480.0,9.141340255737305,-2.879115104675293,2.3380088806152344,0.033023834228515625,-0.0021305084228515625,0.010652542114257812,0.5721931457519531,0.5050382614135742,-0.6013689041137695,0.23650741577148438
227,276808512.0,9.110215187072754,-2.849186897277832,2.346388816833496,-0.012783050537109375,0.012783050537109375,0.0170440673828125,0.5721931457519531,0.5050382614135742,-0.6013689041137695,0.23650741577148438
228,276808512.0,9.06592082977295,-2.8994665145874023,2.3356142044067383,-0.012783050537109375,0.012783050537109375,0.0170440673828125,0.5721931457519531,0.5050382614135742,-0.6013689041137695,0.23650741577148438
229,276808512.0,9.110215187072754,-2.849186897277832,2.346388816833496,-0.012783050537109375,0.012783050537109375,0.0170440673828125,0.5721931457519531,0.5050382614135742,-0.6013689041137695,0.23650741577148438
230,276808512.0,9.06592082977295,-2.8994665145874023,2.3356142044067383,-0.012783050537109375,0.012783050537109375,0.0170440673828125,0.5721931457519531,0.5050382614135742,-0.6013689041137695,0.23650741577148438
231,276808512.0,9.110215187072754,-2.849186897277832,2.346388816833496,-0.012783050537109375,0.012783050537109375,0.0170440673828125,0.5721931457519531,0.5050382614135742,-0.6013689041137695,0.23650741577148438
232,276808512.0,9.06592082977295,-2.8994665145874023,2.3356142044067383,-0.012783050537109375,0.012783050537109375,0.0170440673828125,0.5721931457519531,0.5050382614135742,-0.6013689041137695,0.23650741577148438
233,276808544.0,9.126975059509277,-2.966506004333496,2.266180992126465,-0.0031957626342773438,-0.005326271057128906,0.00852203369140625,0.5721931457519531,0.5050382614135742,-0.6013689041137695,0.23650741577148438
234,276808544.0,9.126975059509277,-2.966506004333496,2.266180992126465,-0.0031957626342773438,-0.005326271057128906,0.00852203369140625,0.5721931457519531,0.5050382614135742,-0.6013689041137695,0.23650741577148438
235,276808544.0,9.126975059509277,-2.966506004333496,2.266180992126465,-0.0031957626342773438,-0.005326271057128906,0.00852203369140625,0.5721931457519531,0.5050382614135742,-0.6013689041137695,0.23650741577148438
236,276808640.0,9.09584903717041,-2.927000045776367,2.3344173431396484,-0.0010652542114257812,0.007456779479980469,0.0170440673828125,0.5721931457519531,0.5050382614135742,-0.6013689041137695,0.23650741577148438
237,276808640.0,9.092257499694824,-2.96291446685791,2.296109199523926,-0.0010652542114257812,0.007456779479980469,0.0170440673828125,0.5721931457519531,0.5050382614135742,-0.6013689041137695,0.23650741577148438
238,276808672.0,9.105425834655762,-2.906648635864258,2.310474395751953,0.007456779479980469,0.0021305084228515625,0.0287628173828125,0.5721931457519531,0.5050382614135742,-0.6013689041137695,0.23650741577148438
239,276808672.0,9.09465217590332,-2.930591583251953,2.3332204818725586,0.007456779479980469,0.0021305084228515625,0.0287628173828125,0.5721931457519531,0.5050382614135742,-0.6013689041137695,0.23650741577148438
240,276808672.0,9.11620044708252,-2.8994665145874023,2.3056859970092773,0.007456779479980469,0.0021305084228515625,0.0287628173828125,0.5721931457519531,0.5050382614135742,-0.6013689041137695,0.23650741577148438
241,276808704.0,9.141340255737305,-2.880311965942383,2.328432083129883,0.0,0.011717796325683594,0.031958580017089844,0.5721931457519531,0.5050382614135742,-0.6013689041137695,0.23650741577148438
242,276808704.0,9.0970458984375,-2.8563690185546875,2.321249008178711,0.0,0.011717796325683594,0.031958580017089844,0.5721931457519531,0.5050382614135742,-0.6013689041137695,0.23650741577148438
243,276808704.0,9.11739730834961,-2.8635520935058594,2.343994140625,0.0,0.011717796325683594,0.031958580017089844,0.5721931457519531,0.5050382614135742,-0.6013689041137695,0.23650741577148438
244,276808736.0,9.09465217590332,-2.850383758544922,2.29251766204834,-0.007456779479980469,0.01597881317138672,0.0287628173828125,0.5721931457519531,0.5050382614135742,-0.6013689041137695,0.23650741577148438
245,276808736.0,9.088665962219238,-2.853975296020508,2.2901229858398438,-0.007456779479980469,0.01597881317138672,0.0287628173828125,0.5721931457519531,0.5050382614135742,-0.6013689041137695,0.23650741577148438
246,276808768.0,9.129368782043457,-2.8587636947631836,2.2649831771850586,-0.007456779479980469,0.01597881317138672,0.0287628173828125,0.5721931457519531,0.5050382614135742,-0.6013689041137695,0.23650741577148438
247,276808768.0,9.161691665649414,-2.882706642150879,2.2637863159179688,-0.007456779479980469,0.01597881317138672,0.0287628173828125,0.5721931457519531,0.5050382614135742,-0.6013689041137695,0.23650741577148438
248,276808800.0,9.129368782043457,-2.8851003646850586,2.314065933227539,-0.007456779479980469,0.01597881317138672,0.0287628173828125,0.5721931457519531,0.5050382614135742,-0.6013689041137695,0.23650741577148438
249,276808832.0,9.071906089782715,-2.941366195678711,2.3032913208007812,-0.0031957626342773438,0.0031957626342773438,0.004261016845703125,0.5723657608032227,0.5063333511352539,-0.6005926132202148,0.2352123260498047
250,276809056.0,9.09345531463623,-2.932986259460449,2.339205741882324,-0.0063915252685546875,-0.0031957626342773438,0.0010652542114257812,0.5721931457519531,0.5065059661865234,-0.6005926132202148,0.23529911041259766
251,276809056.0,9.09345531463623,-2.932986259460449,2.339205741882324,-0.0063915252685546875,-0.0031957626342773438,0.0010652542114257812,0.5721931457519531,0.5065059661865234,-0.6005926132202148,0.23529911041259766
252,276809056.0,9.09345531463623,-2.932986259460449,2.339205741882324,-0.0063915252685546875,-0.0031957626342773438,0.0010652542114257812,0.5721931457519531,0.5065059661865234,-0.6005926132202148,0.23529911041259766
253,276809088.0,9.089863777160645,-2.904254913330078,2.387091636657715,-0.0063915252685546875,-0.0031957626342773438,0.0010652542114257812,0.5721931457519531,0.5065059661865234,-0.6005926132202148,0.23529911041259766
254,276809088.0,9.074300765991211,-2.8994665145874023,2.3296289443969727,-0.0063915252685546875,-0.0031957626342773438,0.0010652542114257812,0.5721931457519531,0.5065059661865234,-0.6005926132202148,0.23529911041259766
255,276809088.0,9.089863777160645,-2.904254913330078,2.387091636657715,-0.0063915252685546875,-0.0031957626342773438,0.0010652542114257812,0.5721931457519531,0.5065059661865234,-0.6005926132202148,0.23529911041259766
256,276809088.0,9.074300765991211,-2.8994665145874023,2.3296289443969727,-0.0063915252685546875,-0.0031957626342773438,0.0010652542114257812,0.5721931457519531,0.5065059661865234,-0.6005926132202148,0.23529911041259766
257,276809088.0,9.089863777160645,-2.904254913330078,2.387091636657715,-0.0063915252685546875,-0.0031957626342773438,0.0010652542114257812,0.5721931457519531,0.5065059661865234,-0.6005926132202148,0.23529911041259766
258,276809088.0,9.074300765991211,-2.8994665145874023,2.3296289443969727,-0.0063915252685546875,-0.0031957626342773438,0.0010652542114257812,0.5721931457519531,0.5065059661865234,-0.6005926132202148,0.23529911041259766
259,276809120.0,9.141340255737305,-2.9234085083007812,2.3260374069213867,-0.0063915252685546875,-0.0031957626342773438,0.0010652542114257812,0.5721931457519531,0.5065059661865234,-0.6005926132202148,0.23529911041259766
260,276809120.0,9.112608909606934,-2.973689079284668,2.369133949279785,-0.0063915252685546875,-0.0031957626342773438,0.0010652542114257812,0.5721931457519531,0.5065059661865234,-0.6005926132202148,0.23529911041259766
261,276809120.0,9.141340255737305,-2.9234085083007812,2.3260374069213867,-0.0063915252685546875,-0.0031957626342773438,0.0010652542114257812,0.5721931457519531,0.5065059661865234,-0.6005926132202148,0.23529911041259766
262,276809120.0,9.112608909606934,-2.973689079284668,2.369133949279785,-0.0063915252685546875,-0.0031957626342773438,0.0010652542114257812,0.5721931457519531,0.5065059661865234,-0.6005926132202148,0.23529911041259766
263,276809120.0,9.141340255737305,-2.9234085083007812,2.3260374069213867,-0.0063915252685546875,-0.0031957626342773438,0.0010652542114257812,0.5721931457519531,0.5065059661865234,-0.6005926132202148,0.23529911041259766
264,276809120.0,9.112608909606934,-2.973689079284668,2.369133949279785,-0.0063915252685546875,-0.0031957626342773438,0.0010652542114257812,0.5721931457519531,0.5065059661865234,-0.6005926132202148,0.23529911041259766
265,276809152.0,9.101835250854492,-2.937774658203125,2.347585678100586,-0.0063915252685546875,-0.0031957626342773438,0.0010652542114257812,0.5721931457519531,0.5065059661865234,-0.6005926132202148,0.23529911041259766
266,276809152.0,9.101835250854492,-2.937774658203125,2.347585678100586,-0.0063915252685546875,-0.0031957626342773438,0.0010652542114257812,0.5721931457519531,0.5065059661865234,-0.6005926132202148,0.23529911041259766
267,276809152.0,9.101835250854492,-2.937774658203125,2.347585678100586,-0.0063915252685546875,-0.0031957626342773438,0.0010652542114257812,0.5721931457519531,0.5065059661865234,-0.6005926132202148,0.23529911041259766
268,276809184.0,9.035992622375488,-2.8839035034179688,2.3320226669311523,-0.0063915252685546875,-0.0031957626342773438,0.0010652542114257812,0.5721931457519531,0.5065059661865234,-0.6005926132202148,0.23529911041259766
269,276809184.0,9.176057815551758,-2.8898887634277344,2.3080806732177734,-0.0063915252685546875,-0.0031957626342773438,0.0010652542114257812,0.5721931457519531,0.5065059661865234,-0.6005926132202148,0.23529911041259766
270,276809216.0,9.19640827178955,-2.9293947219848633,2.2985029220581055,-0.0063915252685546875,-0.0031957626342773438,0.0010652542114257812,0.5721931457519531,0.5065059661865234,-0.6005926132202148,0.23529911041259766
271,276809216.0,9.091060638427734,-2.971294403076172,2.288926124572754,-0.0063915252685546875,-0.0031957626342773438,0.0010652542114257812,0.5721931457519531,0.5065059661865234,-0.6005926132202148,0.23529911041259766
272,276809376.0,9.077892303466797,-2.850383758544922,2.317657470703125,0.012783050537109375,-0.0010652542114257812,0.01597881317138672,0.5721063613891602,0.505427360534668,-0.6014986038208008,0.23538494110107422
273,276809408.0,9.14612865447998,-2.8575668334960938,2.286531448364258,0.012783050537109375,-0.0010652542114257812,0.01597881317138672,0.5720634460449219,0.5055131912231445,-0.6014986038208008,0.2354288101196289
274,276809408.0,9.119791984558105,-2.898268699645996,2.3080806732177734,0.012783050537109375,-0.0010652542114257812,0.01597881317138672,0.5720634460449219,0.5055131912231445,-0.6014986038208008,0.2354288101196289
275,276809440.0,9.1437349319458,-2.8994665145874023,2.2937145233154297,0.012783050537109375,-0.0010652542114257812,0.01597881317138672,0.5719337463378906,0.5055999755859375,-0.6014986038208008,0.23555755615234375
276,276809440.0,9.130566596984863,-2.8851003646850586,2.296109199523926,0.012783050537109375,-0.0010652542114257812,0.01597881317138672,0.5719337463378906,0.5055999755859375,-0.6014986038208008,0.23555755615234375
277,276809472.0,9.091060638427734,-2.9030580520629883,2.322445869445801,0.010652542114257812,-0.005326271057128906,-0.010652542114257812,0.5719337463378906,0.5055999755859375,-0.6014986038208008,0.23555755615234375
278,276809504.0,9.113805770874023,-2.9102401733398438,2.348782539367676,0.0031957626342773438,-0.0031957626342773438,-0.0021305084228515625,0.5719337463378906,0.5055999755859375,-0.6014986038208008,0.23555755615234375
279,276809504.0,9.135354995727539,-2.8839035034179688,2.318854331970215,0.0031957626342773438,-0.0031957626342773438,-0.0021305084228515625,0.5719337463378906,0.5055999755859375,-0.6014986038208008,0.23555755615234375
280,276809536.0,9.101835250854492,-2.9198179244995117,2.3344173431396484,0.0031957626342773438,0.0,0.0,0.5719337463378906,0.5055999755859375,-0.6014986038208008,0.23555755615234375
281,276809536.0,9.09465217590332,-2.8910865783691406,2.339205741882324,0.0031957626342773438,0.0,0.0,0.5719337463378906,0.5055999755859375,-0.6014986038208008,0.23555755615234375
282,276809664.0,9.125777244567871,-2.8839035034179688,2.3056859970092773,-0.0031957626342773438,0.0,0.0010652542114257812,0.5717611312866211,0.5056428909301758,-0.6014556884765625,0.23581695556640625
283,276809696.0,9.138946533203125,-2.9904489517211914,2.296109199523926,-0.09267997741699219,-0.022370338439941406,0.04367637634277344,0.5717611312866211,0.5056428909301758,-0.6014556884765625,0.23581695556640625
284,276809696.0,9.253870964050293,-3.1388940811157227,2.405048370361328,-0.09267997741699219,-0.022370338439941406,0.04367637634277344,0.5717611312866211,0.5056428909301758,-0.6014556884765625,0.23581695556640625
285,276809728.0,9.642940521240234,-3.6333112716674805,2.3416004180908203,-0.31426239013671875,-0.07030868530273438,0.14061832427978516,0.5717611312866211,0.5056428909301758,-0.6014556884765625,0.23581695556640625
286,276809760.0,9.838074684143066,-4.813689231872559,2.7617950439453125,-0.4389019012451172,0.042611122131347656,0.4389019012451172,0.5717611312866211,0.5056428909301758,-0.6014556884765625,0.23581695556640625
287,276809760.0,10.018841743469238,-5.867169380187988,3.092205047607422,-0.4389019012451172,0.042611122131347656,0.4389019012451172,0.5717611312866211,0.5056428909301758,-0.6014556884765625,0.23581695556640625
288,276809792.0,10.579102516174316,-6.927833557128906,3.3567724227905273,-0.4389019012451172,0.042611122131347656,0.4389019012451172,0.5717611312866211,0.5056428909301758,-0.6014556884765625,0.23581695556640625
289,276809824.0,10.54677963256836,-9.188028335571289,2.5534934997558594,-0.4389019012451172,0.042611122131347656,0.4389019012451172,0.5717611312866211,0.5056428909301758,-0.6014556884765625,0.23581695556640625
290,276809824.0,11.739128112792969,-10.45460033416748,3.614156723022461,-0.4389019012451172,0.042611122131347656,0.4389019012451172,0.5717611312866211,0.5056428909301758,-0.6014556884765625,0.23581695556640625
291,276809856.0,11.481743812561035,-10.45699405670166,4.652074813842773,0.2993478775024414,1.0375986099243164,3.6603593826293945,0.5717611312866211,0.5056428909301758,-0.6014556884765625,0.23581695556640625
292,276809856.0,11.017254829406738,-10.893949508666992,4.7753801345825195,0.2993478775024414,1.0375986099243164,3.6603593826293945,0.5717611312866211,0.5056428909301758,-0.6014556884765625,0.23581695556640625
293,276809888.0,11.685256958007812,-12.60824966430664,3.923018455505371,-0.09907245635986328,1.0493173599243164,4.070499420166016,0.5717611312866211,0.5056428909301758,-0.6014556884765625,0.23581695556640625
294,276809920.0,11.424281120300293,-14.279454231262207,2.4301881790161133,1.5404186248779297,1.5404186248779297,5.03565788269043,0.5717611312866211,0.5056428909301758,-0.6014556884765625,0.23581695556640625
295,276809920.0,10.470162391662598,-14.207625389099121,3.6333112716674805,1.5404186248779297,1.5404186248779297,5.03565788269043,0.5717611312866211,0.5056428909301758,-0.6014556884765625,0.23581695556640625
296,276809952.0,8.869589805603027,-12.67768383026123,5.0327653884887695,1.347599983215332,1.5659856796264648,5.4255571365356445,0.5717611312866211,0.5056428909301758,-0.6014556884765625,0.23581695556640625
297,276810080.0,3.3555755615234375,-8.394326210021973,0.3675203323364258,0.6274595260620117,0.4271831512451172,6.23411750793457,0.45570850372314453,0.8403787612915039,-0.16607379913330078,-0.2419891357421875
298,276810080.0,2.974885940551758,-6.745868682861328,0.49322032928466797,0.6274595260620117,0.4271831512451172,6.23411750793457,0.45570850372314453,0.8403787612915039,-0.16607379913330078,-0.2419891357421875
299,276810112.0,1.948939323425293,-4.853194236755371,0.8463754653930664,0.6274595260620117,0.4271831512451172,6.23411750793457,0.410003662109375,0.8603181838989258,-0.07052135467529297,-0.2945995330810547
300,276810112.0,0.9277811050415039,-5.011216163635254,0.24780654907226562,0.6274595260620117,0.4271831512451172,6.23411750793457,0.410003662109375,0.8603181838989258,-0.07052135467529297,-0.2945995330810547
301,276810144.0,0.12091064453125,-4.009212493896484,0.25618648529052734,0.6274595260620117,0.4271831512451172,6.23411750793457,0.3893747329711914,0.8645048141479492,-0.024384498596191406,-0.31695556640625
302,276810176.0,-0.3711118698120117,-3.245438575744629,0.31364917755126953,-0.08309268951416016,0.024501800537109375,4.546687126159668,0.3893747329711914,0.8645048141479492,-0.024384498596191406,-0.31695556640625
303,276810176.0,-0.9684839248657227,-2.9186201095581055,0.5506830215454102,-0.08309268951416016,0.024501800537109375,4.546687126159668,0.3893747329711914,0.8645048141479492,-0.024384498596191406,-0.31695556640625
304,276810208.0,-1.567051887512207,-2.317657470703125,0.29808712005615234,-0.9587669372558594,-0.014913558959960938,4.093935966491699,0.3893747329711914,0.8645048141479492,-0.024384498596191406,-0.31695556640625
305,276810240.0,-3.000025749206543,-2.0758352279663086,-0.4728689193725586,-2.213686943054199,-0.3057394027709961,3.1831064224243164,0.3893747329711914,0.8645048141479492,-0.024384498596191406,-0.31695556640625
306,276810240.0,-3.9421730041503906,-1.29290771484375,-1.478464126586914,-2.213686943054199,-0.3057394027709961,3.1831064224243164,0.3893747329711914,0.8645048141479492,-0.024384498596191406,-0.31695556640625
307,276810272.0,-4.848405838012695,-2.60137939453125,-2.784541130065918,-2.213686943054199,-0.3057394027709961,3.1831064224243164,0.3893747329711914,0.8645048141479492,-0.024384498596191406,-0.31695556640625
308,276810304.0,-5.110578536987305,-2.310474395751953,-2.876720428466797,-2.213686943054199,-0.3057394027709961,3.1831064224243164,0.3893747329711914,0.8645048141479492,-0.024384498596191406,-0.31695556640625
309,276810304.0,-6.076668739318848,-1.2318534851074219,-1.4952239990234375,-2.213686943054199,-0.3057394027709961,3.1831064224243164,0.3893747329711914,0.8645048141479492,-0.024384498596191406,-0.31695556640625
310,276810336.0,-3.622537612915039,-1.2941045761108398,2.251814842224121,-2.213686943054199,-0.3057394027709961,3.1831064224243164,0.3893747329711914,0.8645048141479492,-0.024384498596191406,-0.31695556640625
311,276810336.0,-1.5167722702026367,0.7302532196044922,-8.679244995117188,-2.213686943054199,-0.3057394027709961,3.1831064224243164,0.3893747329711914,0.8645048141479492,-0.024384498596191406,-0.31695556640625
312,276810464.0,-9.829694747924805,-4.710735321044922,4.9944562911987305,1.2144384384155273,0.7520990371704102,0.0010652542114257812,0.3893747329711914,0.8645048141479492,-0.024384498596191406,-0.31695556640625
313,276810496.0,-10.391151428222656,-4.546727180480957,-0.8990497589111328,1.2144384384155273,0.7520990371704102,0.0010652542114257812,0.3893747329711914,0.8645048141479492,-0.024384498596191406,-0.31695556640625
314,276810496.0,-13.242733001708984,-3.53275203704834,-6.598620414733887,1.2144384384155273,0.7520990371704102,0.0010652542114257812,0.3893747329711914,0.8645048141479492,-0.024384498596191406,-0.31695556640625
315,276810528.0,-15.550813674926758,-3.8835134506225586,-6.06350040435791,1.2144384384155273,0.7520990371704102,0.0010652542114257812,0.3893747329711914,0.8645048141479492,-0.024384498596191406,-0.31695556640625
316,276810560.0,-10.149330139160156,-4.400676727294922,-3.313675880432129,-0.5411701202392578,-3.52719783782959,0.04367637634277344,0.3893747329711914,0.8645048141479492,-0.024384498596191406,-0.31695556640625
317,276810560.0,-9.182043075561523,-1.5311384201049805,-1.0869998931884766,-0.5411701202392578,-3.52719783782959,0.04367637634277344,0.3893747329711914,0.8645048141479492,-0.024384498596191406,-0.31695556640625
318,276810560.0,-9.182043075561523,-1.5311384201049805,-1.0869998931884766,-0.5411701202392578,-3.52719783782959,0.04367637634277344,0.3893747329711914,0.8645048141479492,-0.024384498596191406,-0.31695556640625
319,276810560.0,-9.182043075561523,-1.5311384201049805,-1.0869998931884766,-0.5411701202392578,-3.52719783782959,0.04367637634277344,0.3893747329711914,0.8645048141479492,-0.024384498596191406,-0.31695556640625
320,276810592.0,15.496942520141602,-11.974964141845703,39.098506927490234,2.2094249725341797,-4.942976951599121,-0.28017234802246094,0.3893747329711914,0.8645048141479492,-0.024384498596191406,-0.31695556640625
321,276810592.0,15.496942520141602,-11.974964141845703,39.098506927490234,2.2094249725341797,-4.942976951599121,-0.28017234802246094,0.3893747329711914,0.8645048141479492,-0.024384498596191406,-0.31695556640625
322,276810592.0,15.496942520141602,-11.974964141845703,39.098506927490234,2.2094249725341797,-4.942976951599121,-0.28017234802246094,0.3893747329711914,0.8645048141479492,-0.024384498596191406,-0.31695556640625
323,276810624.0,-7.030787467956543,0.45610904693603516,5.432608604431152,0.7425117492675781,1.512721061706543,0.41226959228515625,0.3893747329711914,0.8645048141479492,-0.024384498596191406,-0.31695556640625
324,276810624.0,-15.70883560180664,-1.081014633178711,5.306909561157227,0.7425117492675781,1.512721061706543,0.41226959228515625,0.3893747329711914,0.8645048141479492,-0.024384498596191406,-0.31695556640625
325,276810624.0,-7.030787467956543,0.45610904693603516,5.432608604431152,0.7425117492675781,1.512721061706543,0.41226959228515625,0.3893747329711914,0.8645048141479492,-0.024384498596191406,-0.31695556640625
326,276810624.0,-15.70883560180664,-1.081014633178711,5.306909561157227,0.7425117492675781,1.512721061706543,0.41226959228515625,0.3893747329711914,0.8645048141479492,-0.024384498596191406,-0.31695556640625
327,276810624.0,-7.030787467956543,0.45610904693603516,5.432608604431152,0.7425117492675781,1.512721061706543,0.41226959228515625,0.3893747329711914,0.8645048141479492,-0.024384498596191406,-0.31695556640625
328,276810624.0,-15.70883560180664,-1.081014633178711,5.306909561157227,0.7425117492675781,1.512721061706543,0.41226959228515625,0.3893747329711914,0.8645048141479492,-0.024384498596191406,-0.31695556640625
329,276810656.0,-1.4042415618896484,3.1436824798583984,7.534782409667969,-0.3739185333251953,-0.37178802490234375,-1.9026203155517578,0.3893747329711914,0.8645048141479492,-0.024384498596191406,-0.31695556640625
330,276810656.0,-1.4042415618896484,3.1436824798583984,7.534782409667969,-0.3739185333251953,-0.37178802490234375,-1.9026203155517578,0.3893747329711914,0.8645048141479492,-0.024384498596191406,-0.31695556640625
331,276810656.0,-1.4042415618896484,3.1436824798583984,7.534782409667969,-0.3739185333251953,-0.37178802490234375,-1.9026203155517578,0.3893747329711914,0.8645048141479492,-0.024384498596191406,-0.31695556640625
332,276810656.0,5.56549072265625,-3.6644372940063477,7.844841003417969,-0.3739185333251953,-0.37178802490234375,-1.9026203155517578,0.3893747329711914,0.8645048141479492,-0.024384498596191406,-0.31695556640625
333,276810688.0,-0.3543519973754883,-3.15206241607666,10.19721508026123,1.3667755126953125,1.699148178100586,-1.6352300643920898,0.3893747329711914,0.8645048141479492,-0.024384498596191406,-0.31695556640625
334,276810720.0,-3.245438575744629,-4.508419036865234,8.107013702392578,1.591552734375,1.2250909805297852,-1.9356441497802734,0.3893747329711914,0.8645048141479492,-0.024384498596191406,-0.31695556640625
335,276810848.0,1.0283403396606445,-4.984879493713379,1.6077547073364258,1.591552734375,1.2250909805297852,-1.9356441497802734,0.3893747329711914,0.8645048141479492,-0.024384498596191406,-0.31695556640625
336,276810880.0,1.3779048919677734,-4.812491416931152,1.3707218170166016,1.591552734375,1.2250909805297852,-1.9356441497802734,0.3893747329711914,0.8645048141479492,-0.024384498596191406,-0.31695556640625
337,276810912.0,1.36114501953125,-4.161249160766602,1.723876953125,1.591552734375,1.2250909805297852,-1.9356441497802734,0.3893747329711914,0.8645048141479492,-0.024384498596191406,-0.31695556640625
338,276810912.0,1.504800796508789,-4.976499557495117,2.935379981994629,1.591552734375,1.2250909805297852,-1.9356441497802734,0.3893747329711914,0.8645048141479492,-0.024384498596191406,-0.31695556640625
339,276810944.0,3.9110469818115234,-6.469329833984375,3.336421012878418,1.1920671463012695,-2.6579151153564453,-6.48765754699707,0.3893747329711914,0.8645048141479492,-0.024384498596191406,-0.31695556640625
340,276810944.0,6.56629753112793,-6.647703170776367,3.1149511337280273,1.1920671463012695,-2.6579151153564453,-6.48765754699707,0.3893747329711914,0.8645048141479492,-0.024384498596191406,-0.31695556640625
341,276810976.0,7.3767595291137695,-6.8512163162231445,3.2358617782592773,1.416844367980957,-2.462965965270996,-6.244770050048828,0.3893747329711914,0.8645048141479492,-0.024384498596191406,-0.31695556640625
342,276811008.0,8.06391716003418,-6.745868682861328,5.94618034362793,-1.4147138595581055,-3.7253427505493164,-5.462841987609863,0.3893747329711914,0.8645048141479492,-0.024384498596191406,-0.31695556640625
343,276811008.0,11.515263557434082,-8.59544563293457,7.6640729904174805,-1.4147138595581055,-3.7253427505493164,-5.462841987609863,0.3893747329711914,0.8645048141479492,-0.024384498596191406,-0.31695556640625
344,276811040.0,13.205621719360352,-7.500064849853516,4.802914619445801,-3.690188407897949,-3.569809913635254,-5.306243896484375,0.3893747329711914,0.8645048141479492,-0.024384498596191406,-0.31695556640625
345,276811136.0,17.165752410888672,-5.75583553314209,3.317267417907715,-3.690188407897949,-3.569809913635254,-5.306243896484375,0.4759063720703125,0.6441812515258789,-0.5326614379882812,0.27358055114746094
346,276811136.0,17.724815368652344,-6.834456443786621,2.6767988204956055,-3.690188407897949,-3.569809913635254,-5.306243896484375,0.4759063720703125,0.6441812515258789,-0.5326614379882812,0.27358055114746094
347,276811168.0,16.2283935546875,-8.129758834838867,1.6472606658935547,-3.690188407897949,-3.569809913635254,-5.306243896484375,0.4759063720703125,0.6441812515258789,-0.5326614379882812,0.27358055114746094
348,276811200.0,13.512088775634766,-8.68523120880127,1.0929861068725586,-3.690188407897949,-3.569809913635254,-5.306243896484375,0.4759063720703125,0.6441812515258789,-0.5326614379882812,0.27358055114746094
349,276811200.0,11.248302459716797,-7.897514343261719,1.8998565673828125,-3.690188407897949,-3.569809913635254,-5.306243896484375,0.4759063720703125,0.6441812515258789,-0.5326614379882812,0.27358055114746094
350,276811232.0,9.888354301452637,-6.116174697875977,2.814469337463379,-3.690188407897949,-3.569809913635254,-5.306243896484375,0.4759063720703125,0.6441812515258789,-0.5326614379882812,0.27358055114746094
351,276811232.0,9.377176284790039,-5.385920524597168,3.427403450012207,-3.690188407897949,-3.569809913635254,-5.306243896484375,0.4759063720703125,0.6441812515258789,-0.5326614379882812,0.27358055114746094
352,276811264.0,10.008068084716797,-5.450566291809082,3.8487958908081055,-3.690188407897949,-3.569809913635254,-5.306243896484375,0.4759063720703125,0.6441812515258789,-0.5326614379882812,0.27358055114746094
353,276811264.0,10.008068084716797,-5.450566291809082,3.8487958908081055,-3.690188407897949,-3.569809913635254,-5.306243896484375,0.4759063720703125,0.6441812515258789,-0.5326614379882812,0.27358055114746094
354,276811264.0,10.008068084716797,-5.450566291809082,3.8487958908081055,-3.690188407897949,-3.569809913635254,-5.306243896484375,0.4759063720703125,0.6441812515258789,-0.5326614379882812,0.27358055114746094
355,276811296.0,10.401926040649414,-5.2159271240234375,3.6548595428466797,-3.690188407897949,-3.569809913635254,-5.306243896484375,0.4759063720703125,0.6441812515258789,-0.5326614379882812,0.27358055114746094
356,276811296.0,10.065530776977539,-5.090227127075195,3.1149511337280273,-3.690188407897949,-3.569809913635254,-5.306243896484375,0.4759063720703125,0.6441812515258789,-0.5326614379882812,0.27358055114746094
357,276811296.0,10.401926040649414,-5.2159271240234375,3.6548595428466797,-3.690188407897949,-3.569809913635254,-5.306243896484375,0.4759063720703125,0.6441812515258789,-0.5326614379882812,0.27358055114746094
358,276811296.0,10.065530776977539,-5.090227127075195,3.1149511337280273,-3.690188407897949,-3.569809913635254,-5.306243896484375,0.4759063720703125,0.6441812515258789,-0.5326614379882812,0.27358055114746094
359,276811296.0,10.401926040649414,-5.2159271240234375,3.6548595428466797,-3.690188407897949,-3.569809913635254,-5.306243896484375,0.4759063720703125,0.6441812515258789,-0.5326614379882812,0.27358055114746094
360,276811296.0,10.065530776977539,-5.090227127075195,3.1149511337280273,-3.690188407897949,-3.569809913635254,-5.306243896484375,0.4759063720703125,0.6441812515258789,-0.5326614379882812,0.27358055114746094
361,276811328.0,9.680051803588867,-4.807703018188477,2.727078437805176,-3.690188407897949,-3.569809913635254,-5.306243896484375,0.4759063720703125,0.6441812515258789,-0.5326614379882812,0.27358055114746094
362,276811328.0,9.680051803588867,-4.807703018188477,2.727078437805176,-3.690188407897949,-3.569809913635254,-5.306243896484375,0.4759063720703125,0.6441812515258789,-0.5326614379882812,0.27358055114746094
363,276811328.0,9.680051803588867,-4.807703018188477,2.727078437805176,-3.690188407897949,-3.569809913635254,-5.306243896484375,0.4759063720703125,0.6441812515258789,-0.5326614379882812,0.27358055114746094
364,276811360.0,9.460975646972656,-3.9756927490234375,2.8036956787109375,-3.690188407897949,-3.569809913635254,-5.306243896484375,0.4759063720703125,0.6441812515258789,-0.5326614379882812,0.27358055114746094
365,276811360.0,9.460975646972656,-3.9756927490234375,2.8036956787109375,-3.690188407897949,-3.569809913635254,-5.306243896484375,0.4759063720703125,0.6441812515258789,-0.5326614379882812,0.27358055114746094
366,276811360.0,9.460975646972656,-3.9756927490234375,2.8036956787109375,-3.690188407897949,-3.569809913635254,-5.306243896484375,0.4759063720703125,0.6441812515258789,-0.5326614379882812,0.27358055114746094
367,276811552.0,9.197606086730957,-1.8818998336791992,1.98126220703125,0.37178802490234375,0.22158145904541016,0.6636791229248047,0.5669279098510742,0.5237264633178711,-0.6072816848754883,0.1884288787841797
368,276811584.0,9.314925193786621,-1.856760025024414,2.03273868560791,0.2588663101196289,0.1608591079711914,0.6466350555419922,0.5640363693237305,0.5355949401855469,-0.6013689041137695,0.18268871307373047
369,276811616.0,9.531606674194336,-1.8854904174804688,1.9728822708129883,0.2546052932739258,0.16831684112548828,0.6615486145019531,0.5632162094116211,0.5391769409179688,-0.5989093780517578,0.18255901336669922
370,276811616.0,9.429850578308105,-1.8411970138549805,1.8783082962036133,0.2546052932739258,0.16831684112548828,0.6615486145019531,0.5632162094116211,0.5391769409179688,-0.5989093780517578,0.18255901336669922
371,276811648.0,9.101835250854492,-1.9285879135131836,2.080624580383301,0.2546052932739258,0.16831684112548828,0.6615486145019531,0.5632162094116211,0.5391769409179688,-0.5989093780517578,0.18255901336669922
372,276811648.0,9.050357818603516,-1.9656991958618164,2.3930768966674805,0.2546052932739258,0.16831684112548828,0.6615486145019531,0.5632162094116211,0.5391769409179688,-0.5989093780517578,0.18255901336669922
373,276811680.0,9.368796348571777,-1.8555622100830078,2.190760612487793,0.2546052932739258,0.16831684112548828,0.6615486145019531,0.5632162094116211,0.5391769409179688,-0.5989093780517578,0.18255901336669922
374,276811712.0,9.40590763092041,-1.6101493835449219,1.9309816360473633,0.2546052932739258,0.16831684112548828,0.6615486145019531,0.5632162094116211,0.5391769409179688,-0.5989093780517578,0.18255901336669922
375,276811712.0,8.988106727600098,-1.4353675842285156,1.9764728546142578,0.2546052932739258,0.16831684112548828,0.6615486145019531,0.5632162094116211,0.5391769409179688,-0.5989093780517578,0.18255901336669922
376,276811744.0,8.990501403808594,-1.8268308639526367,2.121326446533203,0.2546052932739258,0.16831684112548828,0.6615486145019531,0.5632162094116211,0.5391769409179688,-0.5989093780517578,0.18255901336669922
377,276811776.0,9.176057815551758,-2.150057792663574,1.9848527908325195,-0.0063915252685546875,0.11079025268554688,0.1619243621826172,0.5632162094116211,0.5391769409179688,-0.5989093780517578,0.18255901336669922
378,276811776.0,9.136551856994629,-2.1368894577026367,1.7609882354736328,-0.0063915252685546875,0.11079025268554688,0.1619243621826172,0.5632162094116211,0.5391769409179688,-0.5989093780517578,0.18255901336669922
379,276811808.0,8.99768352508545,-2.1728038787841797,1.6819772720336914,0.004261016845703125,0.09267997741699219,0.11931324005126953,0.5632162094116211,0.5391769409179688,-0.5989093780517578,0.18255901336669922
380,276811840.0,9.098243713378906,-2.2578001022338867,1.8304224014282227,0.014913558959960938,0.0170440673828125,0.04793834686279297,0.5632162094116211,0.5391769409179688,-0.5989093780517578,0.18255901336669922
381,276811840.0,9.210774421691895,-2.254209518432617,1.8627452850341797,0.014913558959960938,0.0170440673828125,0.04793834686279297,0.5632162094116211,0.5391769409179688,-0.5989093780517578,0.18255901336669922
382,276811968.0,9.020429611206055,-2.717501640319824,1.8423938751220703,0.014913558959960938,0.0170440673828125,0.04793834686279297,0.5616626739501953,0.5497941970825195,-0.5869112014770508,0.1944713592529297
383,276811968.0,9.050357818603516,-2.8348207473754883,1.9441509246826172,0.014913558959960938,0.0170440673828125,0.04793834686279297,0.5616626739501953,0.5497941970825195,-0.5869112014770508,0.1944713592529297
384,276811968.0,9.020429611206055,-2.717501640319824,1.8423938751220703,0.014913558959960938,0.0170440673828125,0.04793834686279297,0.5616626739501953,0.5497941970825195,-0.5869112014770508,0.1944713592529297
385,276811968.0,9.050357818603516,-2.8348207473754883,1.9441509246826172,0.014913558959960938,0.0170440673828125,0.04793834686279297,0.5616626739501953,0.5497941970825195,-0.5869112014770508,0.1944713592529297
386,276812000.0,8.980923652648926,-2.8779172897338867,2.1692123413085938,0.014913558959960938,0.0170440673828125,0.04793834686279297,0.5616626739501953,0.5497941970825195,-0.5869112014770508,0.1944713592529297
387,276812000.0,8.980923652648926,-2.8779172897338867,2.1692123413085938,0.014913558959960938,0.0170440673828125,0.04793834686279297,0.5616626739501953,0.5497941970825195,-0.5869112014770508,0.1944713592529297
388,276812032.0,8.97493839263916,-2.820455551147461,2.106961250305176,0.014913558959960938,0.0170440673828125,0.04793834686279297,0.5616626739501953,0.5497941970825195,-0.5869112014770508,0.1944713592529297
389,276812032.0,9.010852813720703,-2.8156661987304688,2.0602731704711914,0.014913558959960938,0.0170440673828125,0.04793834686279297,0.5616626739501953,0.5497941970825195,-0.5869112014770508,0.1944713592529297
390,276812032.0,8.97493839263916,-2.820455551147461,2.106961250305176,0.014913558959960938,0.0170440673828125,0.04793834686279297,0.5616626739501953,0.5497941970825195,-0.5869112014770508,0.1944713592529297
391,276812032.0,9.010852813720703,-2.8156661987304688,2.0602731704711914,0.014913558959960938,0.0170440673828125,0.04793834686279297,0.5616626739501953,0.5497941970825195,-0.5869112014770508,0.1944713592529297
392,276812160.0,9.223942756652832,-3.120936393737793,2.3008975982666016,-0.07989692687988281,-0.17470836639404297,-0.18749141693115234,0.5773725509643555,0.5202732086181641,-0.587860107421875,0.22450923919677734
393,276812192.0,9.259857177734375,-3.03115177154541,2.2111120223999023,-0.07989692687988281,-0.17470836639404297,-0.18749141693115234,0.5773725509643555,0.5202732086181641,-0.587860107421875,0.22450923919677734
394,276812192.0,9.198802947998047,-3.089811325073242,2.1021728515625,-0.07989692687988281,-0.17470836639404297,-0.18749141693115234,0.5773725509643555,0.5202732086181641,-0.587860107421875,0.22450923919677734
395,276812224.0,9.240702629089355,-3.240650177001953,2.1117496490478516,-0.07989692687988281,-0.17470836639404297,-0.18749141693115234,0.5773725509643555,0.5202732086181641,-0.587860107421875,0.22450923919677734
396,276812256.0,9.30654525756836,-3.336421012878418,2.160832405090332,-0.060721397399902344,-0.07989692687988281,-0.09054946899414062,0.5773725509643555,0.5202732086181641,-0.587860107421875,0.22450923919677734
397,276812256.0,9.366402626037598,-3.2286787033081055,2.135692596435547,-0.060721397399902344,-0.07989692687988281,-0.09054946899414062,0.5773725509643555,0.5202732086181641,-0.587860107421875,0.22450923919677734
398,276812288.0,9.341261863708496,-3.0993881225585938,2.043513298034668,-0.09481048583984375,-0.04793834686279297,-0.013848304748535156,0.5773725509643555,0.5202732086181641,-0.587860107421875,0.22450923919677734
399,276812288.0,9.320911407470703,-3.1005849838256836,2.0423154830932617,-0.09481048583984375,-0.04793834686279297,-0.013848304748535156,0.5773725509643555,0.5202732086181641,-0.587860107421875,0.22450923919677734
400,276812320.0,9.330488204956055,-3.181990623474121,2.0902013778686523,-0.08202743530273438,-0.04474163055419922,0.012783050537109375,0.5773725509643555,0.5202732086181641,-0.587860107421875,0.22450923919677734
401,276812352.0,9.353233337402344,-3.1388940811157227,2.135692596435547,-0.03621959686279297,-0.03941535949707031,0.03621959686279297,0.5773725509643555,0.5202732086181641,-0.587860107421875,0.22450923919677734
402,276812352.0,9.30774211883545,-3.0419254302978516,2.0854129791259766,-0.03621959686279297,-0.03941535949707031,0.03621959686279297,0.5773725509643555,0.5202732086181641,-0.587860107421875,0.22450923919677734
403,276812384.0,9.302953720092773,-2.9808712005615234,1.9956274032592773,-0.03621959686279297,-0.03941535949707031,0.03621959686279297,0.5773725509643555,0.5202732086181641,-0.587860107421875,0.22450923919677734
404,276812416.0,9.310136795043945,-3.0682621002197266,2.066258430480957,-0.03621959686279297,-0.03941535949707031,0.03621959686279297,0.5773725509643555,0.5202732086181641,-0.587860107421875,0.22450923919677734
405,276812416.0,9.28380012512207,-3.002420425415039,2.0818214416503906,-0.03621959686279297,-0.03941535949707031,0.03621959686279297,0.5773725509643555,0.5202732086181641,-0.587860107421875,0.22450923919677734
406,276812448.0,9.188028335571289,-2.8910865783691406,2.006402015686035,-0.014913558959960938,0.020239830017089844,0.07030868530273438,0.5868673324584961,0.5074987411499023,-0.5875148773193359,0.22977447509765625
407,276812576.0,9.26464557647705,-2.9569292068481445,1.7669744491577148,-0.012783050537109375,0.034089088439941406,0.0287628173828125,0.5866508483886719,0.5075416564941406,-0.5877313613891602,0.22973155975341797
408,276812576.0,9.220351219177246,-3.002420425415039,1.7585945129394531,-0.012783050537109375,0.034089088439941406,0.0287628173828125,0.5866508483886719,0.5075416564941406,-0.5877313613891602,0.22973155975341797
409,276812576.0,9.26464557647705,-2.9569292068481445,1.7669744491577148,-0.012783050537109375,0.034089088439941406,0.0287628173828125,0.5866508483886719,0.5075416564941406,-0.5877313613891602,0.22973155975341797
410,276812576.0,9.220351219177246,-3.002420425415039,1.7585945129394531,-0.012783050537109375,0.034089088439941406,0.0287628173828125,0.5866508483886719,0.5075416564941406,-0.5877313613891602,0.22973155975341797
411,276812608.0,9.153311729431152,-2.840806007385254,1.7406368255615234,-0.012783050537109375,0.034089088439941406,0.0287628173828125,0.5866508483886719,0.5075416564941406,-0.5877313613891602,0.22973155975341797
412,276812608.0,9.176057815551758,-2.8527774810791016,1.6496543884277344,-0.012783050537109375,0.034089088439941406,0.0287628173828125,0.5866508483886719,0.5075416564941406,-0.5877313613891602,0.22973155975341797
413,276812608.0,9.153311729431152,-2.840806007385254,1.7406368255615234,-0.012783050537109375,0.034089088439941406,0.0287628173828125,0.5866508483886719,0.5075416564941406,-0.5877313613891602,0.22973155975341797
414,276812608.0,9.176057815551758,-2.8527774810791016,1.6496543884277344,-0.012783050537109375,0.034089088439941406,0.0287628173828125,0.5866508483886719,0.5075416564941406,-0.5877313613891602,0.22973155975341797
415,276812640.0,9.208379745483398,-2.9210147857666016,1.6915550231933594,-0.012783050537109375,0.034089088439941406,0.0287628173828125,0.5866508483886719,0.5075416564941406,-0.5877313613891602,0.22973155975341797
416,276812640.0,9.208379745483398,-2.9210147857666016,1.6915550231933594,-0.012783050537109375,0.034089088439941406,0.0287628173828125,0.5866508483886719,0.5075416564941406,-0.5877313613891602,0.22973155975341797
417,276812672.0,9.21675968170166,-2.935379981994629,1.6963434219360352,0.009587287902832031,0.0,0.030893325805664062,0.5866508483886719,0.5075416564941406,-0.5877313613891602,0.22973155975341797
418,276812672.0,9.211971282958984,-2.8635520935058594,1.7107086181640625,0.009587287902832031,0.0,0.030893325805664062,0.5866508483886719,0.5075416564941406,-0.5877313613891602,0.22973155975341797
419,276812672.0,9.21675968170166,-2.935379981994629,1.6963434219360352,0.009587287902832031,0.0,0.030893325805664062,0.5866508483886719,0.5075416564941406,-0.5877313613891602,0.22973155975341797
420,276812672.0,9.211971282958984,-2.8635520935058594,1.7107086181640625,0.009587287902832031,0.0,0.030893325805664062,0.5866508483886719,0.5075416564941406,-0.5877313613891602,0.22973155975341797
421,276812704.0,9.202394485473633,-2.836017608642578,1.699934959411621,0.00852203369140625,-0.0031957626342773438,0.024501800537109375,0.5866508483886719,0.5075416564941406,-0.5877313613891602,0.22973155975341797
422,276812704.0,9.202394485473633,-2.836017608642578,1.699934959411621,0.00852203369140625,-0.0031957626342773438,0.024501800537109375,0.5866508483886719,0.5075416564941406,-0.5877313613891602,0.22973155975341797
423,276812736.0,9.19640827178955,-2.84200382232666,1.701131820678711,-0.007456779479980469,-0.0170440673828125,-0.010652542114257812,0.5866508483886719,0.5075416564941406,-0.5877313613891602,0.22973155975341797
424,276812736.0,9.238308906555176,-2.8946781158447266,1.733454704284668,-0.007456779479980469,-0.0170440673828125,-0.010652542114257812,0.5866508483886719,0.5075416564941406,-0.5877313613891602,0.22973155975341797
425,276812736.0,9.19640827178955,-2.84200382232666,1.701131820678711,-0.007456779479980469,-0.0170440673828125,-0.010652542114257812,0.5866508483886719,0.5075416564941406,-0.5877313613891602,0.22973155975341797
426,276812736.0,9.238308906555176,-2.8946781158447266,1.733454704284668,-0.007456779479980469,-0.0170440673828125,-0.010652542114257812,0.5866508483886719,0.5075416564941406,-0.5877313613891602,0.22973155975341797
427,276812832.0,9.231125831604004,-2.9844627380371094,1.847182273864746,-0.004261016845703125,-0.03515434265136719,-0.042611122131347656,0.5866508483886719,0.5075416564941406,-0.5877313613891602,0.22973155975341797
428,276812864.0,9.23711109161377,-2.9557313919067383,1.847182273864746,-0.004261016845703125,-0.03515434265136719,-0.042611122131347656,0.5866508483886719,0.5075416564941406,-0.5877313613891602,0.22973155975341797
429,276812864.0,9.239505767822266,-2.8958749771118164,1.8423938751220703,-0.004261016845703125,-0.03515434265136719,-0.042611122131347656,0.5866508483886719,0.5075416564941406,-0.5877313613891602,0.22973155975341797
430,276812896.0,9.270630836486816,-2.9138317108154297,1.8687305450439453,-0.004261016845703125,-0.03515434265136719,-0.042611122131347656,0.5866508483886719,0.5075416564941406,-0.5877313613891602,0.22973155975341797
431,276812896.0,9.246688842773438,-2.9724912643432617,1.8675336837768555,-0.004261016845703125,-0.03515434265136719,-0.042611122131347656,0.5866508483886719,0.5075416564941406,-0.5877313613891602,0.22973155975341797
432,276812928.0,9.274222373962402,-2.9461545944213867,1.8495769500732422,-0.004261016845703125,-0.03515434265136719,-0.042611122131347656,0.5866508483886719,0.5075416564941406,-0.5877313613891602,0.22973155975341797
433,276812960.0,9.267040252685547,-2.9808712005615234,1.8388023376464844,-0.012783050537109375,-0.007456779479980469,-0.030893325805664062,0.5866508483886719,0.5075416564941406,-0.5877313613891602,0.22973155975341797
434,276812960.0,9.262250900268555,-2.9617176055908203,1.8459854125976562,-0.012783050537109375,-0.007456779479980469,-0.030893325805664062,0.5866508483886719,0.5075416564941406,-0.5877313613891602,0.22973155975341797
435,276812992.0,9.257462501525879,-2.9772796630859375,1.8711252212524414,-0.0063915252685546875,-0.004261016845703125,-0.024501800537109375,0.5866508483886719,0.5075416564941406,-0.5877313613891602,0.22973155975341797
436,276813024.0,9.217957496643066,-2.934183120727539,1.8304224014282227,-0.023435592651367188,0.0,-0.011717796325683594,0.5866508483886719,0.5075416564941406,-0.5877313613891602,0.22973155975341797
437,276813024.0,9.202394485473633,-2.9569292068481445,1.8088741302490234,-0.023435592651367188,0.0,-0.011717796325683594,0.5866508483886719,0.5075416564941406,-0.5877313613891602,0.22973155975341797
438,276813056.0,9.259857177734375,-3.0131940841674805,1.765777587890625,-0.023435592651367188,0.0,-0.011717796325683594,0.5866508483886719,0.5075416564941406,-0.5877313613891602,0.22973155975341797
439,276813056.0,9.221549034118652,-2.973689079284668,1.8100709915161133,-0.023435592651367188,0.0,-0.011717796325683594,0.5866508483886719,0.5075416564941406,-0.5877313613891602,0.22973155975341797
440,276813088.0,9.18443775177002,-2.905451774597168,1.727468490600586,-0.023435592651367188,0.0,-0.011717796325683594,0.5866508483886719,0.5075416564941406,-0.5877313613891602,0.22973155975341797
441,276813120.0,9.28739070892334,-2.905451774597168,1.7190885543823242,-0.023435592651367188,0.0,-0.011717796325683594,0.5866508483886719,0.5075416564941406,-0.5877313613891602,0.22973155975341797
442,276813120.0,9.317319869995117,-2.968899726867676,1.7538061141967773,-0.023435592651367188,0.0,-0.011717796325683594,0.5866508483886719,0.5075416564941406,-0.5877313613891602,0.22973155975341797
443,276813248.0,9.191619873046875,-3.0203771591186523,1.759791374206543,-0.0031957626342773438,-0.0010652542114257812,0.013848304748535156,0.5866508483886719,0.5075416564941406,-0.5877313613891602,0.22973155975341797
444,276813248.0,9.191619873046875,-3.0203771591186523,1.759791374206543,-0.0031957626342773438,-0.0010652542114257812,0.013848304748535156,0.5866508483886719,0.5075416564941406,-0.5877313613891602,0.22973155975341797
445,276813248.0,9.191619873046875,-3.0203771591186523,1.759791374206543,-0.0031957626342773438,-0.0010652542114257812,0.013848304748535156,0.5866508483886719,0.5075416564941406,-0.5877313613891602,0.22973155975341797
446,276813280.0,9.219154357910156,-2.9856605529785156,1.7729597091674805,0.03621959686279297,-0.005326271057128906,0.030893325805664062,0.5866508483886719,0.5075416564941406,-0.5877313613891602,0.22973155975341797
447,276813280.0,9.220351219177246,-2.847989082336426,1.7921142578125,0.03621959686279297,-0.005326271057128906,0.030893325805664062,0.5866508483886719,0.5075416564941406,-0.5877313613891602,0.22973155975341797
448,276813280.0,9.219154357910156,-2.9856605529785156,1.7729597091674805,0.03621959686279297,-0.005326271057128906,0.030893325805664062,0.5866508483886719,0.5075416564941406,-0.5877313613891602,0.22973155975341797
449,276813280.0,9.220351219177246,-2.847989082336426,1.7921142578125,0.03621959686279297,-0.005326271057128906,0.030893325805664062,0.5866508483886719,0.5075416564941406,-0.5877313613891602,0.22973155975341797
450,276813280.0,9.219154357910156,-2.9856605529785156,1.7729597091674805,0.03621959686279297,-0.005326271057128906,0.030893325805664062,0.5866508483886719,0.5075416564941406,-0.5877313613891602,0.22973155975341797
451,276813280.0,9.220351219177246,-2.847989082336426,1.7921142578125,0.03621959686279297,-0.005326271057128906,0.030893325805664062,0.5866508483886719,0.5075416564941406,-0.5877313613891602,0.22973155975341797
452,276813312.0,9.252674102783203,-2.838412284851074,1.8112688064575195,-0.011717796325683594,-0.00852203369140625,0.03515434265136719,0.5866508483886719,0.5075416564941406,-0.5877313613891602,0.22973155975341797
453,276813312.0,9.252674102783203,-2.838412284851074,1.8112688064575195,-0.011717796325683594,-0.00852203369140625,0.03515434265136719,0.5866508483886719,0.5075416564941406,-0.5877313613891602,0.22973155975341797
454,276813312.0,9.252674102783203,-2.838412284851074,1.8112688064575195,-0.011717796325683594,-0.00852203369140625,0.03515434265136719,0.5866508483886719,0.5075416564941406,-0.5877313613891602,0.22973155975341797
455,276813344.0,9.231125831604004,-2.9186201095581055,1.795705795288086,-0.030893325805664062,0.0,0.026632308959960938,0.5866508483886719,0.5075416564941406,-0.5877313613891602,0.22973155975341797
456,276813344.0,9.231125831604004,-2.9186201095581055,1.795705795288086,-0.030893325805664062,0.0,0.026632308959960938,0.5866508483886719,0.5075416564941406,-0.5877313613891602,0.22973155975341797
457,276813344.0,9.231125831604004,-2.9186201095581055,1.795705795288086,-0.030893325805664062,0.0,0.026632308959960938,0.5866508483886719,0.5075416564941406,-0.5877313613891602,0.22973155975341797
458,276813440.0,9.232322692871094,-2.942563056945801,1.8304224014282227,0.0063915252685546875,0.0010652542114257812,0.012783050537109375,0.5866508483886719,0.5075416564941406,-0.5877313613891602,0.22973155975341797
459,276813472.0,9.207182884216309,-2.8886919021606445,1.8160572052001953,0.020239830017089844,-0.0010652542114257812,0.014913558959960938,0.5866508483886719,0.5075416564941406,-0.5877313613891602,0.22973155975341797
460,276813472.0,9.219154357910156,-2.8276376724243164,1.7825374603271484,0.020239830017089844,-0.0010652542114257812,0.014913558959960938,0.5866508483886719,0.5075416564941406,-0.5877313613891602,0.22973155975341797
461,276813504.0,9.240702629089355,-2.8623552322387695,1.7849311828613281,0.004261016845703125,-0.00852203369140625,0.010652542114257812,0.5866508483886719,0.5075416564941406,-0.5877313613891602,0.22973155975341797
462,276813536.0,9.276617050170898,-2.909043312072754,1.7729597091674805,0.03728485107421875,0.0,-0.0063915252685546875,0.5866508483886719,0.5075416564941406,-0.5877313613891602,0.22973155975341797
463,276813632.0,9.197606086730957,-2.853975296020508,1.8088741302490234,0.005326271057128906,0.0,-0.004261016845703125,0.5894565582275391,0.4989967346191406,-0.5879898071289062,0.24039173126220703
464,276813664.0,9.220351219177246,-2.84439754486084,1.786128044128418,0.005326271057128906,0.0,-0.004261016845703125,0.5894565582275391,0.4989967346191406,-0.5879898071289062,0.24039173126220703
465,276813696.0,9.232322692871094,-2.8779172897338867,1.8028879165649414,0.005326271057128906,0.0,-0.004261016845703125,0.5894565582275391,0.4989967346191406,-0.5879898071289062,0.24039173126220703
466,276813696.0,9.239505767822266,-2.907846450805664,1.8028879165649414,0.005326271057128906,0.0,-0.004261016845703125,0.5894565582275391,0.4989967346191406,-0.5879898071289062,0.24039173126220703
467,276813728.0,9.134157180786133,-2.849186897277832,1.795705795288086,0.005326271057128906,0.0,-0.004261016845703125,0.5894565582275391,0.4989967346191406,-0.5879898071289062,0.24039173126220703
468,276813760.0,9.259857177734375,-2.818060874938965,1.7573966979980469,0.005326271057128906,0.0,-0.004261016845703125,0.5894565582275391,0.4989967346191406,-0.5879898071289062,0.24039173126220703
469,276813760.0,9.316122055053711,-2.8922834396362305,1.7478199005126953,0.005326271057128906,0.0,-0.004261016845703125,0.5894565582275391,0.4989967346191406,-0.5879898071289062,0.24039173126220703
470,276813760.0,9.259857177734375,-2.818060874938965,1.7573966979980469,0.005326271057128906,0.0,-0.004261016845703125,0.5894565582275391,0.4989967346191406,-0.5879898071289062,0.24039173126220703
471,276813760.0,9.316122055053711,-2.8922834396362305,1.7478199005126953,0.005326271057128906,0.0,-0.004261016845703125,0.5894565582275391,0.4989967346191406,-0.5879898071289062,0.24039173126220703
472,276813792.0,9.229928970336914,-2.937774658203125,1.7502145767211914,0.005326271057128906,0.0,-0.004261016845703125,0.5894565582275391,0.4989967346191406,-0.5879898071289062,0.24039173126220703
473,276813792.0,9.21436595916748,-2.964111328125,1.7969026565551758,0.005326271057128906,0.0,-0.004261016845703125,0.5894565582275391,0.4989967346191406,-0.5879898071289062,0.24039173126220703
474,276813792.0,9.229928970336914,-2.937774658203125,1.7502145767211914,0.005326271057128906,0.0,-0.004261016845703125,0.5894565582275391,0.4989967346191406,-0.5879898071289062,0.24039173126220703
475,276813792.0,9.21436595916748,-2.964111328125,1.7969026565551758,0.005326271057128906,0.0,-0.004261016845703125,0.5894565582275391,0.4989967346191406,-0.5879898071289062,0.24039173126220703
476,276813824.0,9.268237113952637,-2.8874950408935547,1.8100709915161133,0.005326271057128906,0.0,-0.004261016845703125,0.5894565582275391,0.4989967346191406,-0.5879898071289062,0.24039173126220703
477,276813824.0,9.268237113952637,-2.8874950408935547,1.8100709915161133,0.005326271057128906,0.0,-0.004261016845703125,0.5894565582275391,0.4989967346191406,-0.5879898071289062,0.24039173126220703
478,276814048.0,9.244294166564941,-2.930591583251953,1.7693681716918945,0.012783050537109375,0.0010652542114257812,0.021305084228515625,0.5896291732788086,0.4976158142089844,-0.5886802673339844,0.24116802215576172
479,276814048.0,9.244294166564941,-2.930591583251953,1.7693681716918945,0.012783050537109375,0.0010652542114257812,0.021305084228515625,0.5896291732788086,0.4976158142089844,-0.5886802673339844,0.24116802215576172
480,276814048.0,9.244294166564941,-2.930591583251953,1.7693681716918945,0.012783050537109375,0.0010652542114257812,0.021305084228515625,0.5896291732788086,0.4976158142089844,-0.5886802673339844,0.24116802215576172
481,276814080.0,9.247885704040527,-2.960519790649414,1.7729597091674805,0.012783050537109375,0.0010652542114257812,0.021305084228515625,0.5896291732788086,0.4976158142089844,-0.5886802673339844,0.24116802215576172
482,276814080.0,9.246688842773438,-2.909043312072754,1.7753543853759766,0.012783050537109375,0.0010652542114257812,0.021305084228515625,0.5896291732788086,0.4976158142089844,-0.5886802673339844,0.24116802215576172
483,276814080.0,9.247885704040527,-2.960519790649414,1.7729597091674805,0.012783050537109375,0.0010652542114257812,0.021305084228515625,0.5896291732788086,0.4976158142089844,-0.5886802673339844,0.24116802215576172
484,276814080.0,9.246688842773438,-2.909043312072754,1.7753543853759766,0.012783050537109375,0.0010652542114257812,0.021305084228515625,0.5896291732788086,0.4976158142089844,-0.5886802673339844,0.24116802215576172
485,276814080.0,9.247885704040527,-2.960519790649414,1.7729597091674805,0.012783050537109375,0.0010652542114257812,0.021305084228515625,0.5896291732788086,0.4976158142089844,-0.5886802673339844,0.24116802215576172
486,276814080.0,9.246688842773438,-2.909043312072754,1.7753543853759766,0.012783050537109375,0.0010652542114257812,0.021305084228515625,0.5896291732788086,0.4976158142089844,-0.5886802673339844,0.24116802215576172
487,276814112.0,9.210774421691895,-2.9150285720825195,1.7765512466430664,0.012783050537109375,0.0010652542114257812,0.021305084228515625,0.5896291732788086,0.4976158142089844,-0.5886802673339844,0.24116802215576172
488,276814112.0,9.227534294128418,-2.882706642150879,1.765777587890625,0.012783050537109375,0.0010652542114257812,0.021305084228515625,0.5896291732788086,0.4976158142089844,-0.5886802673339844,0.24116802215576172
489,276814112.0,9.210774421691895,-2.9150285720825195,1.7765512466430664,0.012783050537109375,0.0010652542114257812,0.021305084228515625,0.5896291732788086,0.4976158142089844,-0.5886802673339844,0.24116802215576172
490,276814112.0,9.227534294128418,-2.882706642150879,1.765777587890625,0.012783050537109375,0.0010652542114257812,0.021305084228515625,0.5896291732788086,0.4976158142089844,-0.5886802673339844,0.24116802215576172
491,276814112.0,9.210774421691895,-2.9150285720825195,1.7765512466430664,0.012783050537109375,0.0010652542114257812,0.021305084228515625,0.5896291732788086,0.4976158142089844,-0.5886802673339844,0.24116802215576172
492,276814112.0,9.227534294128418,-2.882706642150879,1.765777587890625,0.012783050537109375,0.0010652542114257812,0.021305084228515625,0.5896291732788086,0.4976158142089844,-0.5886802673339844,0.24116802215576172
493,276814240.0,9.249082565307617,-2.9521398544311523,1.7992973327636719,0.007456779479980469,-0.0021305084228515625,-0.004261016845703125,0.5900173187255859,0.49744319915771484,-0.5885944366455078,0.24077987670898438
494,276814272.0,9.247885704040527,-2.8659467697143555,1.788522720336914,0.0,-0.004261016845703125,0.0063915252685546875,0.5900173187255859,0.49744319915771484,-0.5885944366455078,0.24077987670898438
495,276814272.0,9.247885704040527,-2.8707351684570312,1.7849311828613281,0.0,-0.004261016845703125,0.0063915252685546875,0.5900173187255859,0.49744319915771484,-0.5885944366455078,0.24077987670898438
496,276814304.0,9.243097305297852,-2.882706642150879,1.789719581604004,0.0031957626342773438,0.0021305084228515625,0.005326271057128906,0.5900173187255859,0.49744319915771484,-0.5885944366455078,0.24077987670898438
497,276814336.0,9.229928970336914,-2.868340492248535,1.765777587890625,0.0,0.0031957626342773438,0.0010652542114257812,0.5900173187255859,0.49744319915771484,-0.5885944366455078,0.24077987670898438
498,276814336.0,9.227534294128418,-2.876720428466797,1.8124656677246094,0.0,0.0031957626342773438,0.0010652542114257812,0.5900173187255859,0.49744319915771484,-0.5885944366455078,0.24077987670898438
499,276814368.0,9.210774421691895,-2.8348207473754883,1.8016910552978516,0.0,0.0031957626342773438,0.0010652542114257812,0.5900173187255859,0.49744319915771484,-0.5885944366455078,0.24077987670898438
500,276814400.0,9.189226150512695,-2.8587636947631836,1.788522720336914,0.0,0.0031957626342773438,0.0010652542114257812,0.5900173187255859,0.49744319915771484,-0.5885944366455078,0.24077987670898438
501,276814400.0,9.16767692565918,-2.9174232482910156,1.7346515655517578,0.0,0.0031957626342773438,0.0010652542114257812,0.5900173187255859,0.49744319915771484,-0.5885944366455078,0.24077987670898438
502,276814432.0,9.340065002441406,-2.9222116470336914,1.737046241760254,0.022370338439941406,0.009587287902832031,-0.0170440673828125,0.5900173187255859,0.49744319915771484,-0.5885944366455078,0.24077987670898438
503,276814432.0,9.28380012512207,-2.909043312072754,1.7538061141967773,0.022370338439941406,0.009587287902832031,-0.0170440673828125,0.5900173187255859,0.49744319915771484,-0.5885944366455078,0.24077987670898438
504,276814464.0,9.205986022949219,-2.8623552322387695,1.7406368255615234,0.010652542114257812,0.0,-0.013848304748535156,0.5900173187255859,0.49744319915771484,-0.5885944366455078,0.24077987670898438
505,276814496.0,9.281405448913574,-2.937774658203125,1.7585945129394531,-0.005326271057128906,-0.0010652542114257812,-0.011717796325683594,0.5900173187255859,0.49744319915771484,-0.5885944366455078,0.24077987670898438
506,276814496.0,9.249082565307617,-2.9473514556884766,1.7645797729492188,-0.005326271057128906,-0.0010652542114257812,-0.011717796325683594,0.5900173187255859,0.49744319915771484,-0.5885944366455078,0.24077987670898438
507,276814528.0,9.202394485473633,-2.936577796936035,1.7226800918579102,0.0,-0.005326271057128906,-0.005326271057128906,0.5900173187255859,0.49744319915771484,-0.5885944366455078,0.24077987670898438
508,276814560.0,9.251477241516113,-2.940169334411621,1.8040857315063477,0.0,-0.005326271057128906,-0.005326271057128906,0.5900173187255859,0.49744319915771484,-0.5885944366455078,0.24077987670898438
509,276814560.0,9.231125831604004,-2.967702865600586,1.8052825927734375,0.0,-0.005326271057128906,-0.005326271057128906,0.5900173187255859,0.49744319915771484,-0.5885944366455078,0.24077987670898438
510,276814592.0,9.28499698638916,-3.131711006164551,1.7933111190795898,0.0,-0.005326271057128906,-0.005326271057128906,0.5900173187255859,0.49744319915771484,-0.5885944366455078,0.24077987670898438
511,276814592.0,9.37597942352295,-3.281352996826172,1.975275993347168,0.0,-0.005326271057128906,-0.005326271057128906,0.5900173187255859,0.49744319915771484,-0.5885944366455078,0.24077987670898438
512,276814624.0,9.721952438354492,-3.6440858840942383,1.919011116027832,0.0,-0.005326271057128906,-0.005326271057128906,0.5900173187255859,0.49744319915771484,-0.5885944366455078,0.24077987670898438
513,276814656.0,9.783005714416504,-4.482081413269043,1.9381647109985352,-0.6008272171020508,0.16938209533691406,0.9300041198730469,0.5900173187255859,0.49744319915771484,-0.5885944366455078,0.24077987670898438
514,276814656.0,10.302563667297363,-6.2346906661987305,2.124917984008789,-0.6008272171020508,0.16938209533691406,0.9300041198730469,0.5900173187255859,0.49744319915771484,-0.5885944366455078,0.24077987670898438
515,276814688.0,10.810150146484375,-6.693194389343262,2.5307483673095703,-0.9566364288330078,0.566737174987793,1.9793214797973633,0.5900173187255859,0.49744319915771484,-0.5885944366455078,0.24077987670898438
516,276814688.0,10.599453926086426,-8.582277297973633,2.312869071960449,-0.9566364288330078,0.566737174987793,1.9793214797973633,0.5900173187255859,0.49744319915771484,-0.5885944366455078,0.24077987670898438
517,276814720.0,10.685647964477539,-10.381574630737305,2.2039289474487305,-0.5113420486450195,0.5955009460449219,2.4235496520996094,0.5900173187255859,0.49744319915771484,-0.5885944366455078,0.24077987670898438
518,276814752.0,11.419492721557617,-10.941835403442383,2.536733627319336,-0.5113420486450195,0.5955009460449219,2.4235496520996094,0.5900173187255859,0.49744319915771484,-0.5885944366455078,0.24077987670898438
519,276814752.0,11.229147911071777,-10.832895278930664,2.7641897201538086,-0.5113420486450195,0.5955009460449219,2.4235496520996094,0.5900173187255859,0.49744319915771484,-0.5885944366455078,0.24077987670898438
520,276814752.0,11.419492721557617,-10.941835403442383,2.536733627319336,-0.5113420486450195,0.5955009460449219,2.4235496520996094,0.5900173187255859,0.49744319915771484,-0.5885944366455078,0.24077987670898438
521,276814752.0,11.229147911071777,-10.832895278930664,2.7641897201538086,-0.5113420486450195,0.5955009460449219,2.4235496520996094,0.5900173187255859,0.49744319915771484,-0.5885944366455078,0.24077987670898438
522,276814784.0,10.889161109924316,-12.319740295410156,2.6193361282348633,-0.5113420486450195,0.5955009460449219,2.4235496520996094,0.5900173187255859,0.49744319915771484,-0.5885944366455078,0.24077987670898438
523,276814784.0,10.889161109924316,-12.319740295410156,2.6193361282348633,-0.5113420486450195,0.5955009460449219,2.4235496520996094,0.5900173187255859,0.49744319915771484,-0.5885944366455078,0.24077987670898438
524,276814816.0,11.642160415649414,-13.844893455505371,2.1129465103149414,-0.5113420486450195,0.5955009460449219,2.4235496520996094,0.5900173187255859,0.49744319915771484,-0.5885944366455078,0.24077987670898438
525,276814816.0,11.962992668151855,-13.902355194091797,2.2649831771850586,-0.5113420486450195,0.5955009460449219,2.4235496520996094,0.5900173187255859,0.49744319915771484,-0.5885944366455078,0.24077987670898438
526,276814816.0,11.642160415649414,-13.844893455505371,2.1129465103149414,-0.5113420486450195,0.5955009460449219,2.4235496520996094,0.5900173187255859,0.49744319915771484,-0.5885944366455078,0.24077987670898438
527,276814816.0,11.962992668151855,-13.902355194091797,2.2649831771850586,-0.5113420486450195,0.5955009460449219,2.4235496520996094,0.5900173187255859,0.49744319915771484,-0.5885944366455078,0.24077987670898438
528,276814944.0,4.890305519104004,-7.276200294494629,2.347585678100586,1.5478763580322266,0.1331615447998047,6.193635940551758,0.5012407302856445,0.8406381607055664,-0.17953968048095703,-0.09900569915771484
529,276814976.0,4.019987106323242,-6.469329833984375,3.226284980773926,1.5478763580322266,0.1331615447998047,6.193635940551758,0.4513063430786133,0.8713665008544922,-0.09227275848388672,-0.16887950897216797
530,276814976.0,3.249030113220215,-5.092621803283691,3.035940170288086,1.5478763580322266,0.1331615447998047,6.193635940551758,0.4513063430786133,0.8713665008544922,-0.09227275848388672,-0.16887950897216797
531,276815008.0,2.1799869537353516,-3.9780874252319336,3.0790367126464844,1.5478763580322266,0.1331615447998047,6.193635940551758,0.42618846893310547,0.87939453125,-0.0530853271484375,-0.20539093017578125
532,276815008.0,1.0331287384033203,-2.840806007385254,2.6684188842773438,1.5478763580322266,0.1331615447998047,6.193635940551758,0.42618846893310547,0.87939453125,-0.0530853271484375,-0.20539093017578125
533,276815040.0,-0.20830154418945312,-2.438568115234375,2.1368894577026367,1.0493173599243164,1.5904874801635742,4.953630447387695,0.4040050506591797,0.8822860717773438,-0.016357421875,-0.2409534454345703
534,276815072.0,-0.6512422561645508,-2.1261157989501953,2.2578001022338867,0.5038852691650391,1.4754362106323242,4.154657363891602,0.4040050506591797,0.8822860717773438,-0.016357421875,-0.2409534454345703
535,276815072.0,-1.6161346435546875,-2.159635543823242,2.0638647079467773,0.5038852691650391,1.4754362106323242,4.154657363891602,0.4040050506591797,0.8822860717773438,-0.016357421875,-0.2409534454345703
536,276815104.0,-2.372725486755371,-3.5052175521850586,1.2450227737426758,0.0031957626342773438,1.161172866821289,3.706167221069336,0.4040050506591797,0.8822860717773438,-0.016357421875,-0.2409534454345703
537,276815136.0,-2.7929210662841797,-3.8236560821533203,0.5231485366821289,-0.678593635559082,0.9459829330444336,2.8549957275390625,0.4040050506591797,0.8822860717773438,-0.016357421875,-0.2409534454345703
538,276815264.0,-3.22269344329834,-1.765777587890625,3.493246078491211,-3.8041744232177734,-4.800227165222168,1.247462272644043,0.4024515151977539,0.7935523986816406,0.33011817932128906,-0.31509971618652344
539,276815296.0,28.81988525390625,-8.567911148071289,33.33907699584961,-3.8041744232177734,-4.800227165222168,1.247462272644043,0.4024515151977539,0.7935523986816406,0.33011817932128906,-0.31509971618652344
540,276815296.0,-21.76874542236328,-11.50568675994873,7.774209976196289,-3.8041744232177734,-4.800227165222168,1.247462272644043,0.4024515151977539,0.7935523986816406,0.33011817932128906,-0.31509971618652344
541,276815328.0,-12.81535530090332,-7.302536964416504,-6.331659317016602,1.2708988189697266,-0.3909635543823242,-0.4559469223022461,0.4024515151977539,0.7935523986816406,0.33011817932128906,-0.31509971618652344
542,276815328.0,-1.264176368713379,-2.9724912643432617,6.093428611755371,1.2708988189697266,-0.3909635543823242,-0.4559469223022461,0.4024515151977539,0.7935523986816406,0.33011817932128906,-0.31509971618652344
543,276815360.0,-2.595393180847168,-5.6109819412231445,7.958568572998047,-0.21199321746826172,0.01810932159423828,-0.42292213439941406,0.4024515151977539,0.7935523986816406,0.33011817932128906,-0.31509971618652344
544,276815392.0,-5.838438034057617,-9.78420352935791,6.530384063720703,1.9292526245117188,1.4935455322265625,0.0287628173828125,0.4024515151977539,0.7935523986816406,0.33011817932128906,-0.31509971618652344
545,276815392.0,-7.470136642456055,-6.695589065551758,4.5598955154418945,1.9292526245117188,1.4935455322265625,0.0287628173828125,0.4024515151977539,0.7935523986816406,0.33011817932128906,-0.31509971618652344
546,276815424.0,-7.5659074783325195,-4.7227067947387695,1.8495769500732422,1.8014163970947266,1.597945213317871,0.060721397399902344,0.4024515151977539,0.7935523986816406,0.33011817932128906,-0.31509971618652344
547,276815456.0,-9.244294166564941,-3.2334671020507812,-1.6520490646362305,1.0237503051757812,1.825918197631836,0.0980072021484375,0.4024515151977539,0.7935523986816406,0.33011817932128906,-0.31509971618652344
548,276815456.0,-12.179675102233887,-2.460116386413574,-6.141314506530762,1.0237503051757812,1.825918197631836,0.0980072021484375,0.4024515151977539,0.7935523986816406,0.33011817932128906,-0.31509971618652344
549,276815456.0,-12.179675102233887,-2.460116386413574,-6.141314506530762,1.0237503051757812,1.825918197631836,0.0980072021484375,0.4024515151977539,0.7935523986816406,0.33011817932128906,-0.31509971618652344
550,276815488.0,-13.551594734191895,-3.7649965286254883,-9.865608215332031,1.0237503051757812,1.825918197631836,0.0980072021484375,0.4024515151977539,0.7935523986816406,0.33011817932128906,-0.31509971618652344
551,276815488.0,-11.752297401428223,-3.131711006164551,-9.086272239685059,1.0237503051757812,1.825918197631836,0.0980072021484375,0.4024515151977539,0.7935523986816406,0.33011817932128906,-0.31509971618652344
552,276815488.0,-13.551594734191895,-3.7649965286254883,-9.865608215332031,1.0237503051757812,1.825918197631836,0.0980072021484375,0.4024515151977539,0.7935523986816406,0.33011817932128906,-0.31509971618652344
553,276815488.0,-11.752297401428223,-3.131711006164551,-9.086272239685059,1.0237503051757812,1.825918197631836,0.0980072021484375,0.4024515151977539,0.7935523986816406,0.33011817932128906,-0.31509971618652344
554,276815520.0,-10.058347702026367,-0.8379955291748047,-5.497254371643066,1.0237503051757812,1.825918197631836,0.0980072021484375,0.4024515151977539,0.7935523986816406,0.33011817932128906,-0.31509971618652344
555,276815520.0,-10.058347702026367,-0.8379955291748047,-5.497254371643066,1.0237503051757812,1.825918197631836,0.0980072021484375,0.4024515151977539,0.7935523986816406,0.33011817932128906,-0.31509971618652344
556,276815552.0,-8.61460018157959,-0.2657642364501953,-2.5127906799316406,2.2392539978027344,-3.791391372680664,-0.0809621810913086,0.4024515151977539,0.7935523986816406,0.33011817932128906,-0.31509971618652344
557,276815552.0,30.43482208251953,-22.277528762817383,39.098506927490234,2.2392539978027344,-3.791391372680664,-0.0809621810913086,0.4024515151977539,0.7935523986816406,0.33011817932128906,-0.31509971618652344
558,276815584.0,-14.878022193908691,0.799687385559082,3.867950439453125,2.0624141693115234,3.543177604675293,-1.1153650283813477,0.4024515151977539,0.7935523986816406,0.33011817932128906,-0.31509971618652344
559,276815616.0,-16.79224395751953,-2.931788444519043,2.753415107727051,0.49962425231933594,-2.533275604248047,-2.330869674682617,0.4024515151977539,0.7935523986816406,0.33011817932128906,-0.31509971618652344
560,276815616.0,-0.5099802017211914,2.84200382232666,5.831255912780762,0.49962425231933594,-2.533275604248047,-2.330869674682617,0.4024515151977539,0.7935523986816406,0.33011817932128906,-0.31509971618652344
561,276815648.0,4.046323776245117,-3.520780563354492,6.409472465515137,3.0680551528930664,0.8000373840332031,-2.645132064819336,0.4024515151977539,0.7935523986816406,0.33011817932128906,-0.31509971618652344
562,276815648.0,-1.4545211791992188,-1.7765512466430664,7.462953567504883,3.0680551528930664,0.8000373840332031,-2.645132064819336,0.4024515151977539,0.7935523986816406,0.33011817932128906,-0.31509971618652344
563,276815648.0,-1.4545211791992188,-1.7765512466430664,7.462953567504883,3.0680551528930664,0.8000373840332031,-2.645132064819336,0.4024515151977539,0.7935523986816406,0.33011817932128906,-0.31509971618652344
564,276815680.0,-1.6173324584960938,-4.765803337097168,5.974911689758301,2.3905258178710938,-0.14701080322265625,-2.825166702270508,0.4024515151977539,0.7935523986816406,0.33011817932128906,-0.31509971618652344
565,276815680.0,-1.6173324584960938,-4.765803337097168,5.974911689758301,2.3905258178710938,-0.14701080322265625,-2.825166702270508,0.4024515151977539,0.7935523986816406,0.33011817932128906,-0.31509971618652344
566,276815712.0,2.029147148132324,-4.625738143920898,5.3631744384765625,1.8440284729003906,0.38244152069091797,-3.3034849166870117,0.4024515151977539,0.7935523986816406,0.33011817932128906,-0.31509971618652344
567,276815712.0,0.48005199432373047,-3.3807153701782227,5.220715522766113,1.8440284729003906,0.38244152069091797,-3.3034849166870117,0.4024515151977539,0.7935523986816406,0.33011817932128906,-0.31509971618652344
568,276815712.0,2.029147148132324,-4.625738143920898,5.3631744384765625,1.8440284729003906,0.38244152069091797,-3.3034849166870117,0.4024515151977539,0.7935523986816406,0.33011817932128906,-0.31509971618652344
569,276815712.0,0.48005199432373047,-3.3807153701782227,5.220715522766113,1.8440284729003906,0.38244152069091797,-3.3034849166870117,0.4024515151977539,0.7935523986816406,0.33011817932128906,-0.31509971618652344
