,timestamp,accel_x,accel_y,accel_z,gyro_x,gyro_y,gyro_z,ori_scalar,ori_x,ori_y,ori_z
0,611807424.0,9.153311729431152,-1.941756248474121,2.853975296020508,0.13422679901123047,-0.07989692687988281,0.07350540161132812,-0.32662296295166016,0.5886363983154297,0.5575628280639648,0.4857902526855469
1,611807488.0,9.09584903717041,-1.8890819549560547,2.751021385192871,0.13422679901123047,-0.07989692687988281,0.07350540161132812,-0.32662296295166016,0.5886363983154297,0.5575628280639648,0.4857902526855469
2,611807488.0,9.150917053222656,-1.6831750869750977,3.312479019165039,0.13422679901123047,-0.07989692687988281,0.07350540161132812,-0.32662296295166016,0.5886363983154297,0.5575628280639648,0.4857902526855469
3,611807488.0,9.231125831604004,-1.5502920150756836,3.276564598083496,0.13422679901123047,-0.07989692687988281,0.07350540161132812,-0.32662296295166016,0.5886363983154297,0.5575628280639648,0.4857902526855469
4,611807552.0,9.02641487121582,-1.4772672653198242,2.930591583251953,-0.09374523162841797,-0.057525634765625,0.061786651611328125,-0.32662296295166016,0.5886363983154297,0.5575628280639648,0.4857902526855469
5,611807552.0,8.912687301635742,-1.3982563018798828,3.1125564575195312,-0.09374523162841797,-0.057525634765625,0.061786651611328125,-0.32662296295166016,0.5886363983154297,0.5575628280639648,0.4857902526855469
6,611807552.0,9.002472877502441,-1.3982563018798828,3.336421012878418,-0.09374523162841797,-0.057525634765625,0.061786651611328125,-0.32662296295166016,0.5886363983154297,0.5575628280639648,0.4857902526855469
7,611807552.0,8.912687301635742,-1.3982563018798828,3.1125564575195312,-0.09374523162841797,-0.057525634765625,0.061786651611328125,-0.32662296295166016,0.5886363983154297,0.5575628280639648,0.4857902526855469
8,611807552.0,9.002472877502441,-1.3982563018798828,3.336421012878418,-0.09374523162841797,-0.057525634765625,0.061786651611328125,-0.32662296295166016,0.5886363983154297,0.5575628280639648,0.4857902526855469
9,611807616.0,8.958178520202637,-1.580221176147461,3.160442352294922,-0.16298961639404297,-0.03728485107421875,0.014913558959960938,-0.3235158920288086,0.589111328125,0.5555343627929688,0.489501953125
10,611807616.0,8.827690124511719,-1.7573966979980469,2.873128890991211,-0.16298961639404297,-0.03728485107421875,0.014913558959960938,-0.3235158920288086,0.589111328125,0.5555343627929688,0.489501953125
11,611807616.0,8.958178520202637,-1.580221176147461,3.160442352294922,-0.16298961639404297,-0.03728485107421875,0.014913558959960938,-0.3235158920288086,0.589111328125,0.5555343627929688,0.489501953125
12,611807616.0,8.827690124511719,-1.7573966979980469,2.873128890991211,-0.16298961639404297,-0.03728485107421875,0.014913558959960938,-0.3235158920288086,0.589111328125,0.5555343627929688,0.489501953125
13,611807872.0,9.11500358581543,-2.260194778442383,2.942563056945801,0.021305084228515625,-0.07670116424560547,-0.01810932159423828,-0.3224802017211914,0.5893697738647461,0.5524263381958008,0.49338626861572266
14,611807872.0,9.340065002441406,-2.1045665740966797,2.909043312072754,0.021305084228515625,-0.07670116424560547,-0.01810932159423828,-0.3224802017211914,0.5893697738647461,0.5524263381958008,0.49338626861572266
15,611807872.0,9.462173461914062,-2.1189327239990234,2.788132667541504,0.021305084228515625,-0.07670116424560547,-0.01810932159423828,-0.3224802017211914,0.5893697738647461,0.5524263381958008,0.49338626861572266
16,611807936.0,9.391542434692383,-2.1165380477905273,2.8336238861083984,-0.01810932159423828,-0.03621959686279297,0.022370338439941406,-0.3252420425415039,0.5844936370849609,0.5478086471557617,0.5025358200073242
17,611807936.0,9.149720191955566,-2.007598876953125,2.9473514556884766,-0.01810932159423828,-0.03621959686279297,0.022370338439941406,-0.3252420425415039,0.5844936370849609,0.5478086471557617,0.5025358200073242
18,611808064.0,9.318516731262207,-2.133297920227051,2.700741767883301,-0.005326271057128906,-0.022370338439941406,0.11292076110839844,-0.3192863464355469,0.5809106826782227,0.5492324829101562,0.5088367462158203
19,611808064.0,9.225139617919922,-2.1225242614746094,2.661235809326172,-0.005326271057128906,-0.022370338439941406,0.11292076110839844,-0.3192863464355469,0.5809106826782227,0.5492324829101562,0.5088367462158203
20,611808064.0,9.239505767822266,-2.1692123413085938,2.7462329864501953,-0.005326271057128906,-0.022370338439941406,0.11292076110839844,-0.3192863464355469,0.5809106826782227,0.5492324829101562,0.5088367462158203
21,611808128.0,9.270630836486816,-2.068653106689453,2.836017608642578,-0.0692434310913086,0.009587287902832031,0.1374225616455078,-0.3179054260253906,0.5793142318725586,0.5505704879760742,0.510045051574707
22,611808128.0,9.18443775177002,-2.1189327239990234,2.6145477294921875,-0.0692434310913086,0.009587287902832031,0.1374225616455078,-0.3179054260253906,0.5793142318725586,0.5505704879760742,0.510045051574707
23,611808128.0,9.031203269958496,-2.193155288696289,2.6181392669677734,-0.0692434310913086,0.009587287902832031,0.1374225616455078,-0.3179054260253906,0.5793142318725586,0.5505704879760742,0.510045051574707
24,611808192.0,9.082680702209473,-2.2733631134033203,2.6959524154663086,0.005326271057128906,-0.021305084228515625,0.1438150405883789,-0.3179054260253906,0.5793142318725586,0.5505704879760742,0.510045051574707
25,611808192.0,9.131763458251953,-2.376317024230957,2.7354583740234375,0.005326271057128906,-0.021305084228515625,0.1438150405883789,-0.3179054260253906,0.5793142318725586,0.5505704879760742,0.510045051574707
26,611808192.0,9.258659362792969,-2.3236427307128906,2.6756019592285156,0.005326271057128906,-0.021305084228515625,0.1438150405883789,-0.3179054260253906,0.5793142318725586,0.5505704879760742,0.510045051574707
27,611808256.0,9.313728332519531,-2.2829408645629883,2.6779956817626953,0.030893325805664062,-0.019174575805664062,0.14061832427978516,-0.31056785583496094,0.5725812911987305,0.5561809539794922,0.516087532043457
28,611808320.0,8.901912689208984,-2.4277944564819336,2.7426414489746094,0.030893325805664062,-0.019174575805664062,0.14061832427978516,-0.3086690902709961,0.5711145401000977,0.5575628280639648,0.5173816680908203
29,611808384.0,8.85642147064209,-2.5558881759643555,2.72109317779541,0.030893325805664062,-0.019174575805664062,0.14061832427978516,-0.3086690902709961,0.5711145401000977,0.5575628280639648,0.5173816680908203
30,611808384.0,8.800156593322754,-2.5894079208374023,2.595393180847168,0.030893325805664062,-0.019174575805664062,0.14061832427978516,-0.3086690902709961,0.5711145401000977,0.5575628280639648,0.5173816680908203
31,611808384.0,8.838464736938477,-2.7055301666259766,2.474482536315918,0.030893325805664062,-0.019174575805664062,0.14061832427978516,-0.3086690902709961,0.5711145401000977,0.5575628280639648,0.5173816680908203
32,611808448.0,8.901912689208984,-2.7055301666259766,2.4948339462280273,-0.05965614318847656,-0.023435592651367188,0.11398601531982422,-0.2990446090698242,0.5661077499389648,0.5610151290893555,0.5247621536254883
33,611808576.0,9.125777244567871,-2.685178756713867,2.5427188873291016,-0.0170440673828125,-0.04687213897705078,0.11931324005126953,-0.2975339889526367,0.564122200012207,0.5616188049316406,0.5270490646362305
34,611808576.0,9.04676628112793,-2.559478759765625,2.576239585876465,-0.0170440673828125,-0.04687213897705078,0.11931324005126953,-0.2975339889526367,0.564122200012207,0.5616188049316406,0.5270490646362305
35,611808576.0,9.063526153564453,-2.590604782104492,2.6121530532836914,-0.0170440673828125,-0.04687213897705078,0.11931324005126953,-0.2975339889526367,0.564122200012207,0.5616188049316406,0.5270490646362305
36,611808576.0,9.055146217346191,-2.6121530532836914,2.6779956817626953,-0.0170440673828125,-0.04687213897705078,0.11931324005126953,-0.2975339889526367,0.564122200012207,0.5616188049316406,0.5270490646362305
37,611808640.0,9.000078201293945,-2.625321388244629,2.7977094650268555,0.15127182006835938,-0.07244014739990234,-0.0010652542114257812,-0.2975339889526367,0.564122200012207,0.5616188049316406,0.5270490646362305
38,611808832.0,9.080286026000977,-2.5451135635375977,2.5056076049804688,0.034089088439941406,-0.031958580017089844,0.0170440673828125,-0.3098773956298828,0.5512609481811523,0.5710277557373047,0.5234241485595703
39,611808896.0,9.101835250854492,-2.634899139404297,2.4912424087524414,-0.023435592651367188,-0.042611122131347656,0.054329872131347656,-0.3098773956298828,0.5512609481811523,0.5710277557373047,0.5234241485595703
40,611808896.0,9.101835250854492,-2.7091217041015625,2.473285675048828,-0.023435592651367188,-0.042611122131347656,0.054329872131347656,-0.3098773956298828,0.5512609481811523,0.5710277557373047,0.5234241485595703
41,611808896.0,9.107820510864258,-2.72348690032959,2.4649057388305664,-0.023435592651367188,-0.042611122131347656,0.054329872131347656,-0.3098773956298828,0.5512609481811523,0.5710277557373047,0.5234241485595703
42,611808960.0,9.172466278076172,-2.6767988204956055,2.564268112182617,-0.023435592651367188,-0.042611122131347656,0.054329872131347656,-0.3096189498901367,0.5475931167602539,0.5722789764404297,0.5261001586914062
43,611808960.0,9.131763458251953,-2.5834217071533203,2.5714502334594727,-0.023435592651367188,-0.042611122131347656,0.054329872131347656,-0.3096189498901367,0.5475931167602539,0.5722789764404297,0.5261001586914062
44,611808960.0,9.087469100952148,-2.5750417709350586,2.543916702270508,-0.023435592651367188,-0.042611122131347656,0.054329872131347656,-0.3096189498901367,0.5475931167602539,0.5722789764404297,0.5261001586914062
45,611809024.0,9.027612686157227,-2.598984718322754,2.588210105895996,-0.023435592651367188,-0.042611122131347656,0.054329872131347656,-0.3086261749267578,0.5458230972290039,0.5729265213012695,0.5277833938598633
46,611809024.0,9.019232749938965,-2.6097593307495117,2.5774364471435547,-0.023435592651367188,-0.042611122131347656,0.054329872131347656,-0.3086261749267578,0.5458230972290039,0.5729265213012695,0.5277833938598633
47,611809024.0,9.004866600036621,-2.6001815795898438,2.654052734375,-0.023435592651367188,-0.042611122131347656,0.054329872131347656,-0.3086261749267578,0.5458230972290039,0.5729265213012695,0.5277833938598633
48,611809024.0,9.061132431030273,-2.554690361022949,2.590604782104492,-0.023435592651367188,-0.042611122131347656,0.054329872131347656,-0.3086261749267578,0.5458230972290039,0.5729265213012695,0.5277833938598633
49,611809280.0,9.058737754821777,-2.6145477294921875,2.528353691101074,0.0,0.00852203369140625,0.00852203369140625,-0.30750370025634766,0.5447874069213867,0.5739622116088867,0.5283870697021484
50,611809280.0,9.071906089782715,-2.6420812606811523,2.5211706161499023,0.0,0.00852203369140625,0.00852203369140625,-0.30750370025634766,0.5447874069213867,0.5739622116088867,0.5283870697021484
51,611809280.0,9.04676628112793,-2.661235809326172,2.566661834716797,0.0,0.00852203369140625,0.00852203369140625,-0.30750370025634766,0.5447874069213867,0.5739622116088867,0.5283870697021484
52,611809344.0,9.02641487121582,-2.6732072830200195,2.5271568298339844,0.004261016845703125,0.01810932159423828,-0.0170440673828125,-0.30750370025634766,0.5447874069213867,0.5739622116088867,0.5283870697021484
53,611809344.0,9.051554679870605,-2.650461196899414,2.5199737548828125,0.004261016845703125,0.01810932159423828,-0.0170440673828125,-0.30750370025634766,0.5447874069213867,0.5739622116088867,0.5283870697021484
54,611809344.0,9.04437255859375,-2.6708126068115234,2.4900455474853516,0.004261016845703125,0.01810932159423828,-0.0170440673828125,-0.30750370025634766,0.5447874069213867,0.5739622116088867,0.5283870697021484
55,611809408.0,9.02402114868164,-2.6552505493164062,2.529550552368164,-0.012783050537109375,0.021305084228515625,-0.033023834228515625,-0.30750370025634766,0.5447874069213867,0.5739622116088867,0.5283870697021484
56,611809408.0,9.020429611206055,-2.6696157455444336,2.500819206237793,-0.012783050537109375,0.021305084228515625,-0.033023834228515625,-0.30750370025634766,0.5447874069213867,0.5739622116088867,0.5283870697021484
57,611809408.0,9.059934616088867,-2.6624326705932617,2.4852561950683594,-0.012783050537109375,0.021305084228515625,-0.033023834228515625,-0.30750370025634766,0.5447874069213867,0.5739622116088867,0.5283870697021484
58,611809472.0,9.082680702209473,-2.689967155456543,2.5271568298339844,-0.011717796325683594,0.01810932159423828,-0.03941535949707031,-0.30750370025634766,0.5447874069213867,0.5739622116088867,0.5283870697021484
59,611809472.0,9.013246536254883,-2.697150230407715,2.4864540100097656,-0.011717796325683594,0.01810932159423828,-0.03941535949707031,-0.30750370025634766,0.5447874069213867,0.5739622116088867,0.5283870697021484
60,611809472.0,9.013246536254883,-2.6803903579711914,2.4864540100097656,-0.011717796325683594,0.01810932159423828,-0.03941535949707031,-0.30750370025634766,0.5447874069213867,0.5739622116088867,0.5283870697021484
61,611809536.0,8.956981658935547,-2.7306699752807617,2.4900455474853516,0.011717796325683594,0.010652542114257812,-0.057525634765625,-0.30750370025634766,0.5447874069213867,0.5739622116088867,0.5283870697021484
62,611809536.0,9.112608909606934,-2.7354583740234375,2.4888477325439453,0.011717796325683594,0.010652542114257812,-0.057525634765625,-0.30750370025634766,0.5447874069213867,0.5739622116088867,0.5283870697021484
63,611809536.0,9.183239936828613,-2.7426414489746094,2.478074073791504,0.011717796325683594,0.010652542114257812,-0.057525634765625,-0.30750370025634766,0.5447874069213867,0.5739622116088867,0.5283870697021484
64,611809600.0,9.124580383300781,-2.7390499114990234,2.467299461364746,0.0021305084228515625,0.0,-0.04793834686279297,-0.30750370025634766,0.5447874069213867,0.5739622116088867,0.5283870697021484
65,611809600.0,9.125777244567871,-2.7366552352905273,2.5151853561401367,0.0021305084228515625,0.0,-0.04793834686279297,-0.30750370025634766,0.5447874069213867,0.5739622116088867,0.5283870697021484
66,611809600.0,9.087469100952148,-2.7127132415771484,2.525959014892578,0.0021305084228515625,0.0,-0.04793834686279297,-0.30750370025634766,0.5447874069213867,0.5739622116088867,0.5283870697021484
67,611809600.0,9.080286026000977,-2.7127132415771484,2.53433895111084,0.0021305084228515625,0.0,-0.04793834686279297,-0.30750370025634766,0.5447874069213867,0.5739622116088867,0.5283870697021484
68,611809600.0,9.124580383300781,-2.7390499114990234,2.467299461364746,0.0021305084228515625,0.0,-0.04793834686279297,-0.30750370025634766,0.5447874069213867,0.5739622116088867,0.5283870697021484
69,611809600.0,9.125777244567871,-2.7366552352905273,2.5151853561401367,0.0021305084228515625,0.0,-0.04793834686279297,-0.30750370025634766,0.5447874069213867,0.5739622116088867,0.5283870697021484
70,611809600.0,9.087469100952148,-2.7127132415771484,2.525959014892578,0.0021305084228515625,0.0,-0.04793834686279297,-0.30750370025634766,0.5447874069213867,0.5739622116088867,0.5283870697021484
71,611809600.0,9.080286026000977,-2.7127132415771484,2.53433895111084,0.0021305084228515625,0.0,-0.04793834686279297,-0.30750370025634766,0.5447874069213867,0.5739622116088867,0.5283870697021484
72,611809600.0,9.124580383300781,-2.7390499114990234,2.467299461364746,0.0021305084228515625,0.0,-0.04793834686279297,-0.30750370025634766,0.5447874069213867,0.5739622116088867,0.5283870697021484
73,611809600.0,9.125777244567871,-2.7366552352905273,2.5151853561401367,0.0021305084228515625,0.0,-0.04793834686279297,-0.30750370025634766,0.5447874069213867,0.5739622116088867,0.5283870697021484
74,611809600.0,9.087469100952148,-2.7127132415771484,2.525959014892578,0.0021305084228515625,0.0,-0.04793834686279297,-0.30750370025634766,0.5447874069213867,0.5739622116088867,0.5283870697021484
75,611809600.0,9.080286026000977,-2.7127132415771484,2.53433895111084,0.0021305084228515625,0.0,-0.04793834686279297,-0.30750370025634766,0.5447874069213867,0.5739622116088867,0.5283870697021484
76,611809664.0,9.030006408691406,-2.7366552352905273,2.561873435974121,-0.009587287902832031,0.0,-0.041545867919921875,-0.30750370025634766,0.5447874069213867,0.5739622116088867,0.5283870697021484
77,611809664.0,9.030006408691406,-2.7366552352905273,2.561873435974121,-0.009587287902832031,0.0,-0.041545867919921875,-0.30750370025634766,0.5447874069213867,0.5739622116088867,0.5283870697021484
78,611809664.0,9.030006408691406,-2.7366552352905273,2.561873435974121,-0.009587287902832031,0.0,-0.041545867919921875,-0.30750370025634766,0.5447874069213867,0.5739622116088867,0.5283870697021484
79,611809792.0,9.055146217346191,-2.72348690032959,2.528353691101074,-0.009587287902832031,0.0,-0.041545867919921875,-0.30750370025634766,0.5447874069213867,0.5739622116088867,0.5283870697021484
80,611809792.0,9.056344032287598,-2.725881576538086,2.537930488586426,-0.009587287902832031,0.0,-0.041545867919921875,-0.30750370025634766,0.5447874069213867,0.5739622116088867,0.5283870697021484
81,611809792.0,9.085075378417969,-2.700741767883301,2.5091991424560547,-0.009587287902832031,0.0,-0.041545867919921875,-0.30750370025634766,0.5447874069213867,0.5739622116088867,0.5283870697021484
82,611809856.0,9.09465217590332,-2.6815872192382812,2.5534934997558594,0.012783050537109375,0.00852203369140625,0.01810932159423828,-0.30750370025634766,0.5447874069213867,0.5739622116088867,0.5283870697021484
83,611809856.0,9.073103904724121,-2.7019386291503906,2.5127906799316406,0.012783050537109375,0.00852203369140625,0.01810932159423828,-0.30750370025634766,0.5447874069213867,0.5739622116088867,0.5283870697021484
84,611809856.0,9.080286026000977,-2.727078437805176,2.5307483673095703,0.012783050537109375,0.00852203369140625,0.01810932159423828,-0.30750370025634766,0.5447874069213867,0.5739622116088867,0.5283870697021484
85,611809920.0,9.012049674987793,-2.631307601928711,2.539128303527832,-0.0063915252685546875,0.0010652542114257812,0.026632308959960938,-0.30750370025634766,0.5447874069213867,0.5739622116088867,0.5283870697021484
86,611809920.0,8.985712051391602,-2.685178756713867,2.53194522857666,-0.0063915252685546875,0.0010652542114257812,0.026632308959960938,-0.30750370025634766,0.5447874069213867,0.5739622116088867,0.5283870697021484
87,611809920.0,9.028809547424316,-2.626519203186035,2.5738449096679688,-0.0063915252685546875,0.0010652542114257812,0.026632308959960938,-0.30750370025634766,0.5447874069213867,0.5739622116088867,0.5283870697021484
88,611809920.0,9.052752494812012,-2.663630485534668,2.543916702270508,-0.0063915252685546875,0.0010652542114257812,0.026632308959960938,-0.30750370025634766,0.5447874069213867,0.5739622116088867,0.5283870697021484
89,611809984.0,9.083877563476562,-2.6756019592285156,2.576239585876465,-0.0063915252685546875,0.0010652542114257812,0.026632308959960938,-0.30750370025634766,0.5447874069213867,0.5739622116088867,0.5283870697021484
90,611809984.0,9.055146217346191,-2.6720104217529297,2.566661834716797,-0.0063915252685546875,0.0010652542114257812,0.026632308959960938,-0.30750370025634766,0.5447874069213867,0.5739622116088867,0.5283870697021484
91,611809984.0,9.02641487121582,-2.625321388244629,2.561873435974121,-0.0063915252685546875,0.0010652542114257812,0.026632308959960938,-0.30750370025634766,0.5447874069213867,0.5739622116088867,0.5283870697021484
92,611810048.0,9.043174743652344,-2.6744041442871094,2.5750417709350586,0.024501800537109375,0.0031957626342773438,0.02769756317138672,-0.30750370025634766,0.5447874069213867,0.5739622116088867,0.5283870697021484
93,611810048.0,9.09584903717041,-2.6744041442871094,2.5894079208374023,0.024501800537109375,0.0031957626342773438,0.02769756317138672,-0.30750370025634766,0.5447874069213867,0.5739622116088867,0.5283870697021484
94,611810176.0,9.056344032287598,-2.6085615158081055,2.6109561920166016,0.0010652542114257812,0.013848304748535156,0.02769756317138672,-0.30750370025634766,0.5447874069213867,0.5739622116088867,0.5283870697021484
95,611810176.0,9.034794807434082,-2.6085615158081055,2.5834217071533203,0.0010652542114257812,0.013848304748535156,0.02769756317138672,-0.30750370025634766,0.5447874069213867,0.5739622116088867,0.5283870697021484
96,611810176.0,9.012049674987793,-2.6372928619384766,2.564268112182617,0.0010652542114257812,0.013848304748535156,0.02769756317138672,-0.30750370025634766,0.5447874069213867,0.5739622116088867,0.5283870697021484
97,611810176.0,9.056344032287598,-2.6085615158081055,2.6109561920166016,0.0010652542114257812,0.013848304748535156,0.02769756317138672,-0.30750370025634766,0.5447874069213867,0.5739622116088867,0.5283870697021484
98,611810176.0,9.034794807434082,-2.6085615158081055,2.5834217071533203,0.0010652542114257812,0.013848304748535156,0.02769756317138672,-0.30750370025634766,0.5447874069213867,0.5739622116088867,0.5283870697021484
99,611810176.0,9.012049674987793,-2.6372928619384766,2.564268112182617,0.0010652542114257812,0.013848304748535156,0.02769756317138672,-0.30750370025634766,0.5447874069213867,0.5739622116088867,0.5283870697021484
100,611810240.0,9.030006408691406,-2.6372928619384766,2.5522966384887695,0.021305084228515625,0.009587287902832031,0.021305084228515625,-0.30573463439941406,0.5462121963500977,0.5763359069824219,0.5253229141235352
101,611810240.0,9.027612686157227,-2.6145477294921875,2.566661834716797,0.021305084228515625,0.009587287902832031,0.021305084228515625,-0.30573463439941406,0.5462121963500977,0.5763359069824219,0.5253229141235352
102,611810240.0,9.030006408691406,-2.6372928619384766,2.5522966384887695,0.021305084228515625,0.009587287902832031,0.021305084228515625,-0.30573463439941406,0.5462121963500977,0.5763359069824219,0.5253229141235352
103,611810240.0,9.027612686157227,-2.6145477294921875,2.566661834716797,0.021305084228515625,0.009587287902832031,0.021305084228515625,-0.30573463439941406,0.5462121963500977,0.5763359069824219,0.5253229141235352
104,611810240.0,8.97733211517334,-2.572648048400879,2.53433895111084,0.021305084228515625,0.009587287902832031,0.021305084228515625,-0.30573463439941406,0.5462121963500977,0.5763359069824219,0.5253229141235352
105,611810304.0,8.931840896606445,-2.5774364471435547,2.5235652923583984,0.021305084228515625,0.009587287902832031,0.021305084228515625,-0.30547523498535156,0.5461254119873047,0.5765953063964844,0.5253229141235352
106,611810304.0,9.003669738769531,-2.634899139404297,2.473285675048828,0.021305084228515625,0.009587287902832031,0.021305084228515625,-0.30547523498535156,0.5461254119873047,0.5765953063964844,0.5253229141235352
107,611810304.0,9.04556941986084,-2.6217308044433594,2.5175790786743164,0.021305084228515625,0.009587287902832031,0.021305084228515625,-0.30547523498535156,0.5461254119873047,0.5765953063964844,0.5253229141235352
108,611810368.0,9.04437255859375,-2.590604782104492,2.4900455474853516,0.021305084228515625,0.009587287902832031,0.021305084228515625,-0.3056049346923828,0.5460824966430664,0.5767250061035156,0.5251932144165039
109,611810368.0,9.052752494812012,-2.6073646545410156,2.4864540100097656,0.021305084228515625,0.009587287902832031,0.021305084228515625,-0.3056049346923828,0.5460824966430664,0.5767250061035156,0.5251932144165039
110,611810368.0,9.031203269958496,-2.60137939453125,2.4900455474853516,0.021305084228515625,0.009587287902832031,0.021305084228515625,-0.3056049346923828,0.5460824966430664,0.5767250061035156,0.5251932144165039
111,611810432.0,8.99409294128418,-2.6372928619384766,2.4864540100097656,0.034089088439941406,-0.026632308959960938,0.0010652542114257812,-0.3056049346923828,0.5460824966430664,0.5767250061035156,0.5251932144165039
112,611810432.0,9.047964096069336,-2.598984718322754,2.535536766052246,0.034089088439941406,-0.026632308959960938,0.0010652542114257812,-0.3056049346923828,0.5460824966430664,0.5767250061035156,0.5251932144165039
113,611810432.0,9.053949356079102,-2.60137939453125,2.53314208984375,0.034089088439941406,-0.026632308959960938,0.0010652542114257812,-0.3056049346923828,0.5460824966430664,0.5767250061035156,0.5251932144165039
114,611810560.0,9.059934616088867,-2.667222023010254,2.6708126068115234,0.005326271057128906,-0.023435592651367188,-0.013848304748535156,-0.30771923065185547,0.544830322265625,0.5768537521362305,0.5250644683837891
115,611810560.0,9.053949356079102,-2.627716064453125,2.679192543029785,0.005326271057128906,-0.023435592651367188,-0.013848304748535156,-0.30771923065185547,0.544830322265625,0.5768537521362305,0.5250644683837891
116,611810624.0,9.057540893554688,-2.616941452026367,2.6660242080688477,0.005326271057128906,-0.023435592651367188,-0.013848304748535156,-0.30771923065185547,0.544830322265625,0.5768537521362305,0.5250644683837891
117,611810624.0,9.077892303466797,-2.656447410583496,2.660038948059082,0.005326271057128906,-0.023435592651367188,-0.013848304748535156,-0.30771923065185547,0.544830322265625,0.5768537521362305,0.5250644683837891
118,611810624.0,9.047964096069336,-2.663630485534668,2.632504463195801,0.005326271057128906,-0.023435592651367188,-0.013848304748535156,-0.30771923065185547,0.544830322265625,0.5768537521362305,0.5250644683837891
119,611810688.0,9.04437255859375,-2.679192543029785,2.628912925720215,0.005326271057128906,-0.023435592651367188,-0.013848304748535156,-0.30771923065185547,0.544830322265625,0.5768537521362305,0.5250644683837891
120,611810688.0,9.022823333740234,-2.691164016723633,2.6337013244628906,0.005326271057128906,-0.023435592651367188,-0.013848304748535156,-0.30771923065185547,0.544830322265625,0.5768537521362305,0.5250644683837891
121,611810688.0,9.067117691040039,-2.660038948059082,2.6073646545410156,0.005326271057128906,-0.023435592651367188,-0.013848304748535156,-0.30771923065185547,0.544830322265625,0.5768537521362305,0.5250644683837891
122,611810688.0,9.04437255859375,-2.679192543029785,2.628912925720215,0.005326271057128906,-0.023435592651367188,-0.013848304748535156,-0.30771923065185547,0.544830322265625,0.5768537521362305,0.5250644683837891
123,611810688.0,9.022823333740234,-2.691164016723633,2.6337013244628906,0.005326271057128906,-0.023435592651367188,-0.013848304748535156,-0.30771923065185547,0.544830322265625,0.5768537521362305,0.5250644683837891
124,611810688.0,9.067117691040039,-2.660038948059082,2.6073646545410156,0.005326271057128906,-0.023435592651367188,-0.013848304748535156,-0.30771923065185547,0.544830322265625,0.5768537521362305,0.5250644683837891
125,611810752.0,9.063526153564453,-2.7103185653686523,2.572648048400879,0.0,0.012783050537109375,-0.005326271057128906,-0.3089284896850586,0.5464706420898438,0.5754728317260742,0.5242013931274414
126,611810752.0,9.086272239685059,-2.7091217041015625,2.5714502334594727,0.0,0.012783050537109375,-0.005326271057128906,-0.3089284896850586,0.5464706420898438,0.5754728317260742,0.5242013931274414
127,611810752.0,9.063526153564453,-2.7103185653686523,2.572648048400879,0.0,0.012783050537109375,-0.005326271057128906,-0.3089284896850586,0.5464706420898438,0.5754728317260742,0.5242013931274414
128,611810752.0,9.086272239685059,-2.7091217041015625,2.5714502334594727,0.0,0.012783050537109375,-0.005326271057128906,-0.3089284896850586,0.5464706420898438,0.5754728317260742,0.5242013931274414
129,611810880.0,9.004866600036621,-2.654052734375,2.5570850372314453,-0.01810932159423828,0.011717796325683594,0.005326271057128906,-0.3084096908569336,0.5468158721923828,0.5753870010375977,0.5242013931274414
130,611810880.0,8.99648666381836,-2.6456727981567383,2.53314208984375,-0.01810932159423828,0.011717796325683594,0.005326271057128906,-0.3084096908569336,0.5468158721923828,0.5753870010375977,0.5242013931274414
131,611810880.0,9.04437255859375,-2.6337013244628906,2.522367477416992,-0.01810932159423828,0.011717796325683594,0.005326271057128906,-0.3084096908569336,0.5468158721923828,0.5753870010375977,0.5242013931274414
132,611810944.0,9.04437255859375,-2.658841133117676,2.561873435974121,-0.004261016845703125,-0.007456779479980469,0.014913558959960938,-0.3084096908569336,0.5468158721923828,0.5753870010375977,0.5242013931274414
133,611810944.0,9.039584159851074,-2.6217308044433594,2.591801643371582,-0.004261016845703125,-0.007456779479980469,0.014913558959960938,-0.3084096908569336,0.5468158721923828,0.5753870010375977,0.5242013931274414
134,611810944.0,9.037189483642578,-2.620532989501953,2.528353691101074,-0.004261016845703125,-0.007456779479980469,0.014913558959960938,-0.3084096908569336,0.5468158721923828,0.5753870010375977,0.5242013931274414
135,611810944.0,9.037189483642578,-2.620532989501953,2.528353691101074,-0.004261016845703125,-0.007456779479980469,0.014913558959960938,-0.3084096908569336,0.5468158721923828,0.5753870010375977,0.5242013931274414
136,611811008.0,9.051554679870605,-2.5846195220947266,2.5534934997558594,-0.011717796325683594,-0.005326271057128906,0.011717796325683594,-0.3084096908569336,0.5468158721923828,0.5753870010375977,0.5242013931274414
137,611811008.0,9.082680702209473,-2.638490676879883,2.539128303527832,-0.011717796325683594,-0.005326271057128906,0.011717796325683594,-0.3084096908569336,0.5468158721923828,0.5753870010375977,0.5242013931274414
138,611811008.0,9.09345531463623,-2.616941452026367,2.5822248458862305,-0.011717796325683594,-0.005326271057128906,0.011717796325683594,-0.3084096908569336,0.5468158721923828,0.5753870010375977,0.5242013931274414
139,611811008.0,9.051554679870605,-2.5846195220947266,2.5534934997558594,-0.011717796325683594,-0.005326271057128906,0.011717796325683594,-0.3084096908569336,0.5468158721923828,0.5753870010375977,0.5242013931274414
140,611811008.0,9.082680702209473,-2.638490676879883,2.539128303527832,-0.011717796325683594,-0.005326271057128906,0.011717796325683594,-0.3084096908569336,0.5468158721923828,0.5753870010375977,0.5242013931274414
141,611811008.0,9.09345531463623,-2.616941452026367,2.5822248458862305,-0.011717796325683594,-0.005326271057128906,0.011717796325683594,-0.3084096908569336,0.5468158721923828,0.5753870010375977,0.5242013931274414
142,611811072.0,9.120988845825195,-2.6193361282348633,2.561873435974121,-0.011717796325683594,-0.005326271057128906,0.011717796325683594,-0.3074178695678711,0.5465574264526367,0.5754728317260742,0.5249347686767578
143,611811072.0,9.120988845825195,-2.6193361282348633,2.561873435974121,-0.011717796325683594,-0.005326271057128906,0.011717796325683594,-0.3074178695678711,0.5465574264526367,0.5754728317260742,0.5249347686767578
144,611811136.0,9.032401084899902,-2.53314208984375,2.6420812606811523,-0.011717796325683594,-0.005326271057128906,0.011717796325683594,-0.30776309967041016,0.5464706420898438,0.5756454467773438,0.5246753692626953
145,611811200.0,9.007261276245117,-2.5558881759643555,2.6552505493164062,-0.011717796325683594,-0.005326271057128906,0.011717796325683594,-0.30776309967041016,0.5464706420898438,0.5756454467773438,0.5246753692626953
146,611811200.0,9.034794807434082,-2.60137939453125,2.6624326705932617,-0.011717796325683594,-0.005326271057128906,0.011717796325683594,-0.30776309967041016,0.5464706420898438,0.5756454467773438,0.5246753692626953
147,611811200.0,9.06592082977295,-2.6360960006713867,2.6444759368896484,-0.011717796325683594,-0.005326271057128906,0.011717796325683594,-0.30776309967041016,0.5464706420898438,0.5756454467773438,0.5246753692626953
148,611811264.0,9.077892303466797,-2.627716064453125,2.65285587310791,0.00852203369140625,0.012783050537109375,-0.011717796325683594,-0.30776309967041016,0.5464706420898438,0.5756454467773438,0.5246753692626953
149,611811264.0,9.032401084899902,-2.634899139404297,2.596590042114258,0.00852203369140625,0.012783050537109375,-0.011717796325683594,-0.30776309967041016,0.5464706420898438,0.5756454467773438,0.5246753692626953
150,611811264.0,9.057540893554688,-2.624124526977539,2.6181392669677734,0.00852203369140625,0.012783050537109375,-0.011717796325683594,-0.30776309967041016,0.5464706420898438,0.5756454467773438,0.5246753692626953
151,611811264.0,9.032401084899902,-2.634899139404297,2.596590042114258,0.00852203369140625,0.012783050537109375,-0.011717796325683594,-0.30776309967041016,0.5464706420898438,0.5756454467773438,0.5246753692626953
152,611811264.0,9.057540893554688,-2.624124526977539,2.6181392669677734,0.00852203369140625,0.012783050537109375,-0.011717796325683594,-0.30776309967041016,0.5464706420898438,0.5756454467773438,0.5246753692626953
153,611811328.0,9.070709228515625,-2.606167793273926,2.631307601928711,0.012783050537109375,0.010652542114257812,-0.022370338439941406,-0.30776309967041016,0.5464706420898438,0.5756454467773438,0.5246753692626953
154,611811328.0,9.04556941986084,-2.626519203186035,2.596590042114258,0.012783050537109375,0.010652542114257812,-0.022370338439941406,-0.30776309967041016,0.5464706420898438,0.5756454467773438,0.5246753692626953
155,611811328.0,9.047964096069336,-2.622927665710449,2.5714502334594727,0.012783050537109375,0.010652542114257812,-0.022370338439941406,-0.30776309967041016,0.5464706420898438,0.5756454467773438,0.5246753692626953
156,611811328.0,9.070709228515625,-2.606167793273926,2.631307601928711,0.012783050537109375,0.010652542114257812,-0.022370338439941406,-0.30776309967041016,0.5464706420898438,0.5756454467773438,0.5246753692626953
157,611811328.0,9.04556941986084,-2.626519203186035,2.596590042114258,0.012783050537109375,0.010652542114257812,-0.022370338439941406,-0.30776309967041016,0.5464706420898438,0.5756454467773438,0.5246753692626953
158,611811328.0,9.047964096069336,-2.622927665710449,2.5714502334594727,0.012783050537109375,0.010652542114257812,-0.022370338439941406,-0.30776309967041016,0.5464706420898438,0.5756454467773438,0.5246753692626953
159,611811456.0,9.008458137512207,-2.60257625579834,2.559478759765625,0.00852203369140625,0.0,0.004261016845703125,-0.30776309967041016,0.5464706420898438,0.5756454467773438,0.5246753692626953
160,611811456.0,9.021626472473145,-2.6181392669677734,2.5307483673095703,0.00852203369140625,0.0,0.004261016845703125,-0.30776309967041016,0.5464706420898438,0.5756454467773438,0.5246753692626953
161,611811456.0,9.008458137512207,-2.60257625579834,2.559478759765625,0.00852203369140625,0.0,0.004261016845703125,-0.30776309967041016,0.5464706420898438,0.5756454467773438,0.5246753692626953
162,611811456.0,9.021626472473145,-2.6181392669677734,2.5307483673095703,0.00852203369140625,0.0,0.004261016845703125,-0.30776309967041016,0.5464706420898438,0.5756454467773438,0.5246753692626953
163,611811520.0,9.061132431030273,-2.576239585876465,2.53314208984375,-0.0063915252685546875,0.0,-0.004261016845703125,-0.30776309967041016,0.5464706420898438,0.5756454467773438,0.5246753692626953
164,611811520.0,9.038386344909668,-2.65285587310791,2.5606765747070312,-0.0063915252685546875,0.0,-0.004261016845703125,-0.30776309967041016,0.5464706420898438,0.5756454467773438,0.5246753692626953
165,611811520.0,9.030006408691406,-2.6337013244628906,2.537930488586426,-0.0063915252685546875,0.0,-0.004261016845703125,-0.30776309967041016,0.5464706420898438,0.5756454467773438,0.5246753692626953
166,611811520.0,9.061132431030273,-2.576239585876465,2.53314208984375,-0.0063915252685546875,0.0,-0.004261016845703125,-0.30776309967041016,0.5464706420898438,0.5756454467773438,0.5246753692626953
167,611811520.0,9.038386344909668,-2.65285587310791,2.5606765747070312,-0.0063915252685546875,0.0,-0.004261016845703125,-0.30776309967041016,0.5464706420898438,0.5756454467773438,0.5246753692626953
168,611811520.0,9.030006408691406,-2.6337013244628906,2.537930488586426,-0.0063915252685546875,0.0,-0.004261016845703125,-0.30776309967041016,0.5464706420898438,0.5756454467773438,0.5246753692626953
169,611811584.0,9.02402114868164,-2.6396875381469727,2.5427188873291016,-0.0063915252685546875,0.0,-0.004261016845703125,-0.30776309967041016,0.5464706420898438,0.5756454467773438,0.5246753692626953
170,611811584.0,9.079089164733887,-2.6552505493164062,2.5499019622802734,-0.0063915252685546875,0.0,-0.004261016845703125,-0.30776309967041016,0.5464706420898438,0.5756454467773438,0.5246753692626953
171,611811584.0,9.061132431030273,-2.634899139404297,2.5499019622802734,-0.0063915252685546875,0.0,-0.004261016845703125,-0.30776309967041016,0.5464706420898438,0.5756454467773438,0.5246753692626953
172,611811648.0,9.057540893554688,-2.649264335632324,2.5786333084106445,-0.009587287902832031,-0.011717796325683594,0.010652542114257812,-0.30776309967041016,0.5464706420898438,0.5756454467773438,0.5246753692626953
173,611811648.0,9.033597946166992,-2.6360960006713867,2.5929994583129883,-0.009587287902832031,-0.011717796325683594,0.010652542114257812,-0.30776309967041016,0.5464706420898438,0.5756454467773438,0.5246753692626953
174,611811648.0,9.049160957336426,-2.620532989501953,2.6133499145507812,-0.009587287902832031,-0.011717796325683594,0.010652542114257812,-0.30776309967041016,0.5464706420898438,0.5756454467773438,0.5246753692626953
175,611811712.0,9.039584159851074,-2.6145477294921875,2.630110740661621,-0.05965614318847656,0.0010652542114257812,0.019174575805664062,-0.30776309967041016,0.5464706420898438,0.5756454467773438,0.5246753692626953
176,611811712.0,9.022823333740234,-2.569056510925293,2.667222023010254,-0.05965614318847656,0.0010652542114257812,0.019174575805664062,-0.30776309967041016,0.5464706420898438,0.5756454467773438,0.5246753692626953
177,611811712.0,9.062329292297363,-2.5774364471435547,2.632504463195801,-0.05965614318847656,0.0010652542114257812,0.019174575805664062,-0.30776309967041016,0.5464706420898438,0.5756454467773438,0.5246753692626953
178,611811712.0,9.073103904724121,-2.606167793273926,2.630110740661621,-0.05965614318847656,0.0010652542114257812,0.019174575805664062,-0.30776309967041016,0.5464706420898438,0.5756454467773438,0.5246753692626953
179,611811776.0,9.103032112121582,-2.663630485534668,2.632504463195801,-0.05965614318847656,0.0010652542114257812,0.019174575805664062,-0.30776309967041016,0.5464706420898438,0.5756454467773438,0.5246753692626953
180,611811776.0,9.071906089782715,-2.5929994583129883,2.6337013244628906,-0.05965614318847656,0.0010652542114257812,0.019174575805664062,-0.30776309967041016,0.5464706420898438,0.5756454467773438,0.5246753692626953
181,611811776.0,9.0754976272583,-2.5558881759643555,2.650461196899414,-0.05965614318847656,0.0010652542114257812,0.019174575805664062,-0.30776309967041016,0.5464706420898438,0.5756454467773438,0.5246753692626953
182,611811840.0,9.110215187072754,-2.536733627319336,2.626519203186035,-0.011717796325683594,0.007456779479980469,0.005326271057128906,-0.3073740005493164,0.5476360321044922,0.5747394561767578,0.52471923828125
183,611811840.0,9.100637435913086,-2.594196319580078,2.625321388244629,-0.011717796325683594,0.007456779479980469,0.005326271057128906,-0.3073740005493164,0.5476360321044922,0.5747394561767578,0.52471923828125
184,611811968.0,9.061132431030273,-2.5834217071533203,2.591801643371582,-0.00852203369140625,0.007456779479980469,0.0010652542114257812,-0.30724525451660156,0.5476789474487305,0.5746965408325195,0.5247621536254883
185,611811968.0,9.061132431030273,-2.554690361022949,2.5475082397460938,-0.00852203369140625,0.007456779479980469,0.0010652542114257812,-0.30724525451660156,0.5476789474487305,0.5746965408325195,0.5247621536254883
186,611811968.0,9.061132431030273,-2.5834217071533203,2.591801643371582,-0.00852203369140625,0.007456779479980469,0.0010652542114257812,-0.30724525451660156,0.5476789474487305,0.5746965408325195,0.5247621536254883
187,611811968.0,9.061132431030273,-2.554690361022949,2.5475082397460938,-0.00852203369140625,0.007456779479980469,0.0010652542114257812,-0.30724525451660156,0.5476789474487305,0.5746965408325195,0.5247621536254883
188,611811968.0,9.061132431030273,-2.5834217071533203,2.591801643371582,-0.00852203369140625,0.007456779479980469,0.0010652542114257812,-0.30724525451660156,0.5476789474487305,0.5746965408325195,0.5247621536254883
189,611811968.0,9.061132431030273,-2.554690361022949,2.5475082397460938,-0.00852203369140625,0.007456779479980469,0.0010652542114257812,-0.30724525451660156,0.5476789474487305,0.5746965408325195,0.5247621536254883
190,611812032.0,9.080286026000977,-2.597787857055664,2.5846195220947266,-0.0031957626342773438,0.0021305084228515625,-0.007456779479980469,-0.30724525451660156,0.5476789474487305,0.5746965408325195,0.5247621536254883
191,611812032.0,9.068314552307129,-2.5786333084106445,2.5810279846191406,-0.0031957626342773438,0.0021305084228515625,-0.007456779479980469,-0.30724525451660156,0.5476789474487305,0.5746965408325195,0.5247621536254883
192,611812032.0,9.038386344909668,-2.6049699783325195,2.5894079208374023,-0.0031957626342773438,0.0021305084228515625,-0.007456779479980469,-0.30724525451660156,0.5476789474487305,0.5746965408325195,0.5247621536254883
193,611812032.0,9.080286026000977,-2.597787857055664,2.5846195220947266,-0.0031957626342773438,0.0021305084228515625,-0.007456779479980469,-0.30724525451660156,0.5476789474487305,0.5746965408325195,0.5247621536254883
194,611812032.0,9.068314552307129,-2.5786333084106445,2.5810279846191406,-0.0031957626342773438,0.0021305084228515625,-0.007456779479980469,-0.30724525451660156,0.5476789474487305,0.5746965408325195,0.5247621536254883
195,611812032.0,9.038386344909668,-2.6049699783325195,2.5894079208374023,-0.0031957626342773438,0.0021305084228515625,-0.007456779479980469,-0.30724525451660156,0.5476789474487305,0.5746965408325195,0.5247621536254883
196,611812032.0,9.080286026000977,-2.597787857055664,2.5846195220947266,-0.0031957626342773438,0.0021305084228515625,-0.007456779479980469,-0.30724525451660156,0.5476789474487305,0.5746965408325195,0.5247621536254883
197,611812032.0,9.068314552307129,-2.5786333084106445,2.5810279846191406,-0.0031957626342773438,0.0021305084228515625,-0.007456779479980469,-0.30724525451660156,0.5476789474487305,0.5746965408325195,0.5247621536254883
198,611812032.0,9.038386344909668,-2.6049699783325195,2.5894079208374023,-0.0031957626342773438,0.0021305084228515625,-0.007456779479980469,-0.30724525451660156,0.5476789474487305,0.5746965408325195,0.5247621536254883
199,611812288.0,9.067117691040039,-2.622927665710449,2.5774364471435547,-0.01597881317138672,0.0,-0.00852203369140625,-0.3071155548095703,0.5485420227050781,0.5737466812133789,0.5249776840209961
200,611812288.0,9.06592082977295,-2.6145477294921875,2.572648048400879,-0.01597881317138672,0.0,-0.00852203369140625,-0.3071155548095703,0.5485420227050781,0.5737466812133789,0.5249776840209961
201,611812288.0,9.040781021118164,-2.6360960006713867,2.5487051010131836,-0.01597881317138672,0.0,-0.00852203369140625,-0.3071155548095703,0.5485420227050781,0.5737466812133789,0.5249776840209961
202,611812352.0,9.04437255859375,-2.649264335632324,2.5774364471435547,-0.05965614318847656,0.0,0.0010652542114257812,-0.3071155548095703,0.5485420227050781,0.5737466812133789,0.5249776840209961
203,611812352.0,9.039584159851074,-2.634899139404297,2.5858163833618164,-0.05965614318847656,0.0,0.0010652542114257812,-0.3071155548095703,0.5485420227050781,0.5737466812133789,0.5249776840209961
204,611812352.0,9.056344032287598,-2.634899139404297,2.60137939453125,-0.05965614318847656,0.0,0.0010652542114257812,-0.3071155548095703,0.5485420227050781,0.5737466812133789,0.5249776840209961
205,611812352.0,9.0754976272583,-2.6193361282348633,2.627716064453125,-0.05965614318847656,0.0,0.0010652542114257812,-0.3071155548095703,0.5485420227050781,0.5737466812133789,0.5249776840209961
206,611812416.0,9.086272239685059,-2.60137939453125,2.6516590118408203,-0.1491413116455078,0.021305084228515625,0.005326271057128906,-0.3071155548095703,0.5485420227050781,0.5737466812133789,0.5249776840209961
207,611812416.0,9.079089164733887,-2.60257625579834,2.631307601928711,-0.1491413116455078,0.021305084228515625,0.005326271057128906,-0.3071155548095703,0.5485420227050781,0.5737466812133789,0.5249776840209961
208,611812416.0,9.070709228515625,-2.6624326705932617,2.6145477294921875,-0.1491413116455078,0.021305084228515625,0.005326271057128906,-0.3071155548095703,0.5485420227050781,0.5737466812133789,0.5249776840209961
209,611812544.0,10.118204116821289,-4.571866989135742,4.65327262878418,-0.1491413116455078,0.021305084228515625,0.005326271057128906,-0.2872629165649414,0.5573902130126953,0.5631732940673828,0.5381841659545898
210,611812544.0,10.118204116821289,-4.571866989135742,4.65327262878418,-0.1491413116455078,0.021305084228515625,0.005326271057128906,-0.2872629165649414,0.5573902130126953,0.5631732940673828,0.5381841659545898
211,611812608.0,10.278620719909668,-5.450566291809082,4.494052886962891,-0.1491413116455078,0.021305084228515625,0.005326271057128906,-0.2872629165649414,0.5573902130126953,0.5631732940673828,0.5381841659545898
212,611812608.0,10.376786231994629,-7.388731002807617,5.63253116607666,-0.1491413116455078,0.021305084228515625,0.005326271057128906,-0.2872629165649414,0.5573902130126953,0.5631732940673828,0.5381841659545898
213,611812608.0,10.462980270385742,-10.102642059326172,6.791359901428223,-0.1491413116455078,0.021305084228515625,0.005326271057128906,-0.2872629165649414,0.5573902130126953,0.5631732940673828,0.5381841659545898
214,611812608.0,10.411502838134766,-11.897150993347168,7.573090553283691,-0.1491413116455078,0.021305084228515625,0.005326271057128906,-0.2872629165649414,0.5573902130126953,0.5631732940673828,0.5381841659545898
215,611812608.0,10.278620719909668,-5.450566291809082,4.494052886962891,-0.1491413116455078,0.021305084228515625,0.005326271057128906,-0.2872629165649414,0.5573902130126953,0.5631732940673828,0.5381841659545898
216,611812608.0,10.376786231994629,-7.388731002807617,5.63253116607666,-0.1491413116455078,0.021305084228515625,0.005326271057128906,-0.2872629165649414,0.5573902130126953,0.5631732940673828,0.5381841659545898
217,611812608.0,10.462980270385742,-10.102642059326172,6.791359901428223,-0.1491413116455078,0.021305084228515625,0.005326271057128906,-0.2872629165649414,0.5573902130126953,0.5631732940673828,0.5381841659545898
218,611812608.0,10.411502838134766,-11.897150993347168,7.573090553283691,-0.1491413116455078,0.021305084228515625,0.005326271057128906,-0.2872629165649414,0.5573902130126953,0.5631732940673828,0.5381841659545898
219,611812672.0,10.813741683959961,-14.408744812011719,5.358386039733887,-1.3007268905639648,1.8035469055175781,4.946173667907715,-0.2872629165649414,0.5573902130126953,0.5631732940673828,0.5381841659545898
220,611812672.0,11.658920288085938,-17.656578063964844,5.837241172790527,-1.3007268905639648,1.8035469055175781,4.946173667907715,-0.2872629165649414,0.5573902130126953,0.5631732940673828,0.5381841659545898
221,611812672.0,11.628992080688477,-15.669330596923828,5.759427070617676,-1.3007268905639648,1.8035469055175781,4.946173667907715,-0.2872629165649414,0.5573902130126953,0.5631732940673828,0.5381841659545898
222,611812736.0,10.344463348388672,-15.05998706817627,3.5710601806640625,0.9598321914672852,1.2059154510498047,6.077518463134766,-0.2872629165649414,0.5573902130126953,0.5631732940673828,0.5381841659545898
223,611812736.0,9.709980964660645,-14.567963600158691,2.17160701751709,0.9598321914672852,1.2059154510498047,6.077518463134766,-0.2872629165649414,0.5573902130126953,0.5631732940673828,0.5381841659545898
224,611812864.0,2.7570066452026367,-7.458165168762207,-0.20590686798095703,1.1430635452270508,1.0067052841186523,5.6790971755981445,0.3241615295410156,0.2052173614501953,0.8400774002075195,0.3835477828979492
225,611812864.0,1.971684455871582,-6.043148994445801,-0.19633007049560547,1.1430635452270508,1.0067052841186523,5.6790971755981445,0.3241615295410156,0.2052173614501953,0.8400774002075195,0.3835477828979492
226,611812928.0,1.05108642578125,-5.638516426086426,-0.5674428939819336,-0.05965614318847656,0.7148141860961914,5.228476524353027,0.39882564544677734,0.07992839813232422,0.8590230941772461,0.31078243255615234
227,611812928.0,0.010773658752441406,-4.792140007019043,-0.9529209136962891,-0.05965614318847656,0.7148141860961914,5.228476524353027,0.39882564544677734,0.07992839813232422,0.8590230941772461,0.31078243255615234
228,611812928.0,-0.6799736022949219,-4.7789716720581055,-0.4908256530761719,-0.05965614318847656,0.7148141860961914,5.228476524353027,0.39882564544677734,0.07992839813232422,0.8590230941772461,0.31078243255615234
229,611812992.0,-1.1971368789672852,-4.705946922302246,-0.6225109100341797,-0.05965614318847656,0.7148141860961914,5.228476524353027,0.39882564544677734,0.07992839813232422,0.8590230941772461,0.31078243255615234
230,611812992.0,-1.701131820678711,-4.242653846740723,-0.6440591812133789,-0.05965614318847656,0.7148141860961914,5.228476524353027,0.39882564544677734,0.07992839813232422,0.8590230941772461,0.31078243255615234
231,611812992.0,-2.649264335632324,-3.337618827819824,-0.888275146484375,-0.05965614318847656,0.7148141860961914,5.228476524353027,0.39882564544677734,0.07992839813232422,0.8590230941772461,0.31078243255615234
232,611812992.0,-3.270578384399414,-3.8883018493652344,-1.2797393798828125,-0.05965614318847656,0.7148141860961914,5.228476524353027,0.39882564544677734,0.07992839813232422,0.8590230941772461,0.31078243255615234
233,611812992.0,-1.1971368789672852,-4.705946922302246,-0.6225109100341797,-0.05965614318847656,0.7148141860961914,5.228476524353027,0.39882564544677734,0.07992839813232422,0.8590230941772461,0.31078243255615234
234,611812992.0,-1.701131820678711,-4.242653846740723,-0.6440591812133789,-0.05965614318847656,0.7148141860961914,5.228476524353027,0.39882564544677734,0.07992839813232422,0.8590230941772461,0.31078243255615234
235,611812992.0,-2.649264335632324,-3.337618827819824,-0.888275146484375,-0.05965614318847656,0.7148141860961914,5.228476524353027,0.39882564544677734,0.07992839813232422,0.8590230941772461,0.31078243255615234
236,611812992.0,-3.270578384399414,-3.8883018493652344,-1.2797393798828125,-0.05965614318847656,0.7148141860961914,5.228476524353027,0.39882564544677734,0.07992839813232422,0.8590230941772461,0.31078243255615234
237,611813056.0,-3.682394027709961,-3.7386598587036133,-1.9321794509887695,-0.05965614318847656,0.7148141860961914,5.228476524353027,0.39882564544677734,0.07992839813232422,0.8590230941772461,0.31078243255615234
238,611813056.0,-3.682394027709961,-3.7386598587036133,-1.9321794509887695,-0.05965614318847656,0.7148141860961914,5.228476524353027,0.39882564544677734,0.07992839813232422,0.8590230941772461,0.31078243255615234
239,611813056.0,-4.721508979797363,-3.6680288314819336,-3.1185426712036133,-0.05965614318847656,0.7148141860961914,5.228476524353027,0.39882564544677734,0.07992839813232422,0.8590230941772461,0.31078243255615234
240,611813056.0,-5.364372253417969,-4.186388969421387,-5.079453468322754,-0.05965614318847656,0.7148141860961914,5.228476524353027,0.39882564544677734,0.07992839813232422,0.8590230941772461,0.31078243255615234
241,611813120.0,-5.607391357421875,-4.398282051086426,-5.63253116607666,-3.6710128784179688,-5.547000885009766,1.1238880157470703,0.39882564544677734,0.07992839813232422,0.8590230941772461,0.31078243255615234
242,611813120.0,-4.069069862365723,-5.166844367980957,-0.515965461730957,-3.6710128784179688,-5.547000885009766,1.1238880157470703,0.39882564544677734,0.07992839813232422,0.8590230941772461,0.31078243255615234
243,611813120.0,-2.5151853561401367,-1.638880729675293,5.8001298904418945,-3.6710128784179688,-5.547000885009766,1.1238880157470703,0.39882564544677734,0.07992839813232422,0.8590230941772461,0.31078243255615234
244,611813184.0,10.308548927307129,12.523253440856934,4.383916854858398,1.1228227615356445,0.4942970275878906,-0.2876300811767578,0.39882564544677734,0.07992839813232422,0.8590230941772461,0.31078243255615234
245,611813184.0,5.75583553314209,-23.156227111816406,26.97988510131836,1.1228227615356445,0.4942970275878906,-0.2876300811767578,0.39882564544677734,0.07992839813232422,0.8590230941772461,0.31078243255615234
246,611813184.0,-24.2647762298584,-2.218295097351074,-2.009993553161621,1.1228227615356445,0.4942970275878906,-0.2876300811767578,0.39882564544677734,0.07992839813232422,0.8590230941772461,0.31078243255615234
247,611813248.0,-2.9030580520629883,-4.353987693786621,1.8854904174804688,1.6213817596435547,-0.3121318817138672,-0.1555328369140625,0.39882564544677734,0.07992839813232422,0.8590230941772461,0.31078243255615234
248,611813248.0,0.7697591781616211,-1.452127456665039,13.72877025604248,1.6213817596435547,-0.3121318817138672,-0.1555328369140625,0.39882564544677734,0.07992839813232422,0.8590230941772461,0.31078243255615234
249,611813248.0,-6.670449256896973,-5.080650329589844,10.330098152160645,1.6213817596435547,-0.3121318817138672,-0.1555328369140625,0.39882564544677734,0.07992839813232422,0.8590230941772461,0.31078243255615234
250,611813248.0,-9.450201988220215,-4.986076354980469,5.01480770111084,1.6213817596435547,-0.3121318817138672,-0.1555328369140625,0.39882564544677734,0.07992839813232422,0.8590230941772461,0.31078243255615234
251,611813248.0,-6.670449256896973,-5.080650329589844,10.330098152160645,1.6213817596435547,-0.3121318817138672,-0.1555328369140625,0.39882564544677734,0.07992839813232422,0.8590230941772461,0.31078243255615234
252,611813248.0,-9.450201988220215,-4.986076354980469,5.01480770111084,1.6213817596435547,-0.3121318817138672,-0.1555328369140625,0.39882564544677734,0.07992839813232422,0.8590230941772461,0.31078243255615234
253,611813312.0,-8.979726791381836,-3.4716978073120117,1.638880729675293,1.6213817596435547,-0.3121318817138672,-0.1555328369140625,0.39882564544677734,0.07992839813232422,0.8590230941772461,0.31078243255615234
254,611813312.0,-10.755081176757812,-3.3950815200805664,-3.0682621002197266,1.6213817596435547,-0.3121318817138672,-0.1555328369140625,0.39882564544677734,0.07992839813232422,0.8590230941772461,0.31078243255615234
255,611813312.0,-13.562368392944336,-5.758230209350586,-9.028809547424316,1.6213817596435547,-0.3121318817138672,-0.1555328369140625,0.39882564544677734,0.07992839813232422,0.8590230941772461,0.31078243255615234
256,611813312.0,-8.979726791381836,-3.4716978073120117,1.638880729675293,1.6213817596435547,-0.3121318817138672,-0.1555328369140625,0.39882564544677734,0.07992839813232422,0.8590230941772461,0.31078243255615234
257,611813312.0,-10.755081176757812,-3.3950815200805664,-3.0682621002197266,1.6213817596435547,-0.3121318817138672,-0.1555328369140625,0.39882564544677734,0.07992839813232422,0.8590230941772461,0.31078243255615234
258,611813312.0,-13.562368392944336,-5.758230209350586,-9.028809547424316,1.6213817596435547,-0.3121318817138672,-0.1555328369140625,0.39882564544677734,0.07992839813232422,0.8590230941772461,0.31078243255615234
259,611813440.0,22.45949363708496,15.001327514648438,30.294757843017578,-0.15340232849121094,-4.07689094543457,0.943852424621582,0.39882564544677734,0.07992839813232422,0.8590230941772461,0.31078243255615234
260,611813504.0,-18.037267684936523,-6.8512163162231445,3.536343574523926,-0.15340232849121094,-4.07689094543457,0.943852424621582,0.39882564544677734,0.07992839813232422,0.8590230941772461,0.31078243255615234
261,611813504.0,-5.51521110534668,1.364736557006836,8.579882621765137,-0.15340232849121094,-4.07689094543457,0.943852424621582,0.39882564544677734,0.07992839813232422,0.8590230941772461,0.31078243255615234
262,611813504.0,1.2210798263549805,-0.2813272476196289,9.415484428405762,-0.15340232849121094,-4.07689094543457,0.943852424621582,0.39882564544677734,0.07992839813232422,0.8590230941772461,0.31078243255615234
263,611813568.0,-3.146076202392578,-5.267403602600098,7.267820358276367,1.6192512512207031,1.1633033752441406,-2.5087738037109375,0.34876251220703125,-0.2737541198730469,0.8196201324462891,0.36283206939697266
264,611813568.0,-2.816864013671875,-3.8452043533325195,9.020429611206055,1.6192512512207031,1.1633033752441406,-2.5087738037109375,0.34876251220703125,-0.2737541198730469,0.8196201324462891,0.36283206939697266
265,611813568.0,-1.9549245834350586,-2.0866098403930664,8.928250312805176,1.6192512512207031,1.1633033752441406,-2.5087738037109375,0.34876251220703125,-0.2737541198730469,0.8196201324462891,0.36283206939697266
266,611813568.0,-2.185972213745117,-2.594196319580078,5.541548728942871,1.6192512512207031,1.1633033752441406,-2.5087738037109375,0.34876251220703125,-0.2737541198730469,0.8196201324462891,0.36283206939697266
267,611813632.0,-2.3080806732177734,-3.1101627349853516,2.6744041442871094,2.102895736694336,0.9108285903930664,-4.06517219543457,0.3504457473754883,-0.19779491424560547,0.8380918502807617,0.3682270050048828
268,611813632.0,-1.8124656677246094,-4.835237503051758,1.573038101196289,2.102895736694336,0.9108285903930664,-4.06517219543457,0.3504457473754883,-0.19779491424560547,0.8380918502807617,0.3682270050048828
269,611813888.0,4.543135643005371,-4.482081413269043,6.593832015991211,-1.285813331604004,-2.8379507064819336,-5.141122817993164,0.0676717758178711,0.3277006149291992,0.8916940689086914,0.30478382110595703
270,611813888.0,6.905087471008301,-4.183994293212891,3.8140792846679688,-1.285813331604004,-2.8379507064819336,-5.141122817993164,0.0676717758178711,0.3277006149291992,0.8916940689086914,0.30478382110595703
271,611813888.0,8.972543716430664,-10.897541046142578,3.1448793411254883,-1.285813331604004,-2.8379507064819336,-5.141122817993164,0.0676717758178711,0.3277006149291992,0.8916940689086914,0.30478382110595703
272,611813888.0,9.859622955322266,-13.500117301940918,6.890722274780273,-1.285813331604004,-2.8379507064819336,-5.141122817993164,0.0676717758178711,0.3277006149291992,0.8916940689086914,0.30478382110595703
273,611813888.0,4.543135643005371,-4.482081413269043,6.593832015991211,-1.285813331604004,-2.8379507064819336,-5.141122817993164,0.0676717758178711,0.3277006149291992,0.8916940689086914,0.30478382110595703
274,611813888.0,6.905087471008301,-4.183994293212891,3.8140792846679688,-1.285813331604004,-2.8379507064819336,-5.141122817993164,0.0676717758178711,0.3277006149291992,0.8916940689086914,0.30478382110595703
275,611813888.0,8.972543716430664,-10.897541046142578,3.1448793411254883,-1.285813331604004,-2.8379507064819336,-5.141122817993164,0.0676717758178711,0.3277006149291992,0.8916940689086914,0.30478382110595703
276,611813888.0,9.859622955322266,-13.500117301940918,6.890722274780273,-1.285813331604004,-2.8379507064819336,-5.141122817993164,0.0676717758178711,0.3277006149291992,0.8916940689086914,0.30478382110595703
277,611813952.0,11.140560150146484,-10.624593734741211,8.176447868347168,0.053264617919921875,-3.117058753967285,-4.945107460021973,0.0676717758178711,0.3277006149291992,0.8916940689086914,0.30478382110595703
278,611813952.0,11.140560150146484,-10.624593734741211,8.176447868347168,0.053264617919921875,-3.117058753967285,-4.945107460021973,0.0676717758178711,0.3277006149291992,0.8916940689086914,0.30478382110595703
279,611813952.0,10.391151428222656,-6.929030418395996,5.94258975982666,0.053264617919921875,-3.117058753967285,-4.945107460021973,0.0676717758178711,0.3277006149291992,0.8916940689086914,0.30478382110595703
280,611813952.0,12.034821510314941,-5.2781782150268555,4.2175140380859375,0.053264617919921875,-3.117058753967285,-4.945107460021973,0.0676717758178711,0.3277006149291992,0.8916940689086914,0.30478382110595703
281,611814016.0,15.12942123413086,-6.900299072265625,4.969316482543945,0.28549957275390625,-2.325542449951172,-3.430255889892578,0.0676717758178711,0.3277006149291992,0.8916940689086914,0.30478382110595703
282,611814016.0,15.86925220489502,-7.139726638793945,7.2331037521362305,0.28549957275390625,-2.325542449951172,-3.430255889892578,0.0676717758178711,0.3277006149291992,0.8916940689086914,0.30478382110595703
283,611814016.0,15.362863540649414,-6.879947662353516,8.511646270751953,0.28549957275390625,-2.325542449951172,-3.430255889892578,0.0676717758178711,0.3277006149291992,0.8916940689086914,0.30478382110595703
284,611814144.0,9.675263404846191,-2.995237350463867,6.848822593688965,-0.4857749938964844,-0.16298961639404297,0.5720643997192383,0.0676717758178711,0.3277006149291992,0.8916940689086914,0.30478382110595703
285,611814144.0,9.488510131835938,-2.5487051010131836,6.316096305847168,-0.4857749938964844,-0.16298961639404297,0.5720643997192383,0.0676717758178711,0.3277006149291992,0.8916940689086914,0.30478382110595703
286,611814144.0,9.488510131835938,-2.5487051010131836,6.316096305847168,-0.4857749938964844,-0.16298961639404297,0.5720643997192383,0.0676717758178711,0.3277006149291992,0.8916940689086914,0.30478382110595703
287,611814208.0,9.257462501525879,-2.5750417709350586,5.6468963623046875,0.21732044219970703,0.08841896057128906,0.5464963912963867,0.0676717758178711,0.3277006149291992,0.8916940689086914,0.30478382110595703
288,611814208.0,9.417879104614258,-2.2314634323120117,5.267403602600098,0.21732044219970703,0.08841896057128906,0.5464963912963867,0.0676717758178711,0.3277006149291992,0.8916940689086914,0.30478382110595703
289,611814208.0,9.628575325012207,-1.5036039352416992,4.933403015136719,0.21732044219970703,0.08841896057128906,0.5464963912963867,0.0676717758178711,0.3277006149291992,0.8916940689086914,0.30478382110595703
290,611814208.0,9.257462501525879,-2.5750417709350586,5.6468963623046875,0.21732044219970703,0.08841896057128906,0.5464963912963867,0.0676717758178711,0.3277006149291992,0.8916940689086914,0.30478382110595703
291,611814208.0,9.417879104614258,-2.2314634323120117,5.267403602600098,0.21732044219970703,0.08841896057128906,0.5464963912963867,0.0676717758178711,0.3277006149291992,0.8916940689086914,0.30478382110595703
292,611814208.0,9.628575325012207,-1.5036039352416992,4.933403015136719,0.21732044219970703,0.08841896057128906,0.5464963912963867,0.0676717758178711,0.3277006149291992,0.8916940689086914,0.30478382110595703
293,611814464.0,9.367599487304688,-1.351567268371582,2.2649831771850586,-0.540104866027832,0.08841896057128906,0.2364950180053711,0.0676717758178711,0.3277006149291992,0.8916940689086914,0.30478382110595703
294,611814464.0,9.198802947998047,-0.829615592956543,2.0530900955200195,-0.540104866027832,0.08841896057128906,0.2364950180053711,0.0676717758178711,0.3277006149291992,0.8916940689086914,0.30478382110595703
295,611814464.0,9.152114868164062,-0.6835651397705078,2.2458295822143555,-0.540104866027832,0.08841896057128906,0.2364950180053711,0.0676717758178711,0.3277006149291992,0.8916940689086914,0.30478382110595703
296,611814528.0,9.279010772705078,-1.1217174530029297,2.529550552368164,-0.540104866027832,0.08841896057128906,0.2364950180053711,0.0676717758178711,0.3277006149291992,0.8916940689086914,0.30478382110595703
297,611814528.0,9.062329292297363,-1.1253089904785156,2.788132667541504,-0.540104866027832,0.08841896057128906,0.2364950180053711,0.0676717758178711,0.3277006149291992,0.8916940689086914,0.30478382110595703
298,611814784.0,8.988106727600098,-1.8364086151123047,3.340012550354004,0.02982807159423828,-0.04687213897705078,0.16938209533691406,-0.3381462097167969,0.5630006790161133,0.5718908309936523,0.4915304183959961
299,611814784.0,8.956981658935547,-1.8268308639526367,3.434586524963379,0.02982807159423828,-0.04687213897705078,0.16938209533691406,-0.3381462097167969,0.5630006790161133,0.5718908309936523,0.4915304183959961
300,611814784.0,8.980923652648926,-1.8196487426757812,3.4202213287353516,0.02982807159423828,-0.04687213897705078,0.16938209533691406,-0.3381462097167969,0.5630006790161133,0.5718908309936523,0.4915304183959961
301,611814784.0,8.942615509033203,-1.9465446472167969,3.458529472351074,0.02982807159423828,-0.04687213897705078,0.16938209533691406,-0.3381462097167969,0.5630006790161133,0.5718908309936523,0.4915304183959961
302,611814848.0,8.99409294128418,-1.8759136199951172,3.4860639572143555,0.02982807159423828,-0.04687213897705078,0.16938209533691406,-0.3381462097167969,0.5630006790161133,0.5718908309936523,0.4915304183959961
303,611814848.0,8.964163780212402,-1.7969026565551758,3.302901268005371,0.02982807159423828,-0.04687213897705078,0.16938209533691406,-0.3381462097167969,0.5630006790161133,0.5718908309936523,0.4915304183959961
304,611814848.0,8.956981658935547,-1.978867530822754,3.3148727416992188,0.02982807159423828,-0.04687213897705078,0.16938209533691406,-0.3381462097167969,0.5630006790161133,0.5718908309936523,0.4915304183959961
305,611814848.0,8.964163780212402,-1.7969026565551758,3.302901268005371,0.02982807159423828,-0.04687213897705078,0.16938209533691406,-0.3381462097167969,0.5630006790161133,0.5718908309936523,0.4915304183959961
306,611814848.0,8.956981658935547,-1.978867530822754,3.3148727416992188,0.02982807159423828,-0.04687213897705078,0.16938209533691406,-0.3381462097167969,0.5630006790161133,0.5718908309936523,0.4915304183959961
307,611814912.0,8.970149993896484,-1.8926734924316406,3.3543787002563477,0.07244014739990234,-0.025567054748535156,0.025567054748535156,-0.3381462097167969,0.5630006790161133,0.5718908309936523,0.4915304183959961
308,611814912.0,9.038386344909668,-1.8340139389038086,3.310084342956543,0.07244014739990234,-0.025567054748535156,0.025567054748535156,-0.3381462097167969,0.5630006790161133,0.5718908309936523,0.4915304183959961
309,611814912.0,9.089863777160645,-2.036330223083496,3.3304357528686523,0.07244014739990234,-0.025567054748535156,0.025567054748535156,-0.3381462097167969,0.5630006790161133,0.5718908309936523,0.4915304183959961
310,611814912.0,8.970149993896484,-1.8926734924316406,3.3543787002563477,0.07244014739990234,-0.025567054748535156,0.025567054748535156,-0.3381462097167969,0.5630006790161133,0.5718908309936523,0.4915304183959961
311,611814912.0,9.038386344909668,-1.8340139389038086,3.310084342956543,0.07244014739990234,-0.025567054748535156,0.025567054748535156,-0.3381462097167969,0.5630006790161133,0.5718908309936523,0.4915304183959961
312,611814912.0,9.089863777160645,-2.036330223083496,3.3304357528686523,0.07244014739990234,-0.025567054748535156,0.025567054748535156,-0.3381462097167969,0.5630006790161133,0.5718908309936523,0.4915304183959961
313,611814976.0,9.21556282043457,-1.8352108001708984,3.2502269744873047,0.033023834228515625,-0.01810932159423828,0.034089088439941406,-0.3381462097167969,0.5630006790161133,0.5718908309936523,0.4915304183959961
314,611814976.0,9.130566596984863,-1.788522720336914,3.331632614135742,0.033023834228515625,-0.01810932159423828,0.034089088439941406,-0.3381462097167969,0.5630006790161133,0.5718908309936523,0.4915304183959961
315,611814976.0,9.11739730834961,-1.9381647109985352,3.2657899856567383,0.033023834228515625,-0.01810932159423828,0.034089088439941406,-0.3381462097167969,0.5630006790161133,0.5718908309936523,0.4915304183959961
316,611815040.0,9.110215187072754,-2.0566816329956055,3.2298765182495117,0.08841896057128906,-0.013848304748535156,0.045806884765625,-0.3381462097167969,0.5630006790161133,0.5718908309936523,0.4915304183959961
317,611815040.0,9.088665962219238,-1.8435907363891602,3.246636390686035,0.08841896057128906,-0.013848304748535156,0.045806884765625,-0.3381462097167969,0.5630006790161133,0.5718908309936523,0.4915304183959961
318,611815040.0,9.013246536254883,-1.8124656677246094,3.1676254272460938,0.08841896057128906,-0.013848304748535156,0.045806884765625,-0.3381462097167969,0.5630006790161133,0.5718908309936523,0.4915304183959961
319,611815040.0,8.959375381469727,-1.7992973327636719,3.1963558197021484,0.08841896057128906,-0.013848304748535156,0.045806884765625,-0.3381462097167969,0.5630006790161133,0.5718908309936523,0.4915304183959961
320,611815040.0,9.013246536254883,-1.8124656677246094,3.1676254272460938,0.08841896057128906,-0.013848304748535156,0.045806884765625,-0.3381462097167969,0.5630006790161133,0.5718908309936523,0.4915304183959961
321,611815040.0,8.959375381469727,-1.7992973327636719,3.1963558197021484,0.08841896057128906,-0.013848304748535156,0.045806884765625,-0.3381462097167969,0.5630006790161133,0.5718908309936523,0.4915304183959961
322,611815104.0,9.002472877502441,-1.7693681716918945,3.2657899856567383,0.08841896057128906,-0.013848304748535156,0.045806884765625,-0.3381462097167969,0.5630006790161133,0.5718908309936523,0.4915304183959961
323,611815104.0,9.089863777160645,-2.0016136169433594,3.122134208679199,0.08841896057128906,-0.013848304748535156,0.045806884765625,-0.3381462097167969,0.5630006790161133,0.5718908309936523,0.4915304183959961
324,611815104.0,8.986909866333008,-1.9285879135131836,3.1149511337280273,0.08841896057128906,-0.013848304748535156,0.045806884765625,-0.3381462097167969,0.5630006790161133,0.5718908309936523,0.4915304183959961
325,611815104.0,9.002472877502441,-1.7693681716918945,3.2657899856567383,0.08841896057128906,-0.013848304748535156,0.045806884765625,-0.3381462097167969,0.5630006790161133,0.5718908309936523,0.4915304183959961
326,611815104.0,9.089863777160645,-2.0016136169433594,3.122134208679199,0.08841896057128906,-0.013848304748535156,0.045806884765625,-0.3381462097167969,0.5630006790161133,0.5718908309936523,0.4915304183959961
327,611815104.0,8.986909866333008,-1.9285879135131836,3.1149511337280273,0.08841896057128906,-0.013848304748535156,0.045806884765625,-0.3381462097167969,0.5630006790161133,0.5718908309936523,0.4915304183959961
328,611815296.0,8.99409294128418,-1.8914766311645508,3.15445613861084,0.013848304748535156,-0.007456779479980469,0.041545867919921875,-0.33288097381591797,0.555145263671875,0.5870828628540039,0.48609256744384766
329,611815296.0,9.008458137512207,-1.9010534286499023,3.1113595962524414,0.013848304748535156,-0.007456779479980469,0.041545867919921875,-0.33288097381591797,0.555145263671875,0.5870828628540039,0.48609256744384766
330,611815296.0,9.016838073730469,-1.9585161209106445,3.0730514526367188,0.013848304748535156,-0.007456779479980469,0.041545867919921875,-0.33288097381591797,0.555145263671875,0.5870828628540039,0.48609256744384766
331,611815360.0,9.061132431030273,-1.9309816360473633,3.094599723815918,0.013848304748535156,-0.007456779479980469,0.041545867919921875,-0.33288097381591797,0.555145263671875,0.5870828628540039,0.48609256744384766
332,611815360.0,9.124580383300781,-1.9357709884643555,3.181990623474121,0.013848304748535156,-0.007456779479980469,0.041545867919921875,-0.33288097381591797,0.555145263671875,0.5870828628540039,0.48609256744384766
333,611815360.0,9.11739730834961,-1.9249963760375977,3.155653953552246,0.013848304748535156,-0.007456779479980469,0.041545867919921875,-0.33288097381591797,0.555145263671875,0.5870828628540039,0.48609256744384766
334,611815360.0,9.027612686157227,-1.8639421463012695,3.179595947265625,0.013848304748535156,-0.007456779479980469,0.041545867919921875,-0.33288097381591797,0.555145263671875,0.5870828628540039,0.48609256744384766
335,611815360.0,9.124580383300781,-1.9357709884643555,3.181990623474121,0.013848304748535156,-0.007456779479980469,0.041545867919921875,-0.33288097381591797,0.555145263671875,0.5870828628540039,0.48609256744384766
336,611815360.0,9.11739730834961,-1.9249963760375977,3.155653953552246,0.013848304748535156,-0.007456779479980469,0.041545867919921875,-0.33288097381591797,0.555145263671875,0.5870828628540039,0.48609256744384766
337,611815360.0,9.027612686157227,-1.8639421463012695,3.179595947265625,0.013848304748535156,-0.007456779479980469,0.041545867919921875,-0.33288097381591797,0.555145263671875,0.5870828628540039,0.48609256744384766
338,611815424.0,8.97613525390625,-1.9309816360473633,3.1963558197021484,0.013848304748535156,-0.007456779479980469,0.041545867919921875,-0.33288097381591797,0.555145263671875,0.5870828628540039,0.48609256744384766
339,611815424.0,8.950995445251465,-1.8531684875488281,3.243044853210449,0.013848304748535156,-0.007456779479980469,0.041545867919921875,-0.33288097381591797,0.555145263671875,0.5870828628540039,0.48609256744384766
340,611815424.0,9.082680702209473,-1.890279769897461,3.247833251953125,0.013848304748535156,-0.007456779479980469,0.041545867919921875,-0.33288097381591797,0.555145263671875,0.5870828628540039,0.48609256744384766
341,611815424.0,8.97613525390625,-1.9309816360473633,3.1963558197021484,0.013848304748535156,-0.007456779479980469,0.041545867919921875,-0.33288097381591797,0.555145263671875,0.5870828628540039,0.48609256744384766
342,611815424.0,8.950995445251465,-1.8531684875488281,3.243044853210449,0.013848304748535156,-0.007456779479980469,0.041545867919921875,-0.33288097381591797,0.555145263671875,0.5870828628540039,0.48609256744384766
343,611815424.0,9.082680702209473,-1.890279769897461,3.247833251953125,0.013848304748535156,-0.007456779479980469,0.041545867919921875,-0.33288097381591797,0.555145263671875,0.5870828628540039,0.48609256744384766
344,611815488.0,9.04676628112793,-1.8914766311645508,3.2538185119628906,0.013848304748535156,-0.007456779479980469,0.041545867919921875,-0.33288097381591797,0.555145263671875,0.5870828628540039,0.48609256744384766
345,611815488.0,8.99409294128418,-1.9297847747802734,3.1807937622070312,0.013848304748535156,-0.007456779479980469,0.041545867919921875,-0.33288097381591797,0.555145263671875,0.5870828628540039,0.48609256744384766
346,611815488.0,8.991698265075684,-1.98126220703125,3.150864601135254,0.013848304748535156,-0.007456779479980469,0.041545867919921875,-0.33288097381591797,0.555145263671875,0.5870828628540039,0.48609256744384766
347,611815552.0,9.149720191955566,-1.9058418273925781,3.255016326904297,0.026632308959960938,-0.012783050537109375,0.0021305084228515625,-0.33288097381591797,0.555145263671875,0.5870828628540039,0.48609256744384766
348,611815552.0,9.125777244567871,-1.8723220825195312,3.1652307510375977,0.026632308959960938,-0.012783050537109375,0.0021305084228515625,-0.33288097381591797,0.555145263671875,0.5870828628540039,0.48609256744384766
349,611815680.0,9.007261276245117,-2.009993553161621,3.0754451751708984,0.021305084228515625,-0.00852203369140625,-0.0010652542114257812,-0.33288097381591797,0.555145263671875,0.5870828628540039,0.48609256744384766
350,611815680.0,8.978529930114746,-1.9824590682983398,3.1652307510375977,0.021305084228515625,-0.00852203369140625,-0.0010652542114257812,-0.33288097381591797,0.555145263671875,0.5870828628540039,0.48609256744384766
351,611815680.0,9.092257499694824,-1.8974618911743164,3.0969934463500977,0.021305084228515625,-0.00852203369140625,-0.0010652542114257812,-0.33288097381591797,0.555145263671875,0.5870828628540039,0.48609256744384766
352,611815680.0,9.007261276245117,-2.009993553161621,3.0754451751708984,0.021305084228515625,-0.00852203369140625,-0.0010652542114257812,-0.33288097381591797,0.555145263671875,0.5870828628540039,0.48609256744384766
353,611815680.0,8.978529930114746,-1.9824590682983398,3.1652307510375977,0.021305084228515625,-0.00852203369140625,-0.0010652542114257812,-0.33288097381591797,0.555145263671875,0.5870828628540039,0.48609256744384766
354,611815680.0,9.092257499694824,-1.8974618911743164,3.0969934463500977,0.021305084228515625,-0.00852203369140625,-0.0010652542114257812,-0.33288097381591797,0.555145263671875,0.5870828628540039,0.48609256744384766
355,611815744.0,9.085075378417969,-1.9872474670410156,3.087416648864746,-0.0287628173828125,-0.0010652542114257812,0.0021305084228515625,-0.3362903594970703,0.5525989532470703,0.5898876190185547,0.48328685760498047
356,611815744.0,9.013246536254883,-2.0219640731811523,3.093402862548828,-0.0287628173828125,-0.0010652542114257812,0.0021305084228515625,-0.3362903594970703,0.5525989532470703,0.5898876190185547,0.48328685760498047
357,611815744.0,9.085075378417969,-1.9872474670410156,3.087416648864746,-0.0287628173828125,-0.0010652542114257812,0.0021305084228515625,-0.3362903594970703,0.5525989532470703,0.5898876190185547,0.48328685760498047
358,611815744.0,9.013246536254883,-2.0219640731811523,3.093402862548828,-0.0287628173828125,-0.0010652542114257812,0.0021305084228515625,-0.3362903594970703,0.5525989532470703,0.5898876190185547,0.48328685760498047
359,611815744.0,9.015641212463379,-2.004007339477539,3.0670652389526367,-0.0287628173828125,-0.0010652542114257812,0.0021305084228515625,-0.3362903594970703,0.5525989532470703,0.5898876190185547,0.48328685760498047
360,611815808.0,9.083877563476562,-2.0351333618164062,3.10178279876709,-0.0287628173828125,-0.0010652542114257812,0.0021305084228515625,-0.33642005920410156,0.5526857376098633,0.5897150039672852,0.48332977294921875
361,611815808.0,9.068314552307129,-2.0016136169433594,3.0850229263305664,-0.0287628173828125,-0.0010652542114257812,0.0021305084228515625,-0.33642005920410156,0.5526857376098633,0.5897150039672852,0.48332977294921875
362,611815808.0,9.067117691040039,-2.000415802001953,3.1125564575195312,-0.0287628173828125,-0.0010652542114257812,0.0021305084228515625,-0.33642005920410156,0.5526857376098633,0.5897150039672852,0.48332977294921875
363,611815872.0,9.055146217346191,-2.068653106689453,3.063473701477051,0.012783050537109375,-0.025567054748535156,0.023435592651367188,-0.3362903594970703,0.5526857376098633,0.5896291732788086,0.48354625701904297
364,611815936.0,9.061132431030273,-1.9932336807250977,3.0862197875976562,0.011717796325683594,-0.023435592651367188,0.0170440673828125,-0.3362903594970703,0.5526857376098633,0.5896291732788086,0.48354625701904297
365,611816000.0,9.081483840942383,-2.036330223083496,3.089811325073242,0.011717796325683594,-0.023435592651367188,0.0170440673828125,-0.3362903594970703,0.5526857376098633,0.5896291732788086,0.48354625701904297
366,611816000.0,9.120988845825195,-1.9501361846923828,3.1005849838256836,0.011717796325683594,-0.023435592651367188,0.0170440673828125,-0.3362903594970703,0.5526857376098633,0.5896291732788086,0.48354625701904297
367,611816000.0,9.021626472473145,-1.9704875946044922,3.062276840209961,0.011717796325683594,-0.023435592651367188,0.0170440673828125,-0.3362903594970703,0.5526857376098633,0.5896291732788086,0.48354625701904297
368,611816064.0,9.032401084899902,-1.9992189407348633,3.0527000427246094,-0.0031957626342773438,-0.025567054748535156,0.03835010528564453,-0.3362903594970703,0.5526857376098633,0.5896291732788086,0.48354625701904297
369,611816064.0,8.931840896606445,-1.9824590682983398,3.0826282501220703,-0.0031957626342773438,-0.025567054748535156,0.03835010528564453,-0.3362903594970703,0.5526857376098633,0.5896291732788086,0.48354625701904297
370,611816064.0,9.030006408691406,-2.0159788131713867,3.0155887603759766,-0.0031957626342773438,-0.025567054748535156,0.03835010528564453,-0.3362903594970703,0.5526857376098633,0.5896291732788086,0.48354625701904297
371,611816128.0,9.155706405639648,-2.0866098403930664,2.989251136779785,0.0170440673828125,-0.024501800537109375,0.023435592651367188,-0.3362903594970703,0.5526857376098633,0.5896291732788086,0.48354625701904297
372,611816128.0,9.110215187072754,-1.9992189407348633,3.0443201065063477,0.0170440673828125,-0.024501800537109375,0.023435592651367188,-0.3362903594970703,0.5526857376098633,0.5896291732788086,0.48354625701904297
373,611816128.0,9.159296989440918,-1.945347785949707,3.053896903991699,0.0170440673828125,-0.024501800537109375,0.023435592651367188,-0.3362903594970703,0.5526857376098633,0.5896291732788086,0.48354625701904297
374,611816256.0,9.038386344909668,-1.941756248474121,3.1616392135620117,0.010652542114257812,-0.0170440673828125,-0.00852203369140625,-0.3362903594970703,0.5526857376098633,0.5896291732788086,0.48354625701904297
375,611816256.0,9.089863777160645,-1.9884443283081055,3.130514144897461,0.010652542114257812,-0.0170440673828125,-0.00852203369140625,-0.3362903594970703,0.5526857376098633,0.5896291732788086,0.48354625701904297
376,611816256.0,9.038386344909668,-1.941756248474121,3.1616392135620117,0.010652542114257812,-0.0170440673828125,-0.00852203369140625,-0.3362903594970703,0.5526857376098633,0.5896291732788086,0.48354625701904297
377,611816256.0,9.089863777160645,-1.9884443283081055,3.130514144897461,0.010652542114257812,-0.0170440673828125,-0.00852203369140625,-0.3362903594970703,0.5526857376098633,0.5896291732788086,0.48354625701904297
378,611816256.0,9.038386344909668,-1.941756248474121,3.1616392135620117,0.010652542114257812,-0.0170440673828125,-0.00852203369140625,-0.3362903594970703,0.5526857376098633,0.5896291732788086,0.48354625701904297
379,611816256.0,9.089863777160645,-1.9884443283081055,3.130514144897461,0.010652542114257812,-0.0170440673828125,-0.00852203369140625,-0.3362903594970703,0.5526857376098633,0.5896291732788086,0.48354625701904297
380,611816320.0,9.153311729431152,-2.0542869567871094,3.119739532470703,0.012783050537109375,-0.0010652542114257812,-0.0031957626342773438,-0.3362903594970703,0.5526857376098633,0.5896291732788086,0.48354625701904297
381,611816320.0,9.09584903717041,-2.03273868560791,3.113753318786621,0.012783050537109375,-0.0010652542114257812,-0.0031957626342773438,-0.3362903594970703,0.5526857376098633,0.5896291732788086,0.48354625701904297
382,611816320.0,9.06592082977295,-2.059075355529785,3.149667739868164,0.012783050537109375,-0.0010652542114257812,-0.0031957626342773438,-0.3362903594970703,0.5526857376098633,0.5896291732788086,0.48354625701904297
383,611816320.0,9.153311729431152,-2.0542869567871094,3.119739532470703,0.012783050537109375,-0.0010652542114257812,-0.0031957626342773438,-0.3362903594970703,0.5526857376098633,0.5896291732788086,0.48354625701904297
384,611816320.0,9.09584903717041,-2.03273868560791,3.113753318786621,0.012783050537109375,-0.0010652542114257812,-0.0031957626342773438,-0.3362903594970703,0.5526857376098633,0.5896291732788086,0.48354625701904297
385,611816320.0,9.06592082977295,-2.059075355529785,3.149667739868164,0.012783050537109375,-0.0010652542114257812,-0.0031957626342773438,-0.3362903594970703,0.5526857376098633,0.5896291732788086,0.48354625701904297
386,611816320.0,9.153311729431152,-2.0542869567871094,3.119739532470703,0.012783050537109375,-0.0010652542114257812,-0.0031957626342773438,-0.3362903594970703,0.5526857376098633,0.5896291732788086,0.48354625701904297
387,611816320.0,9.09584903717041,-2.03273868560791,3.113753318786621,0.012783050537109375,-0.0010652542114257812,-0.0031957626342773438,-0.3362903594970703,0.5526857376098633,0.5896291732788086,0.48354625701904297
388,611816320.0,9.06592082977295,-2.059075355529785,3.149667739868164,0.012783050537109375,-0.0010652542114257812,-0.0031957626342773438,-0.3362903594970703,0.5526857376098633,0.5896291732788086,0.48354625701904297
389,611816448.0,9.002472877502441,-2.0506954193115234,2.9569292068481445,0.012783050537109375,-0.0010652542114257812,-0.0031957626342773438,-0.3362903594970703,0.5526857376098633,0.5896291732788086,0.48354625701904297
390,611816512.0,9.040781021118164,-1.9573192596435547,2.968899726867676,0.012783050537109375,-0.0010652542114257812,-0.0031957626342773438,-0.3362903594970703,0.5526857376098633,0.5896291732788086,0.48354625701904297
391,611816512.0,9.067117691040039,-1.909433364868164,2.9940404891967773,0.012783050537109375,-0.0010652542114257812,-0.0031957626342773438,-0.3362903594970703,0.5526857376098633,0.5896291732788086,0.48354625701904297
392,611816512.0,9.100637435913086,-2.0016136169433594,2.948549270629883,0.012783050537109375,-0.0010652542114257812,-0.0031957626342773438,-0.3362903594970703,0.5526857376098633,0.5896291732788086,0.48354625701904297
393,611816576.0,9.074300765991211,-2.002810478210449,2.9497461318969727,0.030893325805664062,-0.01597881317138672,-0.011717796325683594,-0.33926868438720703,0.5477218627929688,0.5927791595458984,0.4832439422607422
394,611816576.0,9.071906089782715,-2.0159788131713867,2.9473514556884766,0.030893325805664062,-0.01597881317138672,-0.011717796325683594,-0.33926868438720703,0.5477218627929688,0.5927791595458984,0.4832439422607422
395,611816576.0,9.103032112121582,-1.9585161209106445,2.9916458129882812,0.030893325805664062,-0.01597881317138672,-0.011717796325683594,-0.33926868438720703,0.5477218627929688,0.5927791595458984,0.4832439422607422
396,611816576.0,9.147326469421387,-1.978867530822754,3.021574020385742,0.030893325805664062,-0.01597881317138672,-0.011717796325683594,-0.33926868438720703,0.5477218627929688,0.5927791595458984,0.4832439422607422
397,611816640.0,9.104228973388672,-1.9692907333374023,3.0467138290405273,0.0,-0.019174575805664062,-0.014913558959960938,-0.3396568298339844,0.5477657318115234,0.5925636291503906,0.4832000732421875
398,611816640.0,9.085075378417969,-2.008795738220215,3.0850229263305664,0.0,-0.019174575805664062,-0.014913558959960938,-0.3396568298339844,0.5477657318115234,0.5925636291503906,0.4832000732421875
399,611816640.0,9.070709228515625,-2.0614700317382812,3.069459915161133,0.0,-0.019174575805664062,-0.014913558959960938,-0.3396568298339844,0.5477657318115234,0.5925636291503906,0.4832000732421875
400,611816704.0,9.086272239685059,-1.9968242645263672,3.1149511337280273,-0.009587287902832031,-0.0010652542114257812,0.0010652542114257812,-0.3396568298339844,0.5477657318115234,0.5925636291503906,0.4832000732421875
401,611816704.0,9.041977882385254,-1.9656991958618164,3.093402862548828,-0.009587287902832031,-0.0010652542114257812,0.0010652542114257812,-0.3396568298339844,0.5477657318115234,0.5925636291503906,0.4832000732421875
402,611816704.0,9.039584159851074,-2.0255556106567383,3.0993881225585938,-0.009587287902832031,-0.0010652542114257812,0.0010652542114257812,-0.3396568298339844,0.5477657318115234,0.5925636291503906,0.4832000732421875
403,611816768.0,9.068314552307129,-2.03273868560791,3.089811325073242,-0.009587287902832031,-0.0010652542114257812,0.0010652542114257812,-0.3396568298339844,0.5477657318115234,0.5925636291503906,0.4832000732421875
404,611816768.0,9.091060638427734,-2.029147148132324,3.0754451751708984,-0.009587287902832031,-0.0010652542114257812,0.0010652542114257812,-0.3396568298339844,0.5477657318115234,0.5925636291503906,0.4832000732421875
405,611816768.0,9.105425834655762,-2.008795738220215,3.062276840209961,-0.009587287902832031,-0.0010652542114257812,0.0010652542114257812,-0.3396568298339844,0.5477657318115234,0.5925636291503906,0.4832000732421875
406,611816768.0,9.091060638427734,-2.029147148132324,3.0754451751708984,-0.009587287902832031,-0.0010652542114257812,0.0010652542114257812,-0.3396568298339844,0.5477657318115234,0.5925636291503906,0.4832000732421875
407,611816768.0,9.105425834655762,-2.008795738220215,3.062276840209961,-0.009587287902832031,-0.0010652542114257812,0.0010652542114257812,-0.3396568298339844,0.5477657318115234,0.5925636291503906,0.4832000732421875
408,611816832.0,9.09345531463623,-1.9645023345947266,3.0407285690307617,-0.009587287902832031,-0.0010652542114257812,0.0010652542114257812,-0.3396568298339844,0.5477657318115234,0.5925636291503906,0.4832000732421875
409,611816832.0,9.105425834655762,-1.9501361846923828,3.0455169677734375,-0.009587287902832031,-0.0010652542114257812,0.0010652542114257812,-0.3396568298339844,0.5477657318115234,0.5925636291503906,0.4832000732421875
410,611816832.0,9.055146217346191,-1.9441509246826172,3.065868377685547,-0.009587287902832031,-0.0010652542114257812,0.0010652542114257812,-0.3396568298339844,0.5477657318115234,0.5925636291503906,0.4832000732421875
411,611816832.0,9.09345531463623,-1.9645023345947266,3.0407285690307617,-0.009587287902832031,-0.0010652542114257812,0.0010652542114257812,-0.3396568298339844,0.5477657318115234,0.5925636291503906,0.4832000732421875
412,611816832.0,9.105425834655762,-1.9501361846923828,3.0455169677734375,-0.009587287902832031,-0.0010652542114257812,0.0010652542114257812,-0.3396568298339844,0.5477657318115234,0.5925636291503906,0.4832000732421875
413,611816832.0,9.055146217346191,-1.9441509246826172,3.065868377685547,-0.009587287902832031,-0.0010652542114257812,0.0010652542114257812,-0.3396568298339844,0.5477657318115234,0.5925636291503906,0.4832000732421875
414,611816960.0,9.086272239685059,-1.9645023345947266,3.0754451751708984,-0.0021305084228515625,0.0010652542114257812,0.0010652542114257812,-0.3396568298339844,0.5477657318115234,0.5925636291503906,0.4832000732421875
415,611816960.0,9.092257499694824,-1.9704875946044922,3.064671516418457,-0.0021305084228515625,0.0010652542114257812,0.0010652542114257812,-0.3396568298339844,0.5477657318115234,0.5925636291503906,0.4832000732421875
416,611816960.0,9.086272239685059,-1.9645023345947266,3.0754451751708984,-0.0021305084228515625,0.0010652542114257812,0.0010652542114257812,-0.3396568298339844,0.5477657318115234,0.5925636291503906,0.4832000732421875
417,611816960.0,9.092257499694824,-1.9704875946044922,3.064671516418457,-0.0021305084228515625,0.0010652542114257812,0.0010652542114257812,-0.3396568298339844,0.5477657318115234,0.5925636291503906,0.4832000732421875
418,611817024.0,9.049160957336426,-1.9537277221679688,3.0467138290405273,0.0021305084228515625,0.0010652542114257812,0.009587287902832031,-0.3396568298339844,0.5477657318115234,0.5925636291503906,0.4832000732421875
419,611817024.0,9.079089164733887,-1.977670669555664,3.0491085052490234,0.0021305084228515625,0.0010652542114257812,0.009587287902832031,-0.3396568298339844,0.5477657318115234,0.5925636291503906,0.4832000732421875
420,611817024.0,9.11739730834961,-1.9609107971191406,3.091008186340332,0.0021305084228515625,0.0010652542114257812,0.009587287902832031,-0.3396568298339844,0.5477657318115234,0.5925636291503906,0.4832000732421875
421,611817024.0,9.049160957336426,-1.9537277221679688,3.0467138290405273,0.0021305084228515625,0.0010652542114257812,0.009587287902832031,-0.3396568298339844,0.5477657318115234,0.5925636291503906,0.4832000732421875
422,611817024.0,9.079089164733887,-1.977670669555664,3.0491085052490234,0.0021305084228515625,0.0010652542114257812,0.009587287902832031,-0.3396568298339844,0.5477657318115234,0.5925636291503906,0.4832000732421875
423,611817024.0,9.11739730834961,-1.9609107971191406,3.091008186340332,0.0021305084228515625,0.0010652542114257812,0.009587287902832031,-0.3396568298339844,0.5477657318115234,0.5925636291503906,0.4832000732421875
424,611817088.0,9.086272239685059,-1.9656991958618164,3.0670652389526367,0.0063915252685546875,0.011717796325683594,-0.0063915252685546875,-0.3384056091308594,0.5476360321044922,0.593470573425293,0.48307132720947266
425,611817088.0,9.0754976272583,-1.9237995147705078,3.0467138290405273,0.0063915252685546875,0.011717796325683594,-0.0063915252685546875,-0.3384056091308594,0.5476360321044922,0.593470573425293,0.48307132720947266
426,611817088.0,9.04556941986084,-1.9968242645263672,3.10178279876709,0.0063915252685546875,0.011717796325683594,-0.0063915252685546875,-0.3384056091308594,0.5476360321044922,0.593470573425293,0.48307132720947266
427,611817152.0,9.06592082977295,-1.9824590682983398,3.0742483139038086,0.01810932159423828,0.011717796325683594,-0.00852203369140625,-0.3384056091308594,0.5477218627929688,0.5936431884765625,0.4827260971069336
428,611817152.0,9.067117691040039,-1.9585161209106445,3.0850229263305664,0.01810932159423828,0.011717796325683594,-0.00852203369140625,-0.3384056091308594,0.5477218627929688,0.5936431884765625,0.4827260971069336
429,611817280.0,9.061132431030273,-2.0554847717285156,3.027560234069824,0.01810932159423828,0.011717796325683594,-0.00852203369140625,-0.3384056091308594,0.5477218627929688,0.5936431884765625,0.4827260971069336
430,611817280.0,9.038386344909668,-2.039921760559082,3.0191802978515625,0.01810932159423828,0.011717796325683594,-0.00852203369140625,-0.3384056091308594,0.5477218627929688,0.5936431884765625,0.4827260971069336
431,611817280.0,9.069512367248535,-2.0267534255981445,3.0096025466918945,0.01810932159423828,0.011717796325683594,-0.00852203369140625,-0.3384056091308594,0.5477218627929688,0.5936431884765625,0.4827260971069336
432,611817280.0,9.061132431030273,-2.0554847717285156,3.027560234069824,0.01810932159423828,0.011717796325683594,-0.00852203369140625,-0.3384056091308594,0.5477218627929688,0.5936431884765625,0.4827260971069336
433,611817280.0,9.038386344909668,-2.039921760559082,3.0191802978515625,0.01810932159423828,0.011717796325683594,-0.00852203369140625,-0.3384056091308594,0.5477218627929688,0.5936431884765625,0.4827260971069336
434,611817280.0,9.069512367248535,-2.0267534255981445,3.0096025466918945,0.01810932159423828,0.011717796325683594,-0.00852203369140625,-0.3384056091308594,0.5477218627929688,0.5936431884765625,0.4827260971069336
435,611817344.0,9.089863777160645,-2.0602731704711914,3.0143909454345703,-0.005326271057128906,0.0,0.026632308959960938,-0.33758544921875,0.5479812622070312,0.5941610336303711,0.4824237823486328
436,611817344.0,9.058737754821777,-2.012387275695801,2.9808712005615234,-0.005326271057128906,0.0,0.026632308959960938,-0.33758544921875,0.5479812622070312,0.5941610336303711,0.4824237823486328
437,611817344.0,9.089863777160645,-2.0602731704711914,3.0143909454345703,-0.005326271057128906,0.0,0.026632308959960938,-0.33758544921875,0.5479812622070312,0.5941610336303711,0.4824237823486328
438,611817344.0,9.058737754821777,-2.012387275695801,2.9808712005615234,-0.005326271057128906,0.0,0.026632308959960938,-0.33758544921875,0.5479812622070312,0.5941610336303711,0.4824237823486328
439,611817344.0,9.130566596984863,-2.004007339477539,3.021574020385742,-0.005326271057128906,0.0,0.026632308959960938,-0.33758544921875,0.5479812622070312,0.5941610336303711,0.4824237823486328
440,611817408.0,9.098243713378906,-2.0530900955200195,3.039531707763672,-0.30360889434814453,0.02769756317138672,0.10013771057128906,-0.33620452880859375,0.5477218627929688,0.5943336486816406,0.48345947265625
441,611817408.0,9.11739730834961,-2.039921760559082,3.251424789428711,-0.30360889434814453,0.02769756317138672,0.10013771057128906,-0.33620452880859375,0.5477218627929688,0.5943336486816406,0.48345947265625
442,611817408.0,9.16408634185791,-1.9345731735229492,3.5495119094848633,-0.30360889434814453,0.02769756317138672,0.10013771057128906,-0.33620452880859375,0.5477218627929688,0.5943336486816406,0.48345947265625
443,611817472.0,9.329291343688965,-1.3192453384399414,3.9780874252319336,-0.30360889434814453,0.02769756317138672,0.10013771057128906,-0.33292388916015625,0.5487146377563477,0.5929088592529297,0.48639392852783203
444,611817536.0,10.064332962036133,-10.852049827575684,5.411060333251953,-3.6070947647094727,1.3358821868896484,2.102895736694336,-0.33292388916015625,0.5487146377563477,0.5929088592529297,0.48639392852783203
445,611817600.0,9.99489974975586,-11.377593040466309,6.434613227844238,-1.5681161880493164,1.7268457412719727,4.180224418640137,-0.33292388916015625,0.5487146377563477,0.5929088592529297,0.48639392852783203
446,611817600.0,10.330098152160645,-11.093871116638184,6.3879241943359375,-1.5681161880493164,1.7268457412719727,4.180224418640137,-0.33292388916015625,0.5487146377563477,0.5929088592529297,0.48639392852783203
447,611817600.0,10.779024124145508,-12.583109855651855,4.4425764083862305,-1.5681161880493164,1.7268457412719727,4.180224418640137,-0.33292388916015625,0.5487146377563477,0.5929088592529297,0.48639392852783203
448,611817664.0,10.846063613891602,-14.666129112243652,3.432191848754883,0.4314451217651367,1.503133773803711,5.654595375061035,-0.33292388916015625,0.5487146377563477,0.5929088592529297,0.48639392852783203
449,611817664.0,10.758672714233398,-14.694860458374023,3.6081714630126953,0.4314451217651367,1.503133773803711,5.654595375061035,-0.33292388916015625,0.5487146377563477,0.5929088592529297,0.48639392852783203
450,611817664.0,10.629382133483887,-13.741939544677734,2.407443046569824,0.4314451217651367,1.503133773803711,5.654595375061035,-0.33292388916015625,0.5487146377563477,0.5929088592529297,0.48639392852783203
451,611817728.0,9.660898208618164,-14.451841354370117,1.1145343780517578,1.0567741394042969,1.263442039489746,6.272467613220215,-0.33292388916015625,0.5487146377563477,0.5929088592529297,0.48639392852783203
452,611817728.0,8.824098587036133,-13.725179672241211,1.0079889297485352,1.0567741394042969,1.263442039489746,6.272467613220215,-0.33292388916015625,0.5487146377563477,0.5929088592529297,0.48639392852783203
453,611817728.0,7.732309341430664,-11.98693561553955,0.5818080902099609,1.0567741394042969,1.263442039489746,6.272467613220215,-0.33292388916015625,0.5487146377563477,0.5929088592529297,0.48639392852783203
454,611817792.0,5.796538352966309,-10.682056427001953,0.28731250762939453,1.0567741394042969,1.263442039489746,6.272467613220215,-0.33292388916015625,0.5487146377563477,0.5929088592529297,0.48639392852783203
455,611817792.0,4.571866989135742,-9.548367500305176,-0.0682363510131836,1.0567741394042969,1.263442039489746,6.272467613220215,-0.33292388916015625,0.5487146377563477,0.5929088592529297,0.48639392852783203
456,611817792.0,3.3663501739501953,-7.352817535400391,-0.4070262908935547,1.0567741394042969,1.263442039489746,6.272467613220215,-0.33292388916015625,0.5487146377563477,0.5929088592529297,0.48639392852783203
457,611817792.0,2.7989063262939453,-7.011632919311523,-0.6368770599365234,1.0567741394042969,1.263442039489746,6.272467613220215,-0.33292388916015625,0.5487146377563477,0.5929088592529297,0.48639392852783203
458,611817856.0,2.0566816329956055,-5.7055559158325195,-1.198333740234375,-0.5496931076049805,0.25034427642822266,5.7749738693237305,0.39783287048339844,0.07742595672607422,0.8451261520385742,0.3486328125
459,611817984.0,-2.8300323486328125,-3.547117233276367,-2.091398239135742,-1.7833061218261719,-0.49323177337646484,4.764007568359375,0.4399986267089844,-0.07082366943359375,0.8355026245117188,0.3214864730834961
460,611817984.0,-3.2322702407836914,-3.650071144104004,-2.7246837615966797,-1.7833061218261719,-0.49323177337646484,4.764007568359375,0.4399986267089844,-0.07082366943359375,0.8355026245117188,0.3214864730834961
461,611817984.0,-4.5335588455200195,-3.7195053100585938,-3.992452621459961,-1.7833061218261719,-0.49323177337646484,4.764007568359375,0.4399986267089844,-0.07082366943359375,0.8355026245117188,0.3214864730834961
462,611818048.0,-5.888718605041504,-5.043539047241211,-4.577853202819824,-4.162115097045898,-5.246586799621582,1.4083223342895508,0.34276294708251953,-0.36542224884033203,0.7736997604370117,0.38773441314697266
463,611818048.0,-4.687989234924316,-5.782173156738281,-2.0902013778686523,-4.162115097045898,-5.246586799621582,1.4083223342895508,0.34276294708251953,-0.36542224884033203,0.7736997604370117,0.38773441314697266
464,611818048.0,-2.992842674255371,-3.6979570388793945,2.753415107727051,-4.162115097045898,-5.246586799621582,1.4083223342895508,0.34276294708251953,-0.36542224884033203,0.7736997604370117,0.38773441314697266
465,611818112.0,-1.2318534851074219,-0.5063886642456055,7.871177673339844,-1.3848857879638672,2.2531023025512695,0.26845455169677734,0.28890132904052734,-0.41371631622314453,0.7420644760131836,0.4412508010864258
466,611818112.0,38.7070426940918,6.616578102111816,37.54701614379883,-1.3848857879638672,2.2531023025512695,0.26845455169677734,0.28890132904052734,-0.41371631622314453,0.7420644760131836,0.4412508010864258
467,611818112.0,-17.79425048828125,-15.24674129486084,-4.828054428100586,-1.3848857879638672,2.2531023025512695,0.26845455169677734,0.28890132904052734,-0.41371631622314453,0.7420644760131836,0.4412508010864258
468,611818112.0,-14.109460830688477,-2.1189327239990234,-1.1025629043579102,-1.3848857879638672,2.2531023025512695,0.26845455169677734,0.28890132904052734,-0.41371631622314453,0.7420644760131836,0.4412508010864258
469,611818240.0,-13.521665573120117,-3.0562915802001953,-4.720312118530273,-0.6178712844848633,1.2186994552612305,-0.2535400390625,0.28890132904052734,-0.41371631622314453,0.7420644760131836,0.4412508010864258
470,611818304.0,-15.854887008666992,-5.6528825759887695,-10.058347702026367,-1.4370851516723633,-2.345783233642578,0.6274595260620117,0.28890132904052734,-0.41371631622314453,0.7420644760131836,0.4412508010864258
471,611818304.0,-14.381210327148438,-5.364372253417969,-11.503292083740234,-1.4370851516723633,-2.345783233642578,0.6274595260620117,0.28890132904052734,-0.41371631622314453,0.7420644760131836,0.4412508010864258
472,611818304.0,-10.19482135772705,-3.1616392135620117,-6.821288108825684,-1.4370851516723633,-2.345783233642578,0.6274595260620117,0.28890132904052734,-0.41371631622314453,0.7420644760131836,0.4412508010864258
473,611818368.0,-8.21595287322998,-1.0235519409179688,-2.2206897735595703,-1.4370851516723633,-2.345783233642578,0.6274595260620117,0.27755069732666016,-0.4201040267944336,0.7682180404663086,0.3953733444213867
474,611818432.0,-4.167234420776367,-5.843227386474609,10.291789054870605,0.14168357849121094,0.6519613265991211,-1.0503826141357422,0.2980947494506836,-0.39658260345458984,0.7670526504516602,0.4067668914794922
475,611818496.0,-3.368743896484375,-2.873128890991211,10.060741424560547,0.6455698013305664,1.8919668197631836,-1.8248529434204102,0.2980947494506836,-0.39658260345458984,0.7670526504516602,0.4067668914794922
476,611818496.0,-2.1476640701293945,-4.163642883300781,7.957371711730957,0.6455698013305664,1.8919668197631836,-1.8248529434204102,0.2980947494506836,-0.39658260345458984,0.7670526504516602,0.4067668914794922
477,611818496.0,-2.306882858276367,-3.8547821044921875,4.150474548339844,0.6455698013305664,1.8919668197631836,-1.8248529434204102,0.2980947494506836,-0.39658260345458984,0.7670526504516602,0.4067668914794922
478,611818560.0,-2.9210147857666016,-4.490461349487305,1.1911516189575195,0.3696575164794922,1.976125717163086,-2.188119888305664,0.2980947494506836,-0.39658260345458984,0.7670526504516602,0.4067668914794922
479,611818560.0,-2.7869348526000977,-3.7901363372802734,0.9924259185791016,0.3696575164794922,1.976125717163086,-2.188119888305664,0.2980947494506836,-0.39658260345458984,0.7670526504516602,0.4067668914794922
480,611818560.0,-2.431385040283203,-3.274169921875,0.5698366165161133,0.3696575164794922,1.976125717163086,-2.188119888305664,0.2980947494506836,-0.39658260345458984,0.7670526504516602,0.4067668914794922
481,611818624.0,-1.8292255401611328,-4.336030960083008,-0.004788398742675781,2.5407323837280273,0.5209293365478516,-4.886516571044922,0.2980947494506836,-0.39658260345458984,0.7670526504516602,0.4067668914794922
482,611818624.0,-1.2869224548339844,-4.966922760009766,0.05626487731933594,2.5407323837280273,0.5209293365478516,-4.886516571044922,0.2980947494506836,-0.39658260345458984,0.7670526504516602,0.4067668914794922
483,611818624.0,-1.0103836059570312,-4.371945381164551,-0.14844417572021484,2.5407323837280273,0.5209293365478516,-4.886516571044922,0.2980947494506836,-0.39658260345458984,0.7670526504516602,0.4067668914794922
484,611818752.0,5.590630531311035,-12.98534870147705,3.6009883880615234,-0.15766334533691406,-0.37817955017089844,-5.9134626388549805,0.2980947494506836,-0.39658260345458984,0.7670526504516602,0.4067668914794922
485,611818752.0,5.833649635314941,-12.81535530090332,3.258607864379883,-0.15766334533691406,-0.37817955017089844,-5.9134626388549805,0.2980947494506836,-0.39658260345458984,0.7670526504516602,0.4067668914794922
486,611818752.0,4.838829040527344,-11.142953872680664,3.331632614135742,-0.15766334533691406,-0.37817955017089844,-5.9134626388549805,0.2980947494506836,-0.39658260345458984,0.7670526504516602,0.4067668914794922
487,611818752.0,5.590630531311035,-12.98534870147705,3.6009883880615234,-0.15766334533691406,-0.37817955017089844,-5.9134626388549805,0.2980947494506836,-0.39658260345458984,0.7670526504516602,0.4067668914794922
488,611818752.0,5.833649635314941,-12.81535530090332,3.258607864379883,-0.15766334533691406,-0.37817955017089844,-5.9134626388549805,0.2980947494506836,-0.39658260345458984,0.7670526504516602,0.4067668914794922
489,611818752.0,4.838829040527344,-11.142953872680664,3.331632614135742,-0.15766334533691406,-0.37817955017089844,-5.9134626388549805,0.2980947494506836,-0.39658260345458984,0.7670526504516602,0.4067668914794922
490,611818816.0,4.526375770568848,-9.52562141418457,2.935379981994629,-0.15766334533691406,-0.37817955017089844,-5.9134626388549805,0.2980947494506836,-0.39658260345458984,0.7670526504516602,0.4067668914794922
491,611818816.0,4.897488594055176,-9.57470417022705,2.3080806732177734,-0.15766334533691406,-0.37817955017089844,-5.9134626388549805,0.2980947494506836,-0.39658260345458984,0.7670526504516602,0.4067668914794922
492,611818816.0,5.385920524597168,-9.493298530578613,3.5339488983154297,-0.15766334533691406,-0.37817955017089844,-5.9134626388549805,0.2980947494506836,-0.39658260345458984,0.7670526504516602,0.4067668914794922
493,611818816.0,4.751438140869141,-9.292180061340332,2.5415220260620117,-0.15766334533691406,-0.37817955017089844,-5.9134626388549805,0.2980947494506836,-0.39658260345458984,0.7670526504516602,0.4067668914794922
494,611818816.0,5.010019302368164,-9.563929557800293,2.727078437805176,-0.15766334533691406,-0.37817955017089844,-5.9134626388549805,0.2980947494506836,-0.39658260345458984,0.7670526504516602,0.4067668914794922
495,611818816.0,5.970123291015625,-9.768640518188477,4.334834098815918,-0.15766334533691406,-0.37817955017089844,-5.9134626388549805,0.2980947494506836,-0.39658260345458984,0.7670526504516602,0.4067668914794922
496,611818816.0,4.526375770568848,-9.52562141418457,2.935379981994629,-0.15766334533691406,-0.37817955017089844,-5.9134626388549805,0.2980947494506836,-0.39658260345458984,0.7670526504516602,0.4067668914794922
497,611818816.0,4.897488594055176,-9.57470417022705,2.3080806732177734,-0.15766334533691406,-0.37817955017089844,-5.9134626388549805,0.2980947494506836,-0.39658260345458984,0.7670526504516602,0.4067668914794922
498,611818816.0,5.385920524597168,-9.493298530578613,3.5339488983154297,-0.15766334533691406,-0.37817955017089844,-5.9134626388549805,0.2980947494506836,-0.39658260345458984,0.7670526504516602,0.4067668914794922
499,611818816.0,4.751438140869141,-9.292180061340332,2.5415220260620117,-0.15766334533691406,-0.37817955017089844,-5.9134626388549805,0.2980947494506836,-0.39658260345458984,0.7670526504516602,0.4067668914794922
500,611818816.0,5.010019302368164,-9.563929557800293,2.727078437805176,-0.15766334533691406,-0.37817955017089844,-5.9134626388549805,0.2980947494506836,-0.39658260345458984,0.7670526504516602,0.4067668914794922
501,611818816.0,5.970123291015625,-9.768640518188477,4.334834098815918,-0.15766334533691406,-0.37817955017089844,-5.9134626388549805,0.2980947494506836,-0.39658260345458984,0.7670526504516602,0.4067668914794922
502,611819072.0,7.7586469650268555,-6.182016372680664,6.908679008483887,-1.368906021118164,-0.12570476531982422,-1.2389402389526367,-0.3469076156616211,0.6309747695922852,0.48630809783935547,0.495025634765625
503,611819072.0,8.934235572814941,-5.383525848388672,6.739882469177246,-1.368906021118164,-0.12570476531982422,-1.2389402389526367,-0.3469076156616211,0.6309747695922852,0.48630809783935547,0.495025634765625
504,611819072.0,9.337671279907227,-4.769394874572754,6.3352508544921875,-1.368906021118164,-0.12570476531982422,-1.2389402389526367,-0.3469076156616211,0.6309747695922852,0.48630809783935547,0.495025634765625
505,611819072.0,8.934235572814941,-5.383525848388672,6.739882469177246,-1.368906021118164,-0.12570476531982422,-1.2389402389526367,-0.3469076156616211,0.6309747695922852,0.48630809783935547,0.495025634765625
506,611819072.0,9.337671279907227,-4.769394874572754,6.3352508544921875,-1.368906021118164,-0.12570476531982422,-1.2389402389526367,-0.3469076156616211,0.6309747695922852,0.48630809783935547,0.495025634765625
507,611819136.0,8.772622108459473,-3.551905632019043,5.929420471191406,-1.368906021118164,-0.12570476531982422,-1.2389402389526367,-0.35303592681884766,0.6147041320800781,0.5081892013549805,0.48906993865966797
508,611819136.0,8.772622108459473,-3.551905632019043,5.929420471191406,-1.368906021118164,-0.12570476531982422,-1.2389402389526367,-0.35303592681884766,0.6147041320800781,0.5081892013549805,0.48906993865966797
509,611819136.0,8.730722427368164,-2.310474395751953,5.612179756164551,-1.368906021118164,-0.12570476531982422,-1.2389402389526367,-0.35303592681884766,0.6147041320800781,0.5081892013549805,0.48906993865966797
510,611819456.0,9.109017372131348,-1.4030447006225586,2.351177215576172,0.30893516540527344,-0.15446758270263672,0.2897605895996094,-0.35303592681884766,0.6147041320800781,0.5081892013549805,0.48906993865966797
511,611819456.0,9.086272239685059,-1.3312158584594727,2.522367477416992,0.30893516540527344,-0.15446758270263672,0.2897605895996094,-0.35303592681884766,0.6147041320800781,0.5081892013549805,0.48906993865966797
512,611819456.0,9.109017372131348,-1.4030447006225586,2.351177215576172,0.30893516540527344,-0.15446758270263672,0.2897605895996094,-0.35303592681884766,0.6147041320800781,0.5081892013549805,0.48906993865966797
513,611819456.0,9.086272239685059,-1.3312158584594727,2.522367477416992,0.30893516540527344,-0.15446758270263672,0.2897605895996094,-0.35303592681884766,0.6147041320800781,0.5081892013549805,0.48906993865966797
514,611819520.0,8.979726791381836,-1.3000907897949219,2.7677812576293945,0.4900360107421875,-0.21199321746826172,0.15766334533691406,-0.35303592681884766,0.6147041320800781,0.5081892013549805,0.48906993865966797
515,611819520.0,8.883955955505371,-1.4820556640625,3.03115177154541,0.4900360107421875,-0.21199321746826172,0.15766334533691406,-0.35303592681884766,0.6147041320800781,0.5081892013549805,0.48906993865966797
516,611819520.0,8.928250312805176,-1.5215606689453125,2.9832658767700195,0.4900360107421875,-0.21199321746826172,0.15766334533691406,-0.35303592681884766,0.6147041320800781,0.5081892013549805,0.48906993865966797
517,611819520.0,8.979726791381836,-1.3000907897949219,2.7677812576293945,0.4900360107421875,-0.21199321746826172,0.15766334533691406,-0.35303592681884766,0.6147041320800781,0.5081892013549805,0.48906993865966797
518,611819520.0,8.883955955505371,-1.4820556640625,3.03115177154541,0.4900360107421875,-0.21199321746826172,0.15766334533691406,-0.35303592681884766,0.6147041320800781,0.5081892013549805,0.48906993865966797
519,611819520.0,8.928250312805176,-1.5215606689453125,2.9832658767700195,0.4900360107421875,-0.21199321746826172,0.15766334533691406,-0.35303592681884766,0.6147041320800781,0.5081892013549805,0.48906993865966797
520,611819584.0,8.880364418029785,-1.4150161743164062,3.2669878005981445,0.4900360107421875,-0.21199321746826172,0.15766334533691406,-0.35303592681884766,0.6147041320800781,0.5081892013549805,0.48906993865966797
521,611819584.0,8.810930252075195,-1.6101493835449219,3.456134796142578,0.4900360107421875,-0.21199321746826172,0.15766334533691406,-0.35303592681884766,0.6147041320800781,0.5081892013549805,0.48906993865966797
522,611819584.0,8.946207046508789,-1.5945863723754883,3.6033830642700195,0.4900360107421875,-0.21199321746826172,0.15766334533691406,-0.35303592681884766,0.6147041320800781,0.5081892013549805,0.48906993865966797
523,611819648.0,9.152114868164062,-1.4808588027954102,3.7314767837524414,0.4900360107421875,-0.21199321746826172,0.15766334533691406,-0.35303592681884766,0.6147041320800781,0.5081892013549805,0.48906993865966797
524,611819648.0,9.179648399353027,-1.540715217590332,3.84161376953125,0.4900360107421875,-0.21199321746826172,0.15766334533691406,-0.35303592681884766,0.6147041320800781,0.5081892013549805,0.48906993865966797
525,611819648.0,9.16767692565918,-1.8735198974609375,3.810487747192383,0.4900360107421875,-0.21199321746826172,0.15766334533691406,-0.35303592681884766,0.6147041320800781,0.5081892013549805,0.48906993865966797
526,611819648.0,9.213168144226074,-2.0171756744384766,3.82485294342041,0.4900360107421875,-0.21199321746826172,0.15766334533691406,-0.35303592681884766,0.6147041320800781,0.5081892013549805,0.48906993865966797
527,611819648.0,9.16767692565918,-1.8735198974609375,3.810487747192383,0.4900360107421875,-0.21199321746826172,0.15766334533691406,-0.35303592681884766,0.6147041320800781,0.5081892013549805,0.48906993865966797
528,611819648.0,9.213168144226074,-2.0171756744384766,3.82485294342041,0.4900360107421875,-0.21199321746826172,0.15766334533691406,-0.35303592681884766,0.6147041320800781,0.5081892013549805,0.48906993865966797
529,611819712.0,9.228731155395508,-2.139284133911133,3.7566165924072266,0.4900360107421875,-0.21199321746826172,0.15766334533691406,-0.35303592681884766,0.6147041320800781,0.5081892013549805,0.48906993865966797
530,611819712.0,9.124580383300781,-2.2326602935791016,3.646479606628418,0.4900360107421875,-0.21199321746826172,0.15766334533691406,-0.35303592681884766,0.6147041320800781,0.5081892013549805,0.48906993865966797
531,611819712.0,9.057540893554688,-2.2386465072631836,3.718308448791504,0.4900360107421875,-0.21199321746826172,0.15766334533691406,-0.35303592681884766,0.6147041320800781,0.5081892013549805,0.48906993865966797
532,611819712.0,9.228731155395508,-2.139284133911133,3.7566165924072266,0.4900360107421875,-0.21199321746826172,0.15766334533691406,-0.35303592681884766,0.6147041320800781,0.5081892013549805,0.48906993865966797
533,611819712.0,9.124580383300781,-2.2326602935791016,3.646479606628418,0.4900360107421875,-0.21199321746826172,0.15766334533691406,-0.35303592681884766,0.6147041320800781,0.5081892013549805,0.48906993865966797
534,611819712.0,9.057540893554688,-2.2386465072631836,3.718308448791504,0.4900360107421875,-0.21199321746826172,0.15766334533691406,-0.35303592681884766,0.6147041320800781,0.5081892013549805,0.48906993865966797
535,611819968.0,9.027612686157227,-2.3236427307128906,2.9150285720825195,-0.021305084228515625,0.041545867919921875,0.024501800537109375,-0.33693790435791016,0.5706825256347656,0.5489311218261719,0.5093975067138672
536,611819968.0,8.988106727600098,-2.201535224914551,2.901860237121582,-0.021305084228515625,0.041545867919921875,0.024501800537109375,-0.33693790435791016,0.5706825256347656,0.5489311218261719,0.5093975067138672
537,611819968.0,8.991698265075684,-2.2506179809570312,2.748626708984375,-0.021305084228515625,0.041545867919921875,0.024501800537109375,-0.33693790435791016,0.5706825256347656,0.5489311218261719,0.5093975067138672
538,611819968.0,9.027612686157227,-2.3236427307128906,2.9150285720825195,-0.021305084228515625,0.041545867919921875,0.024501800537109375,-0.33693790435791016,0.5706825256347656,0.5489311218261719,0.5093975067138672
539,611819968.0,8.988106727600098,-2.201535224914551,2.901860237121582,-0.021305084228515625,0.041545867919921875,0.024501800537109375,-0.33693790435791016,0.5706825256347656,0.5489311218261719,0.5093975067138672
540,611819968.0,8.991698265075684,-2.2506179809570312,2.748626708984375,-0.021305084228515625,0.041545867919921875,0.024501800537109375,-0.33693790435791016,0.5706825256347656,0.5489311218261719,0.5093975067138672
541,611820032.0,8.939023971557617,-2.1704092025756836,2.8659467697143555,0.0170440673828125,0.0,0.04474163055419922,-0.32714080810546875,0.5706825256347656,0.555145263671875,0.5090093612670898
542,611820032.0,8.979726791381836,-2.256603240966797,2.901860237121582,0.0170440673828125,0.0,0.04474163055419922,-0.32714080810546875,0.5706825256347656,0.555145263671875,0.5090093612670898
543,611820032.0,8.939023971557617,-2.1704092025756836,2.8659467697143555,0.0170440673828125,0.0,0.04474163055419922,-0.32714080810546875,0.5706825256347656,0.555145263671875,0.5090093612670898
544,611820032.0,8.979726791381836,-2.256603240966797,2.901860237121582,0.0170440673828125,0.0,0.04474163055419922,-0.32714080810546875,0.5706825256347656,0.555145263671875,0.5090093612670898
545,611820032.0,9.016838073730469,-2.1105527877807617,2.836017608642578,0.0170440673828125,0.0,0.04474163055419922,-0.32714080810546875,0.5706825256347656,0.555145263671875,0.5090093612670898
546,611820096.0,9.021626472473145,-2.123721122741699,2.8623552322387695,-0.0063915252685546875,-0.024501800537109375,0.04793834686279297,-0.32459449768066406,0.569732666015625,0.5572175979614258,0.5093975067138672
547,611820096.0,8.909095764160156,-2.158437728881836,2.8839035034179688,-0.0063915252685546875,-0.024501800537109375,0.04793834686279297,-0.32459449768066406,0.569732666015625,0.5572175979614258,0.5093975067138672
548,611820096.0,8.862407684326172,-2.1811838150024414,2.906648635864258,-0.0063915252685546875,-0.024501800537109375,0.04793834686279297,-0.32459449768066406,0.569732666015625,0.5572175979614258,0.5093975067138672
549,611820160.0,8.97374153137207,-2.1404809951782227,2.964111328125,0.04793834686279297,-0.054329872131347656,0.042611122131347656,-0.3242063522338867,0.5692586898803711,0.5579509735107422,0.5094404220581055
550,611820224.0,9.073103904724121,-2.0794267654418945,3.1760053634643555,0.04793834686279297,-0.054329872131347656,0.042611122131347656,-0.3242063522338867,0.5692586898803711,0.5579509735107422,0.5094404220581055
551,611820224.0,9.073103904724121,-2.0794267654418945,3.1760053634643555,0.04793834686279297,-0.054329872131347656,0.042611122131347656,-0.3242063522338867,0.5692586898803711,0.5579509735107422,0.5094404220581055
552,611820288.0,9.055146217346191,-2.0818214416503906,3.2358617782592773,0.04793834686279297,-0.054329872131347656,0.042611122131347656,-0.3242063522338867,0.5692586898803711,0.5579509735107422,0.5094404220581055
553,611820288.0,9.027612686157227,-2.0937929153442383,3.2274818420410156,0.04793834686279297,-0.054329872131347656,0.042611122131347656,-0.3242063522338867,0.5692586898803711,0.5579509735107422,0.5094404220581055
554,611820288.0,9.012049674987793,-2.1105527877807617,3.237058639526367,0.04793834686279297,-0.054329872131347656,0.042611122131347656,-0.3242063522338867,0.5692586898803711,0.5579509735107422,0.5094404220581055
555,611820288.0,9.055146217346191,-2.0818214416503906,3.2358617782592773,0.04793834686279297,-0.054329872131347656,0.042611122131347656,-0.3242063522338867,0.5692586898803711,0.5579509735107422,0.5094404220581055
556,611820288.0,9.027612686157227,-2.0937929153442383,3.2274818420410156,0.04793834686279297,-0.054329872131347656,0.042611122131347656,-0.3242063522338867,0.5692586898803711,0.5579509735107422,0.5094404220581055
557,611820288.0,9.012049674987793,-2.1105527877807617,3.237058639526367,0.04793834686279297,-0.054329872131347656,0.042611122131347656,-0.3242063522338867,0.5692586898803711,0.5579509735107422,0.5094404220581055
558,611820352.0,9.103032112121582,-2.1177358627319336,3.210721969604492,0.10865974426269531,-0.033023834228515625,0.042611122131347656,-0.3252420425415039,0.5630865097045898,0.5680932998657227,0.5043478012084961
559,611820352.0,9.103032112121582,-2.1177358627319336,3.210721969604492,0.10865974426269531,-0.033023834228515625,0.042611122131347656,-0.3252420425415039,0.5630865097045898,0.5680932998657227,0.5043478012084961
560,611820352.0,9.088665962219238,-2.1225242614746094,3.2131166458129883,0.10865974426269531,-0.033023834228515625,0.042611122131347656,-0.3252420425415039,0.5630865097045898,0.5680932998657227,0.5043478012084961
561,611820352.0,9.04556941986084,-2.139284133911133,3.1879758834838867,0.10865974426269531,-0.033023834228515625,0.042611122131347656,-0.3252420425415039,0.5630865097045898,0.5680932998657227,0.5043478012084961
562,611820416.0,9.056344032287598,-2.193155288696289,3.1688222885131836,0.13955307006835938,-0.025567054748535156,0.04900360107421875,-0.3260183334350586,0.5610151290893555,0.5718050003051758,0.5020179748535156
563,611820416.0,9.028809547424316,-2.128509521484375,3.246636390686035,0.13955307006835938,-0.025567054748535156,0.04900360107421875,-0.3260183334350586,0.5610151290893555,0.5718050003051758,0.5020179748535156
564,611820416.0,9.130566596984863,-2.096186637878418,3.1293163299560547,0.13955307006835938,-0.025567054748535156,0.04900360107421875,-0.3260183334350586,0.5610151290893555,0.5718050003051758,0.5020179748535156
565,611820480.0,9.067117691040039,-2.0231618881225586,3.0993881225585938,0.13955307006835938,-0.025567054748535156,0.04900360107421875,-0.3260183334350586,0.5610151290893555,0.5718050003051758,0.5020179748535156
566,611820480.0,9.007261276245117,-2.175198554992676,3.1041765213012695,0.13955307006835938,-0.025567054748535156,0.04900360107421875,-0.3260183334350586,0.5610151290893555,0.5718050003051758,0.5020179748535156
567,611820480.0,9.021626472473145,-2.159635543823242,3.1053733825683594,0.13955307006835938,-0.025567054748535156,0.04900360107421875,-0.3260183334350586,0.5610151290893555,0.5718050003051758,0.5020179748535156
568,611820544.0,9.018034934997559,-2.1177358627319336,3.029953956604004,0.05965614318847656,0.0021305084228515625,0.030893325805664062,-0.3260183334350586,0.5610151290893555,0.5718050003051758,0.5020179748535156
569,611820544.0,8.966558456420898,-2.1560440063476562,3.0443201065063477,0.05965614318847656,0.0021305084228515625,0.030893325805664062,-0.3260183334350586,0.5610151290893555,0.5718050003051758,0.5020179748535156
570,611820672.0,9.002472877502441,-2.106961250305176,3.058685302734375,0.025567054748535156,-0.00852203369140625,0.0,-0.3260183334350586,0.5610151290893555,0.5718050003051758,0.5020179748535156
