,timestamp,accel_x,accel_y,accel_z,gyro_x,gyro_y,gyro_z,ori_scalar,ori_x,ori_y,ori_z
0,612572800.0,8.706779479980469,-0.6680021286010742,4.3444108963012695,-0.13529205322265625,-0.2141246795654297,0.33769893646240234,-0.42502403259277344,0.49537086486816406,0.6641206741333008,0.3645153045654297
1,612572800.0,9.04437255859375,-0.7039165496826172,4.290539741516113,-0.13529205322265625,-0.2141246795654297,0.33769893646240234,-0.42502403259277344,0.49537086486816406,0.6641206741333008,0.3645153045654297
2,612572800.0,9.59625244140625,-0.7063102722167969,4.094209671020508,-0.13529205322265625,-0.2141246795654297,0.33769893646240234,-0.42502403259277344,0.49537086486816406,0.6641206741333008,0.3645153045654297
3,612572864.0,9.504073143005371,-0.4178009033203125,3.9481582641601562,-0.17470836639404297,-0.08841896057128906,0.4048128128051758,-0.42502403259277344,0.49537086486816406,0.6641206741333008,0.3645153045654297
4,612572928.0,9.484918594360352,-0.897852897644043,3.1041765213012695,-0.6274595260620117,0.1661853790283203,0.4367713928222656,-0.41794586181640625,0.49265193939208984,0.666752815246582,0.3715934753417969
5,612572992.0,9.97813892364502,-0.9912290573120117,3.1712160110473633,-0.7339887619018555,0.2013406753540039,0.41866111755371094,-0.41794586181640625,0.49265193939208984,0.666752815246582,0.3715934753417969
6,612572992.0,10.310943603515625,-0.74102783203125,2.783344268798828,-0.7339887619018555,0.2013406753540039,0.41866111755371094,-0.41794586181640625,0.49265193939208984,0.666752815246582,0.3715934753417969
7,612572992.0,9.95419692993164,-0.8858814239501953,2.339205741882324,-0.7339887619018555,0.2013406753540039,0.41866111755371094,-0.41794586181640625,0.49265193939208984,0.666752815246582,0.3715934753417969
8,612573056.0,9.566324234008789,-1.0427064895629883,2.654052734375,-0.8682165145874023,0.18642616271972656,0.3568744659423828,-0.41794586181640625,0.49265193939208984,0.666752815246582,0.3715934753417969
9,612573248.0,8.770227432250977,-2.3918800354003906,3.368743896484375,0.04367637634277344,-0.15233707427978516,-0.009587287902832031,-0.3422889709472656,0.5064630508422852,0.6523380279541016,0.4480266571044922
10,612573248.0,8.956981658935547,-2.3451919555664062,3.495640754699707,0.04367637634277344,-0.15233707427978516,-0.009587287902832031,-0.3422889709472656,0.5064630508422852,0.6523380279541016,0.4480266571044922
11,612573312.0,8.90670108795166,-2.401456832885742,3.557891845703125,0.26312828063964844,-0.17044734954833984,-0.11824703216552734,-0.3422889709472656,0.5064630508422852,0.6523380279541016,0.4480266571044922
12,612573312.0,8.923460960388184,-2.286531448364258,3.5973968505859375,0.26312828063964844,-0.17044734954833984,-0.11824703216552734,-0.3422889709472656,0.5064630508422852,0.6523380279541016,0.4480266571044922
13,612573312.0,8.940220832824707,-2.382303237915039,3.4190235137939453,0.26312828063964844,-0.17044734954833984,-0.11824703216552734,-0.3422889709472656,0.5064630508422852,0.6523380279541016,0.4480266571044922
14,612573440.0,9.276617050170898,-2.2721662521362305,3.5171890258789062,-0.05646038055419922,-0.053264617919921875,-0.08948421478271484,-0.3629627227783203,0.49998950958251953,0.6500940322875977,0.44228649139404297
15,612573504.0,9.226337432861328,-2.2506179809570312,3.4800777435302734,-0.23329925537109375,0.01597881317138672,-0.061786651611328125,-0.3629627227783203,0.49998950958251953,0.6500940322875977,0.44228649139404297
16,612573504.0,9.153311729431152,-2.3008975982666016,3.367547035217285,-0.23329925537109375,0.01597881317138672,-0.061786651611328125,-0.3629627227783203,0.49998950958251953,0.6500940322875977,0.44228649139404297
17,612573504.0,8.946207046508789,-2.3583602905273438,3.3196611404418945,-0.23329925537109375,0.01597881317138672,-0.061786651611328125,-0.3629627227783203,0.49998950958251953,0.6500940322875977,0.44228649139404297
18,612573504.0,8.746285438537598,-2.3942737579345703,3.284944534301758,-0.23329925537109375,0.01597881317138672,-0.061786651611328125,-0.3629627227783203,0.49998950958251953,0.6500940322875977,0.44228649139404297
19,612574144.0,8.959375381469727,-2.1165380477905273,3.0179824829101562,0.1779041290283203,0.12037849426269531,0.24608325958251953,-0.35830116271972656,0.49942779541015625,0.6484107971191406,0.44910526275634766
20,612574144.0,8.998881340026855,-2.071046829223633,3.037137031555176,0.1779041290283203,0.12037849426269531,0.24608325958251953,-0.35830116271972656,0.49942779541015625,0.6484107971191406,0.44910526275634766
21,612574208.0,9.038386344909668,-2.098581314086914,3.027560234069824,0.1779041290283203,0.12037849426269531,0.24608325958251953,-0.35830116271972656,0.49942779541015625,0.6484107971191406,0.44910526275634766
22,612574208.0,9.079089164733887,-2.1105527877807617,3.1113595962524414,0.1779041290283203,0.12037849426269531,0.24608325958251953,-0.35830116271972656,0.49942779541015625,0.6484107971191406,0.44910526275634766
23,612574208.0,9.1437349319458,-2.124917984008789,3.208327293395996,0.1779041290283203,0.12037849426269531,0.24608325958251953,-0.35830116271972656,0.49942779541015625,0.6484107971191406,0.44910526275634766
24,612574272.0,9.089863777160645,-2.096186637878418,3.174807548522949,-0.2066669464111328,-0.0063915252685546875,-0.02982807159423828,-0.36158084869384766,0.4987373352050781,0.6439218521118164,0.4537668228149414
25,612574464.0,9.061132431030273,-2.281743049621582,3.0730514526367188,-0.08309268951416016,-0.023435592651367188,-0.03515434265136719,-0.36158084869384766,0.4987373352050781,0.6439218521118164,0.4537668228149414
26,612574528.0,9.067117691040039,-2.2422380447387695,3.0383338928222656,-0.08309268951416016,-0.023435592651367188,-0.03515434265136719,-0.36158084869384766,0.4987373352050781,0.6439218521118164,0.4537668228149414
27,612574528.0,9.087469100952148,-2.1823806762695312,3.026362419128418,-0.08309268951416016,-0.023435592651367188,-0.03515434265136719,-0.36158084869384766,0.4987373352050781,0.6439218521118164,0.4537668228149414
28,612574656.0,9.073103904724121,-2.260194778442383,2.998828887939453,-0.08309268951416016,-0.023435592651367188,-0.03515434265136719,-0.3579559326171875,0.5018014907836914,0.6378374099731445,0.4617938995361328
29,612574720.0,9.086272239685059,-2.2901229858398438,2.989251136779785,-0.08309268951416016,-0.023435592651367188,-0.03515434265136719,-0.3579559326171875,0.5018014907836914,0.6378374099731445,0.4617938995361328
30,612574720.0,9.058737754821777,-2.244631767272949,2.998828887939453,-0.08309268951416016,-0.023435592651367188,-0.03515434265136719,-0.3579559326171875,0.5018014907836914,0.6378374099731445,0.4617938995361328
31,612574720.0,9.038386344909668,-2.2434349060058594,3.0131940841674805,-0.08309268951416016,-0.023435592651367188,-0.03515434265136719,-0.3579559326171875,0.5018014907836914,0.6378374099731445,0.4617938995361328
32,612574720.0,9.015641212463379,-2.2745609283447266,2.9880542755126953,-0.08309268951416016,-0.023435592651367188,-0.03515434265136719,-0.3579559326171875,0.5018014907836914,0.6378374099731445,0.4617938995361328
33,612574976.0,9.010852813720703,-2.2374496459960938,3.113753318786621,-0.08309268951416016,-0.023435592651367188,-0.03515434265136719,-0.3579559326171875,0.5018014907836914,0.6378374099731445,0.4617938995361328
34,612574976.0,8.952192306518555,-2.226675033569336,3.113753318786621,-0.08309268951416016,-0.023435592651367188,-0.03515434265136719,-0.3579559326171875,0.5018014907836914,0.6378374099731445,0.4617938995361328
35,612574976.0,9.020429611206055,-2.229069709777832,3.0562915802001953,-0.08309268951416016,-0.023435592651367188,-0.03515434265136719,-0.3579559326171875,0.5018014907836914,0.6378374099731445,0.4617938995361328
36,612575040.0,9.04437255859375,-2.2386465072631836,3.0562915802001953,0.0287628173828125,0.0,0.005326271057128906,-0.3579559326171875,0.5018014907836914,0.6378374099731445,0.4617938995361328
37,612575040.0,8.983318328857422,-2.230266571044922,3.1412878036499023,0.0287628173828125,0.0,0.005326271057128906,-0.3579559326171875,0.5018014907836914,0.6378374099731445,0.4617938995361328
38,612575040.0,9.001275062561035,-2.2458295822143555,3.0778398513793945,0.0287628173828125,0.0,0.005326271057128906,-0.3579559326171875,0.5018014907836914,0.6378374099731445,0.4617938995361328
39,612575040.0,9.001275062561035,-2.2458295822143555,3.0778398513793945,0.0287628173828125,0.0,0.005326271057128906,-0.3579559326171875,0.5018014907836914,0.6378374099731445,0.4617938995361328
40,612575104.0,9.074300765991211,-2.2362518310546875,3.028757095336914,0.024501800537109375,0.01810932159423828,0.023435592651367188,-0.3579559326171875,0.5018014907836914,0.6378374099731445,0.4617938995361328
41,612575104.0,9.14612865447998,-2.22188663482666,3.035940170288086,0.024501800537109375,0.01810932159423828,0.023435592651367188,-0.3579559326171875,0.5018014907836914,0.6378374099731445,0.4617938995361328
42,612575104.0,9.14493179321289,-2.185972213745117,3.051502227783203,0.024501800537109375,0.01810932159423828,0.023435592651367188,-0.3579559326171875,0.5018014907836914,0.6378374099731445,0.4617938995361328
43,612575104.0,9.074300765991211,-2.2362518310546875,3.028757095336914,0.024501800537109375,0.01810932159423828,0.023435592651367188,-0.3579559326171875,0.5018014907836914,0.6378374099731445,0.4617938995361328
44,612575104.0,9.14612865447998,-2.22188663482666,3.035940170288086,0.024501800537109375,0.01810932159423828,0.023435592651367188,-0.3579559326171875,0.5018014907836914,0.6378374099731445,0.4617938995361328
45,612575104.0,9.14493179321289,-2.185972213745117,3.051502227783203,0.024501800537109375,0.01810932159423828,0.023435592651367188,-0.3579559326171875,0.5018014907836914,0.6378374099731445,0.4617938995361328
46,612575168.0,9.09584903717041,-2.2027320861816406,3.025165557861328,0.009587287902832031,0.025567054748535156,0.02982807159423828,-0.3579559326171875,0.5018014907836914,0.6378374099731445,0.4617938995361328
47,612575168.0,9.09584903717041,-2.2027320861816406,3.025165557861328,0.009587287902832031,0.025567054748535156,0.02982807159423828,-0.3579559326171875,0.5018014907836914,0.6378374099731445,0.4617938995361328
48,612575168.0,9.058737754821777,-2.1823806762695312,2.9904489517211914,0.009587287902832031,0.025567054748535156,0.02982807159423828,-0.3579559326171875,0.5018014907836914,0.6378374099731445,0.4617938995361328
49,612575168.0,9.027612686157227,-2.1728038787841797,2.9880542755126953,0.009587287902832031,0.025567054748535156,0.02982807159423828,-0.3579559326171875,0.5018014907836914,0.6378374099731445,0.4617938995361328
50,612575168.0,9.058737754821777,-2.1823806762695312,2.9904489517211914,0.009587287902832031,0.025567054748535156,0.02982807159423828,-0.3579559326171875,0.5018014907836914,0.6378374099731445,0.4617938995361328
51,612575168.0,9.027612686157227,-2.1728038787841797,2.9880542755126953,0.009587287902832031,0.025567054748535156,0.02982807159423828,-0.3579559326171875,0.5018014907836914,0.6378374099731445,0.4617938995361328
52,612575168.0,9.058737754821777,-2.1823806762695312,2.9904489517211914,0.009587287902832031,0.025567054748535156,0.02982807159423828,-0.3579559326171875,0.5018014907836914,0.6378374099731445,0.4617938995361328
53,612575168.0,9.027612686157227,-2.1728038787841797,2.9880542755126953,0.009587287902832031,0.025567054748535156,0.02982807159423828,-0.3579559326171875,0.5018014907836914,0.6378374099731445,0.4617938995361328
54,612575232.0,9.039584159851074,-2.200338363647461,3.003617286682129,-0.0063915252685546875,0.026632308959960938,0.04367637634277344,-0.3579559326171875,0.5018014907836914,0.6378374099731445,0.4617938995361328
55,612575232.0,9.055146217346191,-2.157240867614746,3.0203771591186523,-0.0063915252685546875,0.026632308959960938,0.04367637634277344,-0.3579559326171875,0.5018014907836914,0.6378374099731445,0.4617938995361328
56,612575232.0,9.039584159851074,-2.200338363647461,3.003617286682129,-0.0063915252685546875,0.026632308959960938,0.04367637634277344,-0.3579559326171875,0.5018014907836914,0.6378374099731445,0.4617938995361328
57,612575232.0,9.055146217346191,-2.157240867614746,3.0203771591186523,-0.0063915252685546875,0.026632308959960938,0.04367637634277344,-0.3579559326171875,0.5018014907836914,0.6378374099731445,0.4617938995361328
58,612575232.0,9.039584159851074,-2.200338363647461,3.003617286682129,-0.0063915252685546875,0.026632308959960938,0.04367637634277344,-0.3579559326171875,0.5018014907836914,0.6378374099731445,0.4617938995361328
59,612575232.0,9.055146217346191,-2.157240867614746,3.0203771591186523,-0.0063915252685546875,0.026632308959960938,0.04367637634277344,-0.3579559326171875,0.5018014907836914,0.6378374099731445,0.4617938995361328
60,612575232.0,9.003669738769531,-2.160832405090332,2.998828887939453,-0.0063915252685546875,0.026632308959960938,0.04367637634277344,-0.3579559326171875,0.5018014907836914,0.6378374099731445,0.4617938995361328
61,612575296.0,9.070709228515625,-2.1524524688720703,2.9724912643432617,0.01597881317138672,0.010652542114257812,0.01810932159423828,-0.3579559326171875,0.5018014907836914,0.6378374099731445,0.4617938995361328
62,612575296.0,9.0754976272583,-2.1775922775268555,2.96291446685791,0.01597881317138672,0.010652542114257812,0.01810932159423828,-0.3579559326171875,0.5018014907836914,0.6378374099731445,0.4617938995361328
63,612575296.0,9.100637435913086,-2.187169075012207,2.9880542755126953,0.01597881317138672,0.010652542114257812,0.01810932159423828,-0.3579559326171875,0.5018014907836914,0.6378374099731445,0.4617938995361328
64,612575296.0,9.083877563476562,-2.1704092025756836,3.003617286682129,0.01597881317138672,0.010652542114257812,0.01810932159423828,-0.3579559326171875,0.5018014907836914,0.6378374099731445,0.4617938995361328
65,612575360.0,9.039584159851074,-2.1704092025756836,2.997631072998047,0.023435592651367188,0.0063915252685546875,0.012783050537109375,-0.3579559326171875,0.5018014907836914,0.6378374099731445,0.4617938995361328
66,612575488.0,8.985712051391602,-2.254209518432617,2.9653091430664062,0.023435592651367188,0.0063915252685546875,0.012783050537109375,-0.3579559326171875,0.5018014907836914,0.6378374099731445,0.4617938995361328
67,612575488.0,9.007261276245117,-2.249420166015625,2.9772796630859375,0.023435592651367188,0.0063915252685546875,0.012783050537109375,-0.3579559326171875,0.5018014907836914,0.6378374099731445,0.4617938995361328
68,612575488.0,9.04437255859375,-2.2099151611328125,2.992842674255371,0.023435592651367188,0.0063915252685546875,0.012783050537109375,-0.3579559326171875,0.5018014907836914,0.6378374099731445,0.4617938995361328
69,612575488.0,8.985712051391602,-2.254209518432617,2.9653091430664062,0.023435592651367188,0.0063915252685546875,0.012783050537109375,-0.3579559326171875,0.5018014907836914,0.6378374099731445,0.4617938995361328
70,612575488.0,9.007261276245117,-2.249420166015625,2.9772796630859375,0.023435592651367188,0.0063915252685546875,0.012783050537109375,-0.3579559326171875,0.5018014907836914,0.6378374099731445,0.4617938995361328
71,612575488.0,9.04437255859375,-2.2099151611328125,2.992842674255371,0.023435592651367188,0.0063915252685546875,0.012783050537109375,-0.3579559326171875,0.5018014907836914,0.6378374099731445,0.4617938995361328
72,612575552.0,9.014443397521973,-2.2314634323120117,2.944957733154297,0.023435592651367188,0.0063915252685546875,0.012783050537109375,-0.3579559326171875,0.5018014907836914,0.6378374099731445,0.4617938995361328
73,612575552.0,9.007261276245117,-2.2709693908691406,2.970097541809082,0.023435592651367188,0.0063915252685546875,0.012783050537109375,-0.3579559326171875,0.5018014907836914,0.6378374099731445,0.4617938995361328
74,612575552.0,9.014443397521973,-2.2314634323120117,2.944957733154297,0.023435592651367188,0.0063915252685546875,0.012783050537109375,-0.3579559326171875,0.5018014907836914,0.6378374099731445,0.4617938995361328
75,612575552.0,9.007261276245117,-2.2709693908691406,2.970097541809082,0.023435592651367188,0.0063915252685546875,0.012783050537109375,-0.3579559326171875,0.5018014907836914,0.6378374099731445,0.4617938995361328
76,612575552.0,9.009654998779297,-2.310474395751953,2.9772796630859375,0.023435592651367188,0.0063915252685546875,0.012783050537109375,-0.3579559326171875,0.5018014907836914,0.6378374099731445,0.4617938995361328
77,612575616.0,9.050357818603516,-2.34279727935791,2.9210147857666016,0.023435592651367188,0.0063915252685546875,0.012783050537109375,-0.3579559326171875,0.5018014907836914,0.6378374099731445,0.4617938995361328
78,612575616.0,9.074300765991211,-2.3080806732177734,2.9653091430664062,0.023435592651367188,0.0063915252685546875,0.012783050537109375,-0.3579559326171875,0.5018014907836914,0.6378374099731445,0.4617938995361328
79,612575616.0,9.04437255859375,-2.2350549697875977,2.995237350463867,0.023435592651367188,0.0063915252685546875,0.012783050537109375,-0.3579559326171875,0.5018014907836914,0.6378374099731445,0.4617938995361328
80,612575616.0,8.99648666381836,-2.187169075012207,3.002420425415039,0.023435592651367188,0.0063915252685546875,0.012783050537109375,-0.3579559326171875,0.5018014907836914,0.6378374099731445,0.4617938995361328
81,612575744.0,9.081483840942383,-2.200338363647461,3.0407285690307617,-0.012783050537109375,-0.03621959686279297,-0.021305084228515625,-0.3642997741699219,0.498046875,0.6393470764160156,0.45872974395751953
82,612575808.0,9.083877563476562,-2.2733631134033203,3.059882164001465,-0.012783050537109375,-0.03621959686279297,-0.021305084228515625,-0.3642997741699219,0.498046875,0.6393470764160156,0.45872974395751953
83,612575808.0,9.067117691040039,-2.244631767272949,3.0203771591186523,-0.012783050537109375,-0.03621959686279297,-0.021305084228515625,-0.3642997741699219,0.498046875,0.6393470764160156,0.45872974395751953
84,612575808.0,9.058737754821777,-2.227871894836426,3.037137031555176,-0.012783050537109375,-0.03621959686279297,-0.021305084228515625,-0.3642997741699219,0.498046875,0.6393470764160156,0.45872974395751953
85,612575872.0,9.07669448852539,-2.2434349060058594,3.03354549407959,-0.011717796325683594,-0.01810932159423828,-0.0031957626342773438,-0.3642997741699219,0.498046875,0.6393470764160156,0.45872974395751953
86,612575872.0,9.06592082977295,-2.2051267623901367,3.0431222915649414,-0.011717796325683594,-0.01810932159423828,-0.0031957626342773438,-0.3642997741699219,0.498046875,0.6393470764160156,0.45872974395751953
87,612575872.0,9.082680702209473,-2.193155288696289,3.0084056854248047,-0.011717796325683594,-0.01810932159423828,-0.0031957626342773438,-0.3642997741699219,0.498046875,0.6393470764160156,0.45872974395751953
88,612575936.0,9.068314552307129,-2.2099151611328125,3.026362419128418,-0.01810932159423828,-0.007456779479980469,0.013848304748535156,-0.3659830093383789,0.49821949005126953,0.6373624801635742,0.45998096466064453
89,612575936.0,9.085075378417969,-2.251814842224121,3.000025749206543,-0.01810932159423828,-0.007456779479980469,0.013848304748535156,-0.3659830093383789,0.49821949005126953,0.6373624801635742,0.45998096466064453
90,612575936.0,9.091060638427734,-2.256603240966797,3.0131940841674805,-0.01810932159423828,-0.007456779479980469,0.013848304748535156,-0.3659830093383789,0.49821949005126953,0.6373624801635742,0.45998096466064453
91,612576064.0,9.086272239685059,-2.17160701751709,2.960519790649414,0.012783050537109375,-0.010652542114257812,0.012783050537109375,-0.3657245635986328,0.4975719451904297,0.6377506256103516,0.4603261947631836
92,612576064.0,9.080286026000977,-2.1476640701293945,2.973689079284668,0.012783050537109375,-0.010652542114257812,0.012783050537109375,-0.3657245635986328,0.4975719451904297,0.6377506256103516,0.4603261947631836
93,612576128.0,9.073103904724121,-2.134495735168457,2.9653091430664062,-0.03515434265136719,0.0,0.0063915252685546875,-0.365509033203125,0.4973134994506836,0.6377506256103516,0.4608011245727539
94,612576128.0,9.035992622375488,-2.1021728515625,3.007208824157715,-0.03515434265136719,0.0,0.0063915252685546875,-0.365509033203125,0.4973134994506836,0.6377506256103516,0.4608011245727539
95,612576128.0,9.074300765991211,-2.1476640701293945,2.971294403076172,-0.03515434265136719,0.0,0.0063915252685546875,-0.365509033203125,0.4973134994506836,0.6377506256103516,0.4608011245727539
96,612576192.0,9.082680702209473,-2.1452693939208984,2.968899726867676,-0.03515434265136719,0.0,0.0063915252685546875,-0.3649473190307617,0.4977445602416992,0.637232780456543,0.4615354537963867
97,612576192.0,9.06592082977295,-2.1955490112304688,2.9724912643432617,-0.03515434265136719,0.0,0.0063915252685546875,-0.3649473190307617,0.4977445602416992,0.637232780456543,0.4615354537963867
98,612576192.0,9.070709228515625,-2.17160701751709,2.9497461318969727,-0.03515434265136719,0.0,0.0063915252685546875,-0.3649473190307617,0.4977445602416992,0.637232780456543,0.4615354537963867
99,612576256.0,9.112608909606934,-2.1835784912109375,2.9653091430664062,-0.019174575805664062,0.0,0.0010652542114257812,-0.3648185729980469,0.4977884292602539,0.6371030807495117,0.46166419982910156
100,612576256.0,9.081483840942383,-2.1692123413085938,2.944957733154297,-0.019174575805664062,0.0,0.0010652542114257812,-0.3648185729980469,0.4977884292602539,0.6371030807495117,0.46166419982910156
101,612576256.0,9.057540893554688,-2.1476640701293945,2.967702865600586,-0.019174575805664062,0.0,0.0010652542114257812,-0.3648185729980469,0.4977884292602539,0.6371030807495117,0.46166419982910156
102,612576256.0,9.087469100952148,-2.191958427429199,2.9234085083007812,-0.019174575805664062,0.0,0.0010652542114257812,-0.3648185729980469,0.4977884292602539,0.6371030807495117,0.46166419982910156
103,612576320.0,9.070709228515625,-2.165620803833008,2.941366195678711,-0.023435592651367188,0.0,-0.013848304748535156,-0.3648185729980469,0.4977884292602539,0.6371030807495117,0.46166419982910156
104,612576320.0,9.073103904724121,-2.1476640701293945,2.948549270629883,-0.023435592651367188,0.0,-0.013848304748535156,-0.3648185729980469,0.4977884292602539,0.6371030807495117,0.46166419982910156
105,612576320.0,9.067117691040039,-2.168015480041504,2.9473514556884766,-0.023435592651367188,0.0,-0.013848304748535156,-0.3648185729980469,0.4977884292602539,0.6371030807495117,0.46166419982910156
106,612576384.0,9.051554679870605,-2.1763954162597656,2.932986259460449,-0.057525634765625,0.005326271057128906,-0.021305084228515625,-0.3648185729980469,0.4977884292602539,0.6371030807495117,0.46166419982910156
107,612576384.0,9.080286026000977,-2.1799869537353516,2.96291446685791,-0.057525634765625,0.005326271057128906,-0.021305084228515625,-0.3648185729980469,0.4977884292602539,0.6371030807495117,0.46166419982910156
108,612576384.0,9.077892303466797,-2.1835784912109375,2.966506004333496,-0.057525634765625,0.005326271057128906,-0.021305084228515625,-0.3648185729980469,0.4977884292602539,0.6371030807495117,0.46166419982910156
109,612576448.0,9.061132431030273,-2.2685747146606445,2.8970718383789062,-0.05646038055419922,0.00852203369140625,-0.023435592651367188,-0.3648185729980469,0.4977884292602539,0.6371030807495117,0.46166419982910156
110,612576448.0,9.037189483642578,-2.2422380447387695,2.964111328125,-0.05646038055419922,0.00852203369140625,-0.023435592651367188,-0.3648185729980469,0.4977884292602539,0.6371030807495117,0.46166419982910156
111,612576448.0,9.083877563476562,-2.287729263305664,2.931788444519043,-0.05646038055419922,0.00852203369140625,-0.023435592651367188,-0.3648185729980469,0.4977884292602539,0.6371030807495117,0.46166419982910156
112,612576512.0,9.000078201293945,-2.2422380447387695,2.935379981994629,-0.05646038055419922,0.00852203369140625,-0.023435592651367188,-0.3648185729980469,0.4977884292602539,0.6371030807495117,0.46166419982910156
113,612576512.0,9.109017372131348,-2.2721662521362305,2.874326705932617,-0.05646038055419922,0.00852203369140625,-0.023435592651367188,-0.3648185729980469,0.4977884292602539,0.6371030807495117,0.46166419982910156
114,612576512.0,9.176057815551758,-2.258997917175293,2.874326705932617,-0.05646038055419922,0.00852203369140625,-0.023435592651367188,-0.3648185729980469,0.4977884292602539,0.6371030807495117,0.46166419982910156
115,612576512.0,9.086272239685059,-2.285334587097168,2.8886919021606445,-0.05646038055419922,0.00852203369140625,-0.023435592651367188,-0.3648185729980469,0.4977884292602539,0.6371030807495117,0.46166419982910156
116,612576576.0,9.098243713378906,-2.2649831771850586,2.8874950408935547,0.005326271057128906,-0.0031957626342773438,0.009587287902832031,-0.3648185729980469,0.4977884292602539,0.6371030807495117,0.46166419982910156
117,612576576.0,9.098243713378906,-2.2314634323120117,2.9030580520629883,0.005326271057128906,-0.0031957626342773438,0.009587287902832031,-0.3648185729980469,0.4977884292602539,0.6371030807495117,0.46166419982910156
118,612576576.0,9.052752494812012,-2.2326602935791016,2.938971519470215,0.005326271057128906,-0.0031957626342773438,0.009587287902832031,-0.3648185729980469,0.4977884292602539,0.6371030807495117,0.46166419982910156
119,612576640.0,9.051554679870605,-2.2314634323120117,2.916226387023926,0.009587287902832031,-0.005326271057128906,0.014913558959960938,-0.3648185729980469,0.4977884292602539,0.6371030807495117,0.46166419982910156
120,612576640.0,9.059934616088867,-2.194352149963379,2.906648635864258,0.009587287902832031,-0.005326271057128906,0.014913558959960938,-0.3648185729980469,0.4977884292602539,0.6371030807495117,0.46166419982910156
121,612576640.0,9.04676628112793,-2.194352149963379,2.9138317108154297,0.009587287902832031,-0.005326271057128906,0.014913558959960938,-0.3648185729980469,0.4977884292602539,0.6371030807495117,0.46166419982910156
122,612576704.0,9.047964096069336,-2.2147035598754883,2.909043312072754,0.009587287902832031,-0.005326271057128906,0.014913558959960938,-0.3648185729980469,0.4977884292602539,0.6371030807495117,0.46166419982910156
123,612576704.0,9.069512367248535,-2.2170982360839844,2.927000045776367,0.009587287902832031,-0.005326271057128906,0.014913558959960938,-0.3648185729980469,0.4977884292602539,0.6371030807495117,0.46166419982910156
124,612576704.0,9.105425834655762,-2.1668176651000977,2.909043312072754,0.009587287902832031,-0.005326271057128906,0.014913558959960938,-0.3648185729980469,0.4977884292602539,0.6371030807495117,0.46166419982910156
125,612576768.0,9.056344032287598,-2.1512556076049805,2.8994665145874023,0.01597881317138672,-0.010652542114257812,0.0,-0.3648185729980469,0.4977884292602539,0.6371030807495117,0.46166419982910156
126,612576832.0,9.082680702209473,-2.1692123413085938,2.931788444519043,-0.011717796325683594,-0.004261016845703125,0.00852203369140625,-0.3648185729980469,0.4977884292602539,0.6371030807495117,0.46166419982910156
127,612576832.0,9.082680702209473,-2.1692123413085938,2.931788444519043,-0.011717796325683594,-0.004261016845703125,0.00852203369140625,-0.3648185729980469,0.4977884292602539,0.6371030807495117,0.46166419982910156
128,612576896.0,9.069512367248535,-2.1955490112304688,2.9293947219848633,0.004261016845703125,-0.007456779479980469,0.010652542114257812,-0.3648185729980469,0.4977884292602539,0.6371030807495117,0.46166419982910156
129,612576896.0,9.06472396850586,-2.196746826171875,2.938971519470215,0.004261016845703125,-0.007456779479980469,0.010652542114257812,-0.3648185729980469,0.4977884292602539,0.6371030807495117,0.46166419982910156
130,612576896.0,9.081483840942383,-2.1763954162597656,2.8958749771118164,0.004261016845703125,-0.007456779479980469,0.010652542114257812,-0.3648185729980469,0.4977884292602539,0.6371030807495117,0.46166419982910156
131,612576896.0,9.069512367248535,-2.1955490112304688,2.9293947219848633,0.004261016845703125,-0.007456779479980469,0.010652542114257812,-0.3648185729980469,0.4977884292602539,0.6371030807495117,0.46166419982910156
132,612576896.0,9.06472396850586,-2.196746826171875,2.938971519470215,0.004261016845703125,-0.007456779479980469,0.010652542114257812,-0.3648185729980469,0.4977884292602539,0.6371030807495117,0.46166419982910156
133,612576896.0,9.081483840942383,-2.1763954162597656,2.8958749771118164,0.004261016845703125,-0.007456779479980469,0.010652542114257812,-0.3648185729980469,0.4977884292602539,0.6371030807495117,0.46166419982910156
134,612576960.0,9.118595123291016,-2.158437728881836,2.909043312072754,0.012783050537109375,-0.010652542114257812,0.007456779479980469,-0.3648185729980469,0.4977884292602539,0.6371030807495117,0.46166419982910156
135,612576960.0,9.118595123291016,-2.158437728881836,2.909043312072754,0.012783050537109375,-0.010652542114257812,0.007456779479980469,-0.3648185729980469,0.4977884292602539,0.6371030807495117,0.46166419982910156
136,612576960.0,9.086272239685059,-2.1428756713867188,2.9246063232421875,0.012783050537109375,-0.010652542114257812,0.007456779479980469,-0.3648185729980469,0.4977884292602539,0.6371030807495117,0.46166419982910156
137,612576960.0,9.103032112121582,-2.130904197692871,2.9210147857666016,0.012783050537109375,-0.010652542114257812,0.007456779479980469,-0.3648185729980469,0.4977884292602539,0.6371030807495117,0.46166419982910156
138,612577024.0,9.082680702209473,-2.159635543823242,2.880311965942383,0.012783050537109375,-0.010652542114257812,0.007456779479980469,-0.3648185729980469,0.4977884292602539,0.6371030807495117,0.46166419982910156
139,612577024.0,9.087469100952148,-2.1847753524780273,2.8946781158447266,0.012783050537109375,-0.010652542114257812,0.007456779479980469,-0.3648185729980469,0.4977884292602539,0.6371030807495117,0.46166419982910156
140,612577024.0,9.07669448852539,-2.2135066986083984,2.91143798828125,0.012783050537109375,-0.010652542114257812,0.007456779479980469,-0.3648185729980469,0.4977884292602539,0.6371030807495117,0.46166419982910156
141,612577088.0,9.113805770874023,-2.1692123413085938,2.940169334411621,-0.00852203369140625,-0.0063915252685546875,-0.012783050537109375,-0.3648185729980469,0.4977884292602539,0.6371030807495117,0.46166419982910156
142,612577088.0,9.088665962219238,-2.17160701751709,2.9198179244995117,-0.00852203369140625,-0.0063915252685546875,-0.012783050537109375,-0.3648185729980469,0.4977884292602539,0.6371030807495117,0.46166419982910156
143,612577088.0,9.100637435913086,-2.1728038787841797,2.904254913330078,-0.00852203369140625,-0.0063915252685546875,-0.012783050537109375,-0.3648185729980469,0.4977884292602539,0.6371030807495117,0.46166419982910156
144,612577152.0,9.071906089782715,-2.219491958618164,2.907846450805664,0.0,-0.007456779479980469,-0.012783050537109375,-0.3648185729980469,0.4977884292602539,0.6371030807495117,0.46166419982910156
145,612577152.0,9.052752494812012,-2.189563751220703,2.930591583251953,0.0,-0.007456779479980469,-0.012783050537109375,-0.3648185729980469,0.4977884292602539,0.6371030807495117,0.46166419982910156
146,612577152.0,9.0754976272583,-2.2063236236572266,2.901860237121582,0.0,-0.007456779479980469,-0.012783050537109375,-0.3648185729980469,0.4977884292602539,0.6371030807495117,0.46166419982910156
147,612577152.0,9.099440574645996,-2.197943687438965,2.9293947219848633,0.0,-0.007456779479980469,-0.012783050537109375,-0.3648185729980469,0.4977884292602539,0.6371030807495117,0.46166419982910156
148,612577216.0,9.087469100952148,-2.1991405487060547,2.916226387023926,0.0,-0.0031957626342773438,-0.004261016845703125,-0.3648185729980469,0.4977884292602539,0.6371030807495117,0.46166419982910156
149,612577216.0,9.059934616088867,-2.215900421142578,2.904254913330078,0.0,-0.0031957626342773438,-0.004261016845703125,-0.3648185729980469,0.4977884292602539,0.6371030807495117,0.46166419982910156
150,612577216.0,9.035992622375488,-2.2063236236572266,2.9557313919067383,0.0,-0.0031957626342773438,-0.004261016845703125,-0.3648185729980469,0.4977884292602539,0.6371030807495117,0.46166419982910156
151,612577280.0,9.138946533203125,-2.2206897735595703,2.8934803009033203,0.0,-0.0031957626342773438,-0.004261016845703125,-0.3648185729980469,0.4977884292602539,0.6371030807495117,0.46166419982910156
152,612577280.0,9.123383522033691,-2.218295097351074,2.91143798828125,0.0,-0.0031957626342773438,-0.004261016845703125,-0.3648185729980469,0.4977884292602539,0.6371030807495117,0.46166419982910156
153,612577280.0,9.09345531463623,-2.2314634323120117,2.932986259460449,0.0,-0.0031957626342773438,-0.004261016845703125,-0.3648185729980469,0.4977884292602539,0.6371030807495117,0.46166419982910156
154,612577280.0,9.138946533203125,-2.2206897735595703,2.8934803009033203,0.0,-0.0031957626342773438,-0.004261016845703125,-0.3648185729980469,0.4977884292602539,0.6371030807495117,0.46166419982910156
155,612577280.0,9.123383522033691,-2.218295097351074,2.91143798828125,0.0,-0.0031957626342773438,-0.004261016845703125,-0.3648185729980469,0.4977884292602539,0.6371030807495117,0.46166419982910156
156,612577280.0,9.09345531463623,-2.2314634323120117,2.932986259460449,0.0,-0.0031957626342773438,-0.004261016845703125,-0.3648185729980469,0.4977884292602539,0.6371030807495117,0.46166419982910156
157,612577344.0,9.085075378417969,-2.215900421142578,2.931788444519043,0.0,-0.0031957626342773438,-0.004261016845703125,-0.3648185729980469,0.4977884292602539,0.6371030807495117,0.46166419982910156
158,612577344.0,9.073103904724121,-2.1775922775268555,2.9138317108154297,0.0,-0.0031957626342773438,-0.004261016845703125,-0.3648185729980469,0.4977884292602539,0.6371030807495117,0.46166419982910156
159,612577344.0,9.085075378417969,-2.215900421142578,2.931788444519043,0.0,-0.0031957626342773438,-0.004261016845703125,-0.3648185729980469,0.4977884292602539,0.6371030807495117,0.46166419982910156
160,612577344.0,9.073103904724121,-2.1775922775268555,2.9138317108154297,0.0,-0.0031957626342773438,-0.004261016845703125,-0.3648185729980469,0.4977884292602539,0.6371030807495117,0.46166419982910156
161,612577536.0,9.11500358581543,-2.189563751220703,2.8575668334960938,-0.0021305084228515625,-0.0031957626342773438,0.005326271057128906,-0.36516380310058594,0.49839210510253906,0.6352901458740234,0.4633045196533203
162,612577536.0,9.11500358581543,-2.189563751220703,2.8575668334960938,-0.0021305084228515625,-0.0031957626342773438,0.005326271057128906,-0.36516380310058594,0.49839210510253906,0.6352901458740234,0.4633045196533203
163,612577600.0,9.071906089782715,-2.1548471450805664,2.9030580520629883,-0.0021305084228515625,-0.0031957626342773438,0.005326271057128906,-0.36516380310058594,0.49839210510253906,0.6352901458740234,0.4633045196533203
164,612577600.0,9.09465217590332,-2.185972213745117,2.874326705932617,-0.0021305084228515625,-0.0031957626342773438,0.005326271057128906,-0.36516380310058594,0.49839210510253906,0.6352901458740234,0.4633045196533203
165,612577600.0,9.088665962219238,-2.1955490112304688,2.942563056945801,-0.0021305084228515625,-0.0031957626342773438,0.005326271057128906,-0.36516380310058594,0.49839210510253906,0.6352901458740234,0.4633045196533203
166,612577600.0,9.071906089782715,-2.1548471450805664,2.9030580520629883,-0.0021305084228515625,-0.0031957626342773438,0.005326271057128906,-0.36516380310058594,0.49839210510253906,0.6352901458740234,0.4633045196533203
167,612577600.0,9.09465217590332,-2.185972213745117,2.874326705932617,-0.0021305084228515625,-0.0031957626342773438,0.005326271057128906,-0.36516380310058594,0.49839210510253906,0.6352901458740234,0.4633045196533203
168,612577600.0,9.088665962219238,-2.1955490112304688,2.942563056945801,-0.0021305084228515625,-0.0031957626342773438,0.005326271057128906,-0.36516380310058594,0.49839210510253906,0.6352901458740234,0.4633045196533203
169,612577664.0,9.09584903717041,-2.160832405090332,3.035940170288086,-0.5805864334106445,0.05006885528564453,0.019174575805664062,-0.3591642379760742,0.5023632049560547,0.6308021545410156,0.4698209762573242
170,612577664.0,9.09584903717041,-2.160832405090332,3.035940170288086,-0.5805864334106445,0.05006885528564453,0.019174575805664062,-0.3591642379760742,0.5023632049560547,0.6308021545410156,0.4698209762573242
171,612577664.0,9.055146217346191,-1.8495769500732422,3.6764087677001953,-0.5805864334106445,0.05006885528564453,0.019174575805664062,-0.3591642379760742,0.5023632049560547,0.6308021545410156,0.4698209762573242
172,612577664.0,9.09345531463623,-1.8112688064575195,4.161249160766602,-0.5805864334106445,0.05006885528564453,0.019174575805664062,-0.3591642379760742,0.5023632049560547,0.6308021545410156,0.4698209762573242
173,612577728.0,9.16648006439209,-1.295302391052246,4.699960708618164,-3.1000137329101562,0.461273193359375,0.20986270904541016,-0.33344173431396484,0.5178565979003906,0.6127185821533203,0.49519824981689453
174,612577728.0,9.5651273727417,-1.3946647644042969,5.2745866775512695,-3.1000137329101562,0.461273193359375,0.20986270904541016,-0.33344173431396484,0.5178565979003906,0.6127185821533203,0.49519824981689453
175,612577728.0,10.328900337219238,-3.1760053634643555,5.024385452270508,-3.1000137329101562,0.461273193359375,0.20986270904541016,-0.33344173431396484,0.5178565979003906,0.6127185821533203,0.49519824981689453
176,612577856.0,9.761457443237305,-10.190032958984375,4.602993011474609,-2.6525888442993164,1.9239253997802734,2.963655471801758,-0.09136676788330078,0.5743074417114258,0.5541963577270508,0.5955419540405273
177,612577856.0,9.973350524902344,-11.461392402648926,4.917840003967285,-2.6525888442993164,1.9239253997802734,2.963655471801758,-0.09136676788330078,0.5743074417114258,0.5541963577270508,0.5955419540405273
178,612577856.0,9.761457443237305,-10.190032958984375,4.602993011474609,-2.6525888442993164,1.9239253997802734,2.963655471801758,-0.09136676788330078,0.5743074417114258,0.5541963577270508,0.5955419540405273
179,612577856.0,9.973350524902344,-11.461392402648926,4.917840003967285,-2.6525888442993164,1.9239253997802734,2.963655471801758,-0.09136676788330078,0.5743074417114258,0.5541963577270508,0.5955419540405273
180,612577920.0,10.35523796081543,-12.26706600189209,3.809290885925293,-0.040480613708496094,1.2698335647583008,4.603147506713867,0.03754711151123047,0.5455207824707031,0.5808248519897461,0.6030082702636719
181,612577920.0,10.581496238708496,-13.715601921081543,1.977670669555664,-0.040480613708496094,1.2698335647583008,4.603147506713867,0.03754711151123047,0.5455207824707031,0.5808248519897461,0.6030082702636719
182,612577920.0,11.564346313476562,-14.603878021240234,0.8044757843017578,-0.040480613708496094,1.2698335647583008,4.603147506713867,0.03754711151123047,0.5455207824707031,0.5808248519897461,0.6030082702636719
183,612577920.0,10.35523796081543,-12.26706600189209,3.809290885925293,-0.040480613708496094,1.2698335647583008,4.603147506713867,0.03754711151123047,0.5455207824707031,0.5808248519897461,0.6030082702636719
184,612577920.0,10.581496238708496,-13.715601921081543,1.977670669555664,-0.040480613708496094,1.2698335647583008,4.603147506713867,0.03754711151123047,0.5455207824707031,0.5808248519897461,0.6030082702636719
185,612577920.0,11.564346313476562,-14.603878021240234,0.8044757843017578,-0.040480613708496094,1.2698335647583008,4.603147506713867,0.03754711151123047,0.5455207824707031,0.5808248519897461,0.6030082702636719
186,612577984.0,11.538009643554688,-14.882811546325684,-0.11253070831298828,-0.040480613708496094,1.2698335647583008,4.603147506713867,0.03754711151123047,0.5455207824707031,0.5808248519897461,0.6030082702636719
187,612577984.0,10.959792137145996,-15.639402389526367,-0.41899776458740234,-0.040480613708496094,1.2698335647583008,4.603147506713867,0.03754711151123047,0.5455207824707031,0.5808248519897461,0.6030082702636719
188,612577984.0,10.35763168334961,-15.449056625366211,-0.457305908203125,-0.040480613708496094,1.2698335647583008,4.603147506713867,0.03754711151123047,0.5455207824707031,0.5808248519897461,0.6030082702636719
189,612578048.0,9.205986022949219,-13.412726402282715,-0.6165256500244141,0.6274595260620117,0.49962425231933594,6.661301612854004,0.03754711151123047,0.5455207824707031,0.5808248519897461,0.6030082702636719
190,612578048.0,6.708757400512695,-10.966975212097168,-0.8786983489990234,0.6274595260620117,0.49962425231933594,6.661301612854004,0.03754711151123047,0.5455207824707031,0.5808248519897461,0.6030082702636719
191,612578176.0,0.5315284729003906,-4.976499557495117,-1.574234962463379,-1.5563983917236328,-0.6967039108276367,5.2178239822387695,0.03754711151123047,0.5455207824707031,0.5808248519897461,0.6030082702636719
192,612578176.0,0.026336669921875,-4.163642883300781,-1.1672086715698242,-1.5563983917236328,-0.6967039108276367,5.2178239822387695,0.03754711151123047,0.5455207824707031,0.5808248519897461,0.6030082702636719
193,612578176.0,-0.8320102691650391,-3.367547035217285,-1.4257898330688477,-1.5563983917236328,-0.6967039108276367,5.2178239822387695,0.03754711151123047,0.5455207824707031,0.5808248519897461,0.6030082702636719
194,612578240.0,-1.9022512435913086,-3.211918830871582,-2.121326446533203,-2.8912153244018555,-1.242136001586914,4.3794355392456055,0.03754711151123047,0.5455207824707031,0.5808248519897461,0.6030082702636719
195,612578240.0,-2.4026546478271484,-4.320467948913574,-3.0850229263305664,-2.8912153244018555,-1.242136001586914,4.3794355392456055,0.03754711151123047,0.5455207824707031,0.5808248519897461,0.6030082702636719
196,612578240.0,-3.345998764038086,-3.684788703918457,-3.7063369750976562,-2.8912153244018555,-1.242136001586914,4.3794355392456055,0.03754711151123047,0.5455207824707031,0.5808248519897461,0.6030082702636719
197,612578240.0,-3.345998764038086,-3.684788703918457,-3.7063369750976562,-2.8912153244018555,-1.242136001586914,4.3794355392456055,0.03754711151123047,0.5455207824707031,0.5808248519897461,0.6030082702636719
198,612578304.0,-3.992452621459961,-4.698763847351074,-3.736265182495117,-2.8912153244018555,-1.242136001586914,4.3794355392456055,0.03754711151123047,0.5455207824707031,0.5808248519897461,0.6030082702636719
199,612578304.0,-3.612959861755371,-6.484892845153809,-3.6596479415893555,-2.8912153244018555,-1.242136001586914,4.3794355392456055,0.03754711151123047,0.5455207824707031,0.5808248519897461,0.6030082702636719
200,612578304.0,-2.6037731170654297,-5.075861930847168,-0.0011968612670898438,-2.8912153244018555,-1.242136001586914,4.3794355392456055,0.03754711151123047,0.5455207824707031,0.5808248519897461,0.6030082702636719
201,612578304.0,-3.992452621459961,-4.698763847351074,-3.736265182495117,-2.8912153244018555,-1.242136001586914,4.3794355392456055,0.03754711151123047,0.5455207824707031,0.5808248519897461,0.6030082702636719
202,612578304.0,-3.612959861755371,-6.484892845153809,-3.6596479415893555,-2.8912153244018555,-1.242136001586914,4.3794355392456055,0.03754711151123047,0.5455207824707031,0.5808248519897461,0.6030082702636719
203,612578304.0,-2.6037731170654297,-5.075861930847168,-0.0011968612670898438,-2.8912153244018555,-1.242136001586914,4.3794355392456055,0.03754711151123047,0.5455207824707031,0.5808248519897461,0.6030082702636719
204,612578368.0,-0.28012943267822266,-2.3260374069213867,6.131736755371094,0.12996578216552734,3.1777801513671875,1.4392156600952148,0.03754711151123047,0.5455207824707031,0.5808248519897461,0.6030082702636719
205,612578368.0,-0.28012943267822266,-2.3260374069213867,6.131736755371094,0.12996578216552734,3.1777801513671875,1.4392156600952148,0.03754711151123047,0.5455207824707031,0.5808248519897461,0.6030082702636719
206,612578368.0,3.208327293395996,4.187585830688477,-10.363617897033691,0.12996578216552734,3.1777801513671875,1.4392156600952148,0.03754711151123047,0.5455207824707031,0.5808248519897461,0.6030082702636719
207,612578368.0,24.446741104125977,-3.89309024810791,34.15911865234375,0.12996578216552734,3.1777801513671875,1.4392156600952148,0.03754711151123047,0.5455207824707031,0.5808248519897461,0.6030082702636719
208,612578368.0,-20.145427703857422,-21.95071029663086,-14.694860458374023,0.12996578216552734,3.1777801513671875,1.4392156600952148,0.03754711151123047,0.5455207824707031,0.5808248519897461,0.6030082702636719
209,612578432.0,-7.6281585693359375,-2.7965126037597656,7.966948509216309,1.257049560546875,1.1313447952270508,0.0,0.23262310028076172,-0.43706512451171875,0.7671394348144531,0.4079322814941406
210,612578432.0,5.518802642822266,-4.22230339050293,16.826961517333984,1.257049560546875,1.1313447952270508,0.0,0.23262310028076172,-0.43706512451171875,0.7671394348144531,0.4079322814941406
211,612578560.0,-18.783084869384766,-7.349225997924805,-14.096291542053223,-1.6267080307006836,-1.2538537979125977,0.7925806045532227,0.27910423278808594,-0.4014167785644531,0.7696428298950195,0.41065120697021484
212,612578560.0,-12.641770362854004,-5.298529624938965,-8.850436210632324,-1.6267080307006836,-1.2538537979125977,0.7925806045532227,0.27910423278808594,-0.4014167785644531,0.7696428298950195,0.41065120697021484
213,612578624.0,-8.467351913452148,-4.048718452453613,-2.60137939453125,2.0741329193115234,-2.373480796813965,0.041545867919921875,0.22045230865478516,-0.4689159393310547,0.7557458877563477,0.4005088806152344
214,612578624.0,-6.87635612487793,-0.7889127731323242,1.5682497024536133,2.0741329193115234,-2.373480796813965,0.041545867919921875,0.22045230865478516,-0.4689159393310547,0.7557458877563477,0.4005088806152344
215,612578624.0,35.39216613769531,1.2282629013061523,39.147586822509766,2.0741329193115234,-2.373480796813965,0.041545867919921875,0.22045230865478516,-0.4689159393310547,0.7557458877563477,0.4005088806152344
216,612578752.0,-1.8447885513305664,-3.499232292175293,9.626180648803711,2.0741329193115234,-2.373480796813965,0.041545867919921875,0.24997234344482422,-0.4306774139404297,0.7721462249755859,0.3947257995605469
217,612578752.0,-1.4389581680297852,-2.5786333084106445,7.892725944519043,2.0741329193115234,-2.373480796813965,0.041545867919921875,0.24997234344482422,-0.4306774139404297,0.7721462249755859,0.3947257995605469
218,612578816.0,-1.948939323425293,-2.372725486755371,5.785764694213867,2.0741329193115234,-2.373480796813965,0.041545867919921875,0.24997234344482422,-0.4306774139404297,0.7721462249755859,0.3947257995605469
219,612578816.0,-1.7083148956298828,-3.373532295227051,4.679609298706055,2.0741329193115234,-2.373480796813965,0.041545867919921875,0.24997234344482422,-0.4306774139404297,0.7721462249755859,0.3947257995605469
220,612578816.0,-0.9062328338623047,-3.8775272369384766,4.027169227600098,2.0741329193115234,-2.373480796813965,0.041545867919921875,0.24997234344482422,-0.4306774139404297,0.7721462249755859,0.3947257995605469
221,612578880.0,-0.7841243743896484,-3.368743896484375,2.905451774597168,2.005953788757324,0.8490409851074219,-5.28813362121582,0.24997234344482422,-0.4306774139404297,0.7721462249755859,0.3947257995605469
222,612578880.0,-0.48962879180908203,-3.4250097274780273,1.883096694946289,2.005953788757324,0.8490409851074219,-5.28813362121582,0.24997234344482422,-0.4306774139404297,0.7721462249755859,0.3947257995605469
223,612578880.0,0.33280372619628906,-3.8918933868408203,1.6005725860595703,2.005953788757324,0.8490409851074219,-5.28813362121582,0.24997234344482422,-0.4306774139404297,0.7721462249755859,0.3947257995605469
224,612578944.0,1.36114501953125,-4.519192695617676,1.3994531631469727,0.2780418395996094,0.1033334732055664,-6.544118881225586,0.24997234344482422,-0.4306774139404297,0.7721462249755859,0.3947257995605469
225,612578944.0,1.8423938751220703,-4.886713981628418,1.298893928527832,0.2780418395996094,0.1033334732055664,-6.544118881225586,0.24997234344482422,-0.4306774139404297,0.7721462249755859,0.3947257995605469
226,612578944.0,2.449342727661133,-5.110578536987305,1.3060760498046875,0.2780418395996094,0.1033334732055664,-6.544118881225586,0.24997234344482422,-0.4306774139404297,0.7721462249755859,0.3947257995605469
227,612578944.0,2.79172420501709,-6.263422012329102,1.2617826461791992,0.2780418395996094,0.1033334732055664,-6.544118881225586,0.24997234344482422,-0.4306774139404297,0.7721462249755859,0.3947257995605469
228,612579008.0,3.0096025466918945,-6.312504768371582,1.6700057983398438,-1.5734434127807617,-0.6540918350219727,-6.426936149597168,0.24997234344482422,-0.4306774139404297,0.7721462249755859,0.3947257995605469
229,612579008.0,5.122550010681152,-7.756252288818359,3.258607864379883,-1.5734434127807617,-0.6540918350219727,-6.426936149597168,0.24997234344482422,-0.4306774139404297,0.7721462249755859,0.3947257995605469
230,612579008.0,7.055927276611328,-13.117033958435059,3.682394027709961,-1.5734434127807617,-0.6540918350219727,-6.426936149597168,0.24997234344482422,-0.4306774139404297,0.7721462249755859,0.3947257995605469
231,612579072.0,5.5846452713012695,-13.385191917419434,2.3954715728759766,-1.5734434127807617,-0.6540918350219727,-6.426936149597168,0.24997234344482422,-0.4306774139404297,0.7721462249755859,0.3947257995605469
232,612579072.0,5.329654693603516,-8.23630428314209,2.7019386291503906,-1.5734434127807617,-0.6540918350219727,-6.426936149597168,0.24997234344482422,-0.4306774139404297,0.7721462249755859,0.3947257995605469
233,612579072.0,8.101028442382812,-10.111021995544434,3.313675880432129,-1.5734434127807617,-0.6540918350219727,-6.426936149597168,0.24997234344482422,-0.4306774139404297,0.7721462249755859,0.3947257995605469
234,612579136.0,9.449005126953125,-10.891554832458496,3.833232879638672,1.4402809143066406,-2.9924182891845703,-5.980576515197754,-0.15032100677490234,0.5678339004516602,0.6822900772094727,0.43525123596191406
235,612579136.0,10.763461112976074,-9.642940521240234,4.646089553833008,1.4402809143066406,-2.9924182891845703,-5.980576515197754,-0.15032100677490234,0.5678339004516602,0.6822900772094727,0.43525123596191406
236,612579264.0,10.617410659790039,-7.670058250427246,7.289368629455566,1.7577390670776367,-1.6576013565063477,-3.8329381942749023,-0.32459449768066406,0.6140565872192383,0.5964479446411133,0.4022789001464844
237,612579264.0,7.604215621948242,-4.407858848571777,8.611008644104004,1.7577390670776367,-1.6576013565063477,-3.8329381942749023,-0.32459449768066406,0.6140565872192383,0.5964479446411133,0.4022789001464844
238,612579264.0,7.295354843139648,-3.7853479385375977,8.381157875061035,1.7577390670776367,-1.6576013565063477,-3.8329381942749023,-0.32459449768066406,0.6140565872192383,0.5964479446411133,0.4022789001464844
239,612579328.0,8.682836532592773,-5.606193542480469,7.850826263427734,0.6061534881591797,-0.3046741485595703,1.0759496688842773,-0.32459449768066406,0.6140565872192383,0.5964479446411133,0.4022789001464844
240,612579328.0,8.980923652648926,-5.63372802734375,7.120572090148926,0.6061534881591797,-0.3046741485595703,1.0759496688842773,-0.32459449768066406,0.6140565872192383,0.5964479446411133,0.4022789001464844
241,612579328.0,9.267040252685547,-3.744645118713379,6.690800666809082,0.6061534881591797,-0.3046741485595703,1.0759496688842773,-0.32459449768066406,0.6140565872192383,0.5964479446411133,0.4022789001464844
242,612579328.0,9.267040252685547,-3.744645118713379,6.690800666809082,0.6061534881591797,-0.3046741485595703,1.0759496688842773,-0.32459449768066406,0.6140565872192383,0.5964479446411133,0.4022789001464844
243,612579392.0,9.377176284790039,-2.942563056945801,5.905478477478027,0.5411701202392578,-0.1502065658569336,0.6796588897705078,-0.32459449768066406,0.6140565872192383,0.5964479446411133,0.4022789001464844
244,612579392.0,9.051554679870605,-1.9046449661254883,5.221912384033203,0.5411701202392578,-0.1502065658569336,0.6796588897705078,-0.32459449768066406,0.6140565872192383,0.5964479446411133,0.4022789001464844
245,612579392.0,9.190423011779785,-1.5933895111083984,4.721508979797363,0.5411701202392578,-0.1502065658569336,0.6796588897705078,-0.32459449768066406,0.6140565872192383,0.5964479446411133,0.4022789001464844
246,612579392.0,9.377176284790039,-2.942563056945801,5.905478477478027,0.5411701202392578,-0.1502065658569336,0.6796588897705078,-0.32459449768066406,0.6140565872192383,0.5964479446411133,0.4022789001464844
247,612579392.0,9.051554679870605,-1.9046449661254883,5.221912384033203,0.5411701202392578,-0.1502065658569336,0.6796588897705078,-0.32459449768066406,0.6140565872192383,0.5964479446411133,0.4022789001464844
248,612579392.0,9.190423011779785,-1.5933895111083984,4.721508979797363,0.5411701202392578,-0.1502065658569336,0.6796588897705078,-0.32459449768066406,0.6140565872192383,0.5964479446411133,0.4022789001464844
249,612579456.0,9.462173461914062,-1.453324317932129,4.248640060424805,0.19814491271972656,-0.08948421478271484,0.5326480865478516,-0.32459449768066406,0.6140565872192383,0.5964479446411133,0.4022789001464844
250,612579456.0,9.462173461914062,-1.453324317932129,4.248640060424805,0.19814491271972656,-0.08948421478271484,0.5326480865478516,-0.32459449768066406,0.6140565872192383,0.5964479446411133,0.4022789001464844
251,612579584.0,8.970149993896484,-2.0351333618164062,2.936577796936035,0.3696575164794922,-0.2194509506225586,0.49216651916503906,-0.32459449768066406,0.6140565872192383,0.5964479446411133,0.4022789001464844
252,612579584.0,8.865999221801758,-1.7573966979980469,3.158047676086426,0.3696575164794922,-0.2194509506225586,0.49216651916503906,-0.32459449768066406,0.6140565872192383,0.5964479446411133,0.4022789001464844
253,612579584.0,8.746285438537598,-1.5658550262451172,3.185582160949707,0.3696575164794922,-0.2194509506225586,0.49216651916503906,-0.32459449768066406,0.6140565872192383,0.5964479446411133,0.4022789001464844
254,612579584.0,8.743890762329102,-1.5395183563232422,3.1005849838256836,0.3696575164794922,-0.2194509506225586,0.49216651916503906,-0.32459449768066406,0.6140565872192383,0.5964479446411133,0.4022789001464844
255,612579584.0,8.970149993896484,-2.0351333618164062,2.936577796936035,0.3696575164794922,-0.2194509506225586,0.49216651916503906,-0.32459449768066406,0.6140565872192383,0.5964479446411133,0.4022789001464844
256,612579584.0,8.865999221801758,-1.7573966979980469,3.158047676086426,0.3696575164794922,-0.2194509506225586,0.49216651916503906,-0.32459449768066406,0.6140565872192383,0.5964479446411133,0.4022789001464844
257,612579584.0,8.746285438537598,-1.5658550262451172,3.185582160949707,0.3696575164794922,-0.2194509506225586,0.49216651916503906,-0.32459449768066406,0.6140565872192383,0.5964479446411133,0.4022789001464844
258,612579584.0,8.743890762329102,-1.5395183563232422,3.1005849838256836,0.3696575164794922,-0.2194509506225586,0.49216651916503906,-0.32459449768066406,0.6140565872192383,0.5964479446411133,0.4022789001464844
259,612579584.0,8.970149993896484,-2.0351333618164062,2.936577796936035,0.3696575164794922,-0.2194509506225586,0.49216651916503906,-0.32459449768066406,0.6140565872192383,0.5964479446411133,0.4022789001464844
260,612579584.0,8.865999221801758,-1.7573966979980469,3.158047676086426,0.3696575164794922,-0.2194509506225586,0.49216651916503906,-0.32459449768066406,0.6140565872192383,0.5964479446411133,0.4022789001464844
261,612579584.0,8.746285438537598,-1.5658550262451172,3.185582160949707,0.3696575164794922,-0.2194509506225586,0.49216651916503906,-0.32459449768066406,0.6140565872192383,0.5964479446411133,0.4022789001464844
262,612579584.0,8.743890762329102,-1.5395183563232422,3.1005849838256836,0.3696575164794922,-0.2194509506225586,0.49216651916503906,-0.32459449768066406,0.6140565872192383,0.5964479446411133,0.4022789001464844
263,612579648.0,8.881561279296875,-1.5251522064208984,3.1388940811157227,0.4431629180908203,-0.27378082275390625,0.4836444854736328,-0.32459449768066406,0.6140565872192383,0.5964479446411133,0.4022789001464844
264,612579648.0,8.881561279296875,-1.5251522064208984,3.1388940811157227,0.4431629180908203,-0.27378082275390625,0.4836444854736328,-0.32459449768066406,0.6140565872192383,0.5964479446411133,0.4022789001464844
265,612579648.0,8.881561279296875,-1.5251522064208984,3.1388940811157227,0.4431629180908203,-0.27378082275390625,0.4836444854736328,-0.32459449768066406,0.6140565872192383,0.5964479446411133,0.4022789001464844
266,612579776.0,8.962966918945312,-1.2833309173583984,3.5997915267944336,0.19814491271972656,-0.24927902221679688,0.1033334732055664,-0.32459449768066406,0.6140565872192383,0.5964479446411133,0.4022789001464844
267,612579776.0,8.947403907775879,-1.3862848281860352,3.5052175521850586,0.19814491271972656,-0.24927902221679688,0.1033334732055664,-0.32459449768066406,0.6140565872192383,0.5964479446411133,0.4022789001464844
268,612579776.0,8.771425247192383,-1.4988155364990234,3.565074920654297,0.19814491271972656,-0.24927902221679688,0.1033334732055664,-0.32459449768066406,0.6140565872192383,0.5964479446411133,0.4022789001464844
269,612579840.0,8.83487319946289,-1.8100709915161133,3.6333112716674805,0.18642616271972656,-0.2652587890625,0.011717796325683594,-0.32459449768066406,0.6140565872192383,0.5964479446411133,0.4022789001464844
270,612579840.0,8.956981658935547,-1.847182273864746,3.7566165924072266,0.18642616271972656,-0.2652587890625,0.011717796325683594,-0.32459449768066406,0.6140565872192383,0.5964479446411133,0.4022789001464844
271,612579840.0,9.09345531463623,-1.7921142578125,3.7506303787231445,0.18642616271972656,-0.2652587890625,0.011717796325683594,-0.32459449768066406,0.6140565872192383,0.5964479446411133,0.4022789001464844
272,612579840.0,9.047964096069336,-1.8938703536987305,3.6524658203125,0.18642616271972656,-0.2652587890625,0.011717796325683594,-0.32459449768066406,0.6140565872192383,0.5964479446411133,0.4022789001464844
273,612579904.0,9.09345531463623,-1.9369678497314453,3.646479606628418,0.18642616271972656,-0.2652587890625,0.011717796325683594,-0.32459449768066406,0.6140565872192383,0.5964479446411133,0.4022789001464844
274,612579904.0,9.11620044708252,-1.9477424621582031,3.7350683212280273,0.18642616271972656,-0.2652587890625,0.011717796325683594,-0.32459449768066406,0.6140565872192383,0.5964479446411133,0.4022789001464844
275,612579904.0,9.156903266906738,-1.890279769897461,3.70394229888916,0.18642616271972656,-0.2652587890625,0.011717796325683594,-0.32459449768066406,0.6140565872192383,0.5964479446411133,0.4022789001464844
276,612579968.0,9.168874740600586,-1.9381647109985352,3.622537612915039,0.15766334533691406,-0.09694194793701172,0.005326271057128906,-0.32459449768066406,0.6140565872192383,0.5964479446411133,0.4022789001464844
277,612579968.0,9.109017372131348,-2.047104835510254,3.6728172302246094,0.15766334533691406,-0.09694194793701172,0.005326271057128906,-0.32459449768066406,0.6140565872192383,0.5964479446411133,0.4022789001464844
278,612579968.0,9.203591346740723,-1.9513330459594727,3.733870506286621,0.15766334533691406,-0.09694194793701172,0.005326271057128906,-0.32459449768066406,0.6140565872192383,0.5964479446411133,0.4022789001464844
279,612580032.0,9.083877563476562,-1.9405593872070312,3.565074920654297,0.052199363708496094,-0.04900360107421875,0.02982807159423828,-0.32459449768066406,0.6140565872192383,0.5964479446411133,0.4022789001464844
280,612580032.0,8.982121467590332,-1.9645023345947266,3.4836692810058594,0.052199363708496094,-0.04900360107421875,0.02982807159423828,-0.32459449768066406,0.6140565872192383,0.5964479446411133,0.4022789001464844
281,612580032.0,9.031203269958496,-2.0866098403930664,3.4573326110839844,0.052199363708496094,-0.04900360107421875,0.02982807159423828,-0.32459449768066406,0.6140565872192383,0.5964479446411133,0.4022789001464844
282,612580096.0,8.978529930114746,-2.0243587493896484,3.470500946044922,0.052199363708496094,-0.04900360107421875,0.02982807159423828,-0.32459449768066406,0.6140565872192383,0.5964479446411133,0.4022789001464844
283,612580096.0,8.960572242736816,-1.9357709884643555,3.3890953063964844,0.052199363708496094,-0.04900360107421875,0.02982807159423828,-0.32459449768066406,0.6140565872192383,0.5964479446411133,0.4022789001464844
284,612580096.0,8.911490440368652,-2.039921760559082,3.22149658203125,0.052199363708496094,-0.04900360107421875,0.02982807159423828,-0.32459449768066406,0.6140565872192383,0.5964479446411133,0.4022789001464844
285,612580160.0,8.910292625427246,-2.1452693939208984,3.2202987670898438,0.033023834228515625,-0.0031957626342773438,-0.00852203369140625,-0.32459449768066406,0.6140565872192383,0.5964479446411133,0.4022789001464844
286,612580160.0,8.921067237854004,-2.2458295822143555,3.1616392135620117,0.033023834228515625,-0.0031957626342773438,-0.00852203369140625,-0.32459449768066406,0.6140565872192383,0.5964479446411133,0.4022789001464844
287,612580160.0,8.99409294128418,-2.2673778533935547,3.150864601135254,0.033023834228515625,-0.0031957626342773438,-0.00852203369140625,-0.32459449768066406,0.6140565872192383,0.5964479446411133,0.4022789001464844
288,612580160.0,9.049160957336426,-2.2063236236572266,3.022770881652832,0.033023834228515625,-0.0031957626342773438,-0.00852203369140625,-0.32459449768066406,0.6140565872192383,0.5964479446411133,0.4022789001464844
289,612580224.0,8.967755317687988,-2.162029266357422,2.934183120727539,0.026632308959960938,-0.0031957626342773438,0.005326271057128906,-0.32459449768066406,0.6140565872192383,0.5964479446411133,0.4022789001464844
290,612580224.0,8.99409294128418,-2.1512556076049805,2.9521398544311523,0.026632308959960938,-0.0031957626342773438,0.005326271057128906,-0.32459449768066406,0.6140565872192383,0.5964479446411133,0.4022789001464844
291,612580480.0,8.967755317687988,-2.106961250305176,3.119739532470703,0.026632308959960938,-0.0031957626342773438,0.005326271057128906,-0.3650341033935547,0.5169506072998047,0.6216526031494141,0.4616212844848633
292,612580480.0,8.923460960388184,-2.062666893005371,3.190370559692383,0.026632308959960938,-0.0031957626342773438,0.005326271057128906,-0.3650341033935547,0.5169506072998047,0.6216526031494141,0.4616212844848633
293,612580480.0,9.043174743652344,-1.9692907333374023,3.117344856262207,0.026632308959960938,-0.0031957626342773438,0.005326271057128906,-0.3650341033935547,0.5169506072998047,0.6216526031494141,0.4616212844848633
294,612580544.0,8.984515190124512,-1.9764728546142578,3.0419254302978516,-0.10546398162841797,-0.013848304748535156,0.0021305084228515625,-0.3650341033935547,0.5169506072998047,0.6216526031494141,0.4616212844848633
295,612580544.0,8.959375381469727,-2.066258430480957,3.098191261291504,-0.10546398162841797,-0.013848304748535156,0.0021305084228515625,-0.3650341033935547,0.5169506072998047,0.6216526031494141,0.4616212844848633
296,612580544.0,9.09584903717041,-2.1991405487060547,3.069459915161133,-0.10546398162841797,-0.013848304748535156,0.0021305084228515625,-0.3650341033935547,0.5169506072998047,0.6216526031494141,0.4616212844848633
297,612580608.0,9.131763458251953,-2.1464672088623047,3.0718536376953125,-0.05646038055419922,-0.026632308959960938,0.01810932159423828,-0.3650341033935547,0.5169506072998047,0.6216526031494141,0.4616212844848633
298,612580608.0,9.158100128173828,-2.124917984008789,3.002420425415039,-0.05646038055419922,-0.026632308959960938,0.01810932159423828,-0.3650341033935547,0.5169506072998047,0.6216526031494141,0.4616212844848633
299,612580608.0,9.209577560424805,-2.187169075012207,3.007208824157715,-0.05646038055419922,-0.026632308959960938,0.01810932159423828,-0.3650341033935547,0.5169506072998047,0.6216526031494141,0.4616212844848633
300,612580864.0,9.080286026000977,-2.124917984008789,3.120936393737793,-0.012783050537109375,-0.0010652542114257812,-0.0021305084228515625,-0.36240100860595703,0.5155696868896484,0.6199264526367188,0.46744728088378906
301,612580864.0,9.080286026000977,-2.1763954162597656,3.1065711975097656,-0.012783050537109375,-0.0010652542114257812,-0.0021305084228515625,-0.36240100860595703,0.5155696868896484,0.6199264526367188,0.46744728088378906
302,612580864.0,9.080286026000977,-2.124917984008789,3.120936393737793,-0.012783050537109375,-0.0010652542114257812,-0.0021305084228515625,-0.36240100860595703,0.5155696868896484,0.6199264526367188,0.46744728088378906
303,612580864.0,9.080286026000977,-2.1763954162597656,3.1065711975097656,-0.012783050537109375,-0.0010652542114257812,-0.0021305084228515625,-0.36240100860595703,0.5155696868896484,0.6199264526367188,0.46744728088378906
304,612580928.0,9.067117691040039,-2.2027320861816406,3.15325927734375,-0.012783050537109375,0.01597881317138672,-0.005326271057128906,-0.36240100860595703,0.5155696868896484,0.6199264526367188,0.46744728088378906
305,612580928.0,9.057540893554688,-2.187169075012207,3.095796585083008,-0.012783050537109375,0.01597881317138672,-0.005326271057128906,-0.36240100860595703,0.5155696868896484,0.6199264526367188,0.46744728088378906
306,612580928.0,9.06472396850586,-2.187169075012207,3.0706567764282227,-0.012783050537109375,0.01597881317138672,-0.005326271057128906,-0.36240100860595703,0.5155696868896484,0.6199264526367188,0.46744728088378906
307,612580928.0,9.067117691040039,-2.2027320861816406,3.15325927734375,-0.012783050537109375,0.01597881317138672,-0.005326271057128906,-0.36240100860595703,0.5155696868896484,0.6199264526367188,0.46744728088378906
308,612580928.0,9.057540893554688,-2.187169075012207,3.095796585083008,-0.012783050537109375,0.01597881317138672,-0.005326271057128906,-0.36240100860595703,0.5155696868896484,0.6199264526367188,0.46744728088378906
309,612580928.0,9.06472396850586,-2.187169075012207,3.0706567764282227,-0.012783050537109375,0.01597881317138672,-0.005326271057128906,-0.36240100860595703,0.5155696868896484,0.6199264526367188,0.46744728088378906
310,612580992.0,9.0754976272583,-2.215900421142578,3.0131940841674805,-0.012783050537109375,0.01597881317138672,-0.005326271057128906,-0.36240100860595703,0.5155696868896484,0.6199264526367188,0.46744728088378906
311,612580992.0,9.073103904724121,-2.1955490112304688,2.974885940551758,-0.012783050537109375,0.01597881317138672,-0.005326271057128906,-0.36240100860595703,0.5155696868896484,0.6199264526367188,0.46744728088378906
312,612580992.0,9.063526153564453,-2.229069709777832,2.9856605529785156,-0.012783050537109375,0.01597881317138672,-0.005326271057128906,-0.36240100860595703,0.5155696868896484,0.6199264526367188,0.46744728088378906
313,612581056.0,9.082680702209473,-2.190760612487793,2.944957733154297,-0.012783050537109375,0.01597881317138672,-0.005326271057128906,-0.36240100860595703,0.5155696868896484,0.6199264526367188,0.46744728088378906
314,612581056.0,9.103032112121582,-2.1488609313964844,2.966506004333496,-0.012783050537109375,0.01597881317138672,-0.005326271057128906,-0.36240100860595703,0.5155696868896484,0.6199264526367188,0.46744728088378906
315,612581184.0,9.032401084899902,-2.1704092025756836,2.935379981994629,0.014913558959960938,-0.010652542114257812,-0.0170440673828125,-0.36240100860595703,0.5155696868896484,0.6199264526367188,0.46744728088378906
316,612581184.0,9.069512367248535,-2.0937929153442383,2.9198179244995117,0.014913558959960938,-0.010652542114257812,-0.0170440673828125,-0.36240100860595703,0.5155696868896484,0.6199264526367188,0.46744728088378906
317,612581184.0,9.113805770874023,-2.1428756713867188,2.970097541809082,0.014913558959960938,-0.010652542114257812,-0.0170440673828125,-0.36240100860595703,0.5155696868896484,0.6199264526367188,0.46744728088378906
318,612581184.0,9.032401084899902,-2.1704092025756836,2.935379981994629,0.014913558959960938,-0.010652542114257812,-0.0170440673828125,-0.36240100860595703,0.5155696868896484,0.6199264526367188,0.46744728088378906
319,612581184.0,9.069512367248535,-2.0937929153442383,2.9198179244995117,0.014913558959960938,-0.010652542114257812,-0.0170440673828125,-0.36240100860595703,0.5155696868896484,0.6199264526367188,0.46744728088378906
320,612581184.0,9.113805770874023,-2.1428756713867188,2.970097541809082,0.014913558959960938,-0.010652542114257812,-0.0170440673828125,-0.36240100860595703,0.5155696868896484,0.6199264526367188,0.46744728088378906
321,612581184.0,9.032401084899902,-2.1704092025756836,2.935379981994629,0.014913558959960938,-0.010652542114257812,-0.0170440673828125,-0.36240100860595703,0.5155696868896484,0.6199264526367188,0.46744728088378906
322,612581184.0,9.069512367248535,-2.0937929153442383,2.9198179244995117,0.014913558959960938,-0.010652542114257812,-0.0170440673828125,-0.36240100860595703,0.5155696868896484,0.6199264526367188,0.46744728088378906
323,612581184.0,9.113805770874023,-2.1428756713867188,2.970097541809082,0.014913558959960938,-0.010652542114257812,-0.0170440673828125,-0.36240100860595703,0.5155696868896484,0.6199264526367188,0.46744728088378906
324,612581248.0,9.056344032287598,-2.200338363647461,2.9521398544311523,0.040480613708496094,-0.01810932159423828,-0.026632308959960938,-0.36240100860595703,0.5155696868896484,0.6199264526367188,0.46744728088378906
325,612581248.0,9.047964096069336,-2.185972213745117,2.9796743392944336,0.040480613708496094,-0.01810932159423828,-0.026632308959960938,-0.36240100860595703,0.5155696868896484,0.6199264526367188,0.46744728088378906
326,612581248.0,9.056344032287598,-2.200338363647461,2.9521398544311523,0.040480613708496094,-0.01810932159423828,-0.026632308959960938,-0.36240100860595703,0.5155696868896484,0.6199264526367188,0.46744728088378906
327,612581248.0,9.047964096069336,-2.185972213745117,2.9796743392944336,0.040480613708496094,-0.01810932159423828,-0.026632308959960938,-0.36240100860595703,0.5155696868896484,0.6199264526367188,0.46744728088378906
328,612581248.0,9.056344032287598,-2.200338363647461,2.9521398544311523,0.040480613708496094,-0.01810932159423828,-0.026632308959960938,-0.36240100860595703,0.5155696868896484,0.6199264526367188,0.46744728088378906
329,612581248.0,9.047964096069336,-2.185972213745117,2.9796743392944336,0.040480613708496094,-0.01810932159423828,-0.026632308959960938,-0.36240100860595703,0.5155696868896484,0.6199264526367188,0.46744728088378906
330,612581376.0,9.071906089782715,-2.187169075012207,3.094599723815918,0.0,0.0,0.014913558959960938,-0.36240100860595703,0.5155696868896484,0.6199264526367188,0.46744728088378906
331,612581376.0,9.09584903717041,-2.1524524688720703,3.091008186340332,0.0,0.0,0.014913558959960938,-0.36240100860595703,0.5155696868896484,0.6199264526367188,0.46744728088378906
332,612581376.0,9.086272239685059,-2.134495735168457,3.051502227783203,0.0,0.0,0.014913558959960938,-0.36240100860595703,0.5155696868896484,0.6199264526367188,0.46744728088378906
333,612581440.0,9.019232749938965,-2.1428756713867188,3.029953956604004,0.00852203369140625,0.007456779479980469,0.013848304748535156,-0.36240100860595703,0.5155696868896484,0.6199264526367188,0.46744728088378906
334,612581440.0,9.059934616088867,-2.124917984008789,3.0323486328125,0.00852203369140625,0.007456779479980469,0.013848304748535156,-0.36240100860595703,0.5155696868896484,0.6199264526367188,0.46744728088378906
335,612581440.0,9.06592082977295,-2.1153411865234375,3.025165557861328,0.00852203369140625,0.007456779479980469,0.013848304748535156,-0.36240100860595703,0.5155696868896484,0.6199264526367188,0.46744728088378906
336,612581504.0,9.086272239685059,-2.1129465103149414,2.96291446685791,0.00852203369140625,0.007456779479980469,0.013848304748535156,-0.36240100860595703,0.5155696868896484,0.6199264526367188,0.46744728088378906
337,612581504.0,9.04556941986084,-2.1117496490478516,3.000025749206543,0.00852203369140625,0.007456779479980469,0.013848304748535156,-0.36240100860595703,0.5155696868896484,0.6199264526367188,0.46744728088378906
338,612581504.0,9.067117691040039,-2.134495735168457,2.970097541809082,0.00852203369140625,0.007456779479980469,0.013848304748535156,-0.36240100860595703,0.5155696868896484,0.6199264526367188,0.46744728088378906
339,612581568.0,9.09345531463623,-2.1524524688720703,2.9473514556884766,-0.013848304748535156,0.010652542114257812,0.005326271057128906,-0.36240100860595703,0.5155696868896484,0.6199264526367188,0.46744728088378906
340,612581568.0,9.086272239685059,-2.1560440063476562,2.964111328125,-0.013848304748535156,0.010652542114257812,0.005326271057128906,-0.36240100860595703,0.5155696868896484,0.6199264526367188,0.46744728088378906
341,612581568.0,9.059934616088867,-2.1835784912109375,2.9521398544311523,-0.013848304748535156,0.010652542114257812,0.005326271057128906,-0.36240100860595703,0.5155696868896484,0.6199264526367188,0.46744728088378906
342,612581632.0,9.06592082977295,-2.163227081298828,2.9293947219848633,-0.005326271057128906,-0.0021305084228515625,0.022370338439941406,-0.36240100860595703,0.5155696868896484,0.6199264526367188,0.46744728088378906
343,612581632.0,9.140143394470215,-2.162029266357422,2.9653091430664062,-0.005326271057128906,-0.0021305084228515625,0.022370338439941406,-0.36240100860595703,0.5155696868896484,0.6199264526367188,0.46744728088378906
344,612581632.0,9.14493179321289,-2.150057792663574,2.9581260681152344,-0.005326271057128906,-0.0021305084228515625,0.022370338439941406,-0.36240100860595703,0.5155696868896484,0.6199264526367188,0.46744728088378906
345,612581696.0,9.0970458984375,-2.1464672088623047,3.0048141479492188,-0.005326271057128906,-0.0021305084228515625,0.022370338439941406,-0.36240100860595703,0.5155696868896484,0.6199264526367188,0.46744728088378906
346,612581696.0,9.086272239685059,-2.0614700317382812,3.0131940841674805,-0.005326271057128906,-0.0021305084228515625,0.022370338439941406,-0.36240100860595703,0.5155696868896484,0.6199264526367188,0.46744728088378906
347,612581696.0,9.079089164733887,-2.0794267654418945,3.0191802978515625,-0.005326271057128906,-0.0021305084228515625,0.022370338439941406,-0.36240100860595703,0.5155696868896484,0.6199264526367188,0.46744728088378906
348,612581696.0,9.013246536254883,-2.097384452819824,3.0179824829101562,-0.005326271057128906,-0.0021305084228515625,0.022370338439941406,-0.36240100860595703,0.5155696868896484,0.6199264526367188,0.46744728088378906
349,612581696.0,9.0970458984375,-2.1464672088623047,3.0048141479492188,-0.005326271057128906,-0.0021305084228515625,0.022370338439941406,-0.36240100860595703,0.5155696868896484,0.6199264526367188,0.46744728088378906
350,612581696.0,9.086272239685059,-2.0614700317382812,3.0131940841674805,-0.005326271057128906,-0.0021305084228515625,0.022370338439941406,-0.36240100860595703,0.5155696868896484,0.6199264526367188,0.46744728088378906
351,612581696.0,9.079089164733887,-2.0794267654418945,3.0191802978515625,-0.005326271057128906,-0.0021305084228515625,0.022370338439941406,-0.36240100860595703,0.5155696868896484,0.6199264526367188,0.46744728088378906
352,612581696.0,9.013246536254883,-2.097384452819824,3.0179824829101562,-0.005326271057128906,-0.0021305084228515625,0.022370338439941406,-0.36240100860595703,0.5155696868896484,0.6199264526367188,0.46744728088378906
353,612581760.0,9.02521800994873,-2.098581314086914,3.0179824829101562,0.004261016845703125,-0.007456779479980469,-0.010652542114257812,-0.36240100860595703,0.5155696868896484,0.6199264526367188,0.46744728088378906
354,612581760.0,9.02521800994873,-2.098581314086914,3.0179824829101562,0.004261016845703125,-0.007456779479980469,-0.010652542114257812,-0.36240100860595703,0.5155696868896484,0.6199264526367188,0.46744728088378906
355,612581952.0,9.174860000610352,-2.127312660217285,2.900663375854492,0.02982807159423828,-0.005326271057128906,-0.026632308959960938,-0.36188316345214844,0.5145330429077148,0.6219110488891602,0.4664115905761719
356,612582016.0,9.158100128173828,-2.1799869537353516,2.937774658203125,0.02982807159423828,-0.005326271057128906,-0.026632308959960938,-0.36188316345214844,0.5145330429077148,0.6219110488891602,0.4664115905761719
357,612582016.0,9.11739730834961,-2.1512556076049805,2.964111328125,0.02982807159423828,-0.005326271057128906,-0.026632308959960938,-0.36188316345214844,0.5145330429077148,0.6219110488891602,0.4664115905761719
358,612582016.0,9.067117691040039,-2.1476640701293945,2.944957733154297,0.02982807159423828,-0.005326271057128906,-0.026632308959960938,-0.36188316345214844,0.5145330429077148,0.6219110488891602,0.4664115905761719
359,612582016.0,9.051554679870605,-2.1129465103149414,2.96291446685791,0.02982807159423828,-0.005326271057128906,-0.026632308959960938,-0.36188316345214844,0.5145330429077148,0.6219110488891602,0.4664115905761719
360,612582080.0,9.088665962219238,-2.094989776611328,2.9569292068481445,-0.009587287902832031,-0.004261016845703125,0.0,-0.36188316345214844,0.5145330429077148,0.6219110488891602,0.4664115905761719
361,612582080.0,9.067117691040039,-2.124917984008789,2.9868574142456055,-0.009587287902832031,-0.004261016845703125,0.0,-0.36188316345214844,0.5145330429077148,0.6219110488891602,0.4664115905761719
362,612582080.0,9.069512367248535,-2.098581314086914,3.001222610473633,-0.009587287902832031,-0.004261016845703125,0.0,-0.36188316345214844,0.5145330429077148,0.6219110488891602,0.4664115905761719
363,612582144.0,9.080286026000977,-2.094989776611328,2.9796743392944336,-0.025567054748535156,-0.004261016845703125,0.012783050537109375,-0.3617973327636719,0.5146198272705078,0.6213932037353516,0.46701622009277344
364,612582144.0,9.110215187072754,-2.1021728515625,2.971294403076172,-0.025567054748535156,-0.004261016845703125,0.012783050537109375,-0.3617973327636719,0.5146198272705078,0.6213932037353516,0.46701622009277344
365,612582272.0,9.111412048339844,-2.0902013778686523,3.0048141479492188,-0.025567054748535156,-0.004261016845703125,0.012783050537109375,-0.36158084869384766,0.5147924423217773,0.621220588684082,0.4673185348510742
366,612582272.0,9.11500358581543,-2.0506954193115234,2.996434211730957,-0.025567054748535156,-0.004261016845703125,0.012783050537109375,-0.36158084869384766,0.5147924423217773,0.621220588684082,0.4673185348510742
367,612582272.0,9.11620044708252,-2.044710159301758,3.0131940841674805,-0.025567054748535156,-0.004261016845703125,0.012783050537109375,-0.36158084869384766,0.5147924423217773,0.621220588684082,0.4673185348510742
368,612582272.0,9.111412048339844,-2.0902013778686523,3.0048141479492188,-0.025567054748535156,-0.004261016845703125,0.012783050537109375,-0.36158084869384766,0.5147924423217773,0.621220588684082,0.4673185348510742
369,612582272.0,9.11500358581543,-2.0506954193115234,2.996434211730957,-0.025567054748535156,-0.004261016845703125,0.012783050537109375,-0.36158084869384766,0.5147924423217773,0.621220588684082,0.4673185348510742
370,612582272.0,9.11620044708252,-2.044710159301758,3.0131940841674805,-0.025567054748535156,-0.004261016845703125,0.012783050537109375,-0.36158084869384766,0.5147924423217773,0.621220588684082,0.4673185348510742
371,612582336.0,9.105425834655762,-2.0758352279663086,3.03354549407959,-0.0170440673828125,0.007456779479980469,-0.010652542114257812,-0.36158084869384766,0.5147924423217773,0.621220588684082,0.4673185348510742
372,612582336.0,9.091060638427734,-2.0830183029174805,3.007208824157715,-0.0170440673828125,0.007456779479980469,-0.010652542114257812,-0.36158084869384766,0.5147924423217773,0.621220588684082,0.4673185348510742
373,612582336.0,9.105425834655762,-2.0758352279663086,3.03354549407959,-0.0170440673828125,0.007456779479980469,-0.010652542114257812,-0.36158084869384766,0.5147924423217773,0.621220588684082,0.4673185348510742
374,612582336.0,9.091060638427734,-2.0830183029174805,3.007208824157715,-0.0170440673828125,0.007456779479980469,-0.010652542114257812,-0.36158084869384766,0.5147924423217773,0.621220588684082,0.4673185348510742
375,612582464.0,9.098243713378906,-2.0818214416503906,2.967702865600586,-0.009587287902832031,0.012783050537109375,-0.009587287902832031,-0.36158084869384766,0.5147924423217773,0.621220588684082,0.4673185348510742
376,612582464.0,9.119791984558105,-2.0794267654418945,2.940169334411621,-0.009587287902832031,0.012783050537109375,-0.009587287902832031,-0.36158084869384766,0.5147924423217773,0.621220588684082,0.4673185348510742
377,612582528.0,9.083877563476562,-2.1081581115722656,2.9760828018188477,-0.021305084228515625,0.010652542114257812,-0.010652542114257812,-0.36158084869384766,0.5147924423217773,0.621220588684082,0.4673185348510742
378,612582528.0,9.04676628112793,-2.077033042907715,2.9772796630859375,-0.021305084228515625,0.010652542114257812,-0.010652542114257812,-0.36158084869384766,0.5147924423217773,0.621220588684082,0.4673185348510742
379,612582528.0,9.06472396850586,-2.0854129791259766,2.973689079284668,-0.021305084228515625,0.010652542114257812,-0.010652542114257812,-0.36158084869384766,0.5147924423217773,0.621220588684082,0.4673185348510742
380,612582592.0,9.083877563476562,-2.1141443252563477,2.9569292068481445,-0.021305084228515625,0.010652542114257812,-0.010652542114257812,-0.36158084869384766,0.5147924423217773,0.621220588684082,0.4673185348510742
381,612582592.0,9.09465217590332,-2.1117496490478516,2.9545345306396484,-0.021305084228515625,0.010652542114257812,-0.010652542114257812,-0.36158084869384766,0.5147924423217773,0.621220588684082,0.4673185348510742
382,612582592.0,9.06592082977295,-2.150057792663574,2.9473514556884766,-0.021305084228515625,0.010652542114257812,-0.010652542114257812,-0.36158084869384766,0.5147924423217773,0.621220588684082,0.4673185348510742
383,612582592.0,9.061132431030273,-2.1201295852661133,2.938971519470215,-0.021305084228515625,0.010652542114257812,-0.010652542114257812,-0.36158084869384766,0.5147924423217773,0.621220588684082,0.4673185348510742
384,612582656.0,9.100637435913086,-2.124917984008789,2.9724912643432617,0.12357425689697266,0.024501800537109375,0.025567054748535156,-0.36158084869384766,0.5147924423217773,0.621220588684082,0.4673185348510742
385,612582784.0,9.59625244140625,-0.9720754623413086,4.795731544494629,-0.09587669372558594,0.13422679901123047,0.022370338439941406,-0.36158084869384766,0.5147924423217773,0.621220588684082,0.4673185348510742
386,612582784.0,9.42506217956543,-1.6496543884277344,5.340429306030273,-0.09587669372558594,0.13422679901123047,0.022370338439941406,-0.36158084869384766,0.5147924423217773,0.621220588684082,0.4673185348510742
387,612582784.0,9.744697570800781,-1.6017694473266602,5.950969696044922,-0.09587669372558594,0.13422679901123047,0.022370338439941406,-0.36158084869384766,0.5147924423217773,0.621220588684082,0.4673185348510742
388,612582848.0,9.738712310791016,-2.5894079208374023,5.521197319030762,-4.4007415771484375,1.8450937271118164,0.9736804962158203,-0.36158084869384766,0.5147924423217773,0.621220588684082,0.4673185348510742
389,612582848.0,9.95539379119873,-3.648874282836914,6.808119773864746,-4.4007415771484375,1.8450937271118164,0.9736804962158203,-0.36158084869384766,0.5147924423217773,0.621220588684082,0.4673185348510742
390,612583040.0,8.699596405029297,-11.808562278747559,0.15921878814697266,-2.5460596084594727,1.9739952087402344,3.738126754760742,-0.36158084869384766,0.5147924423217773,0.621220588684082,0.4673185348510742
391,612583040.0,8.699596405029297,-11.808562278747559,0.15921878814697266,-2.5460596084594727,1.9739952087402344,3.738126754760742,-0.36158084869384766,0.5147924423217773,0.621220588684082,0.4673185348510742
392,612583104.0,7.0140275955200195,-10.966975212097168,-0.7494077682495117,-2.5460596084594727,1.9739952087402344,3.738126754760742,-0.36158084869384766,0.5147924423217773,0.621220588684082,0.4673185348510742
393,612583104.0,5.20515251159668,-8.964163780212402,-1.1492509841918945,-2.5460596084594727,1.9739952087402344,3.738126754760742,-0.36158084869384766,0.5147924423217773,0.621220588684082,0.4673185348510742
394,612583104.0,3.846402168273926,-7.907092094421387,-0.1185159683227539,-2.5460596084594727,1.9739952087402344,3.738126754760742,-0.36158084869384766,0.5147924423217773,0.621220588684082,0.4673185348510742
395,612583104.0,7.0140275955200195,-10.966975212097168,-0.7494077682495117,-2.5460596084594727,1.9739952087402344,3.738126754760742,-0.36158084869384766,0.5147924423217773,0.621220588684082,0.4673185348510742
396,612583104.0,5.20515251159668,-8.964163780212402,-1.1492509841918945,-2.5460596084594727,1.9739952087402344,3.738126754760742,-0.36158084869384766,0.5147924423217773,0.621220588684082,0.4673185348510742
397,612583104.0,3.846402168273926,-7.907092094421387,-0.1185159683227539,-2.5460596084594727,1.9739952087402344,3.738126754760742,-0.36158084869384766,0.5147924423217773,0.621220588684082,0.4673185348510742
398,612583168.0,3.34360408782959,-7.369577407836914,0.17238712310791016,-2.5460596084594727,1.9739952087402344,3.738126754760742,-0.36158084869384766,0.5147924423217773,0.621220588684082,0.4673185348510742
399,612583168.0,3.34360408782959,-7.369577407836914,0.17238712310791016,-2.5460596084594727,1.9739952087402344,3.738126754760742,-0.36158084869384766,0.5147924423217773,0.621220588684082,0.4673185348510742
400,612583168.0,2.2745609283447266,-6.525595664978027,-1.0211572647094727,-2.5460596084594727,1.9739952087402344,3.738126754760742,-0.36158084869384766,0.5147924423217773,0.621220588684082,0.4673185348510742
401,612583168.0,1.1612224578857422,-5.338034629821777,-1.3000907897949219,-2.5460596084594727,1.9739952087402344,3.738126754760742,-0.36158084869384766,0.5147924423217773,0.621220588684082,0.4673185348510742
402,612583168.0,0.3914632797241211,-4.46292781829834,-0.6835651397705078,-2.5460596084594727,1.9739952087402344,3.738126754760742,-0.36158084869384766,0.5147924423217773,0.621220588684082,0.4673185348510742
403,612583232.0,-0.1759786605834961,-4.3180742263793945,-0.1053476333618164,-2.288257598876953,-0.5678024291992188,4.821533203125,-0.36158084869384766,0.5147924423217773,0.621220588684082,0.4673185348510742
404,612583232.0,-0.8691215515136719,-4.333636283874512,-0.5590629577636719,-2.288257598876953,-0.5678024291992188,4.821533203125,-0.36158084869384766,0.5147924423217773,0.621220588684082,0.4673185348510742
405,612583232.0,-2.0279502868652344,-3.2681846618652344,-0.7529993057250977,-2.288257598876953,-0.5678024291992188,4.821533203125,-0.36158084869384766,0.5147924423217773,0.621220588684082,0.4673185348510742
406,612583296.0,-2.525959014892578,-3.7578134536743164,-0.40822315216064453,-3.908574104309082,-1.682103157043457,3.6624908447265625,-0.36158084869384766,0.5147924423217773,0.621220588684082,0.4673185348510742
407,612583296.0,-2.8671436309814453,-3.794924736022949,-0.4525175094604492,-3.908574104309082,-1.682103157043457,3.6624908447265625,-0.36158084869384766,0.5147924423217773,0.621220588684082,0.4673185348510742
408,612583296.0,-3.5016260147094727,-4.160052299499512,-0.9744691848754883,-3.908574104309082,-1.682103157043457,3.6624908447265625,-0.36158084869384766,0.5147924423217773,0.621220588684082,0.4673185348510742
409,612583360.0,-4.0379438400268555,-4.003227233886719,-1.3539619445800781,-4.068368911743164,-2.139115333557129,3.144756317138672,-0.36158084869384766,0.5147924423217773,0.621220588684082,0.4673185348510742
410,612583360.0,-3.994847297668457,-4.350397109985352,-1.5981779098510742,-4.068368911743164,-2.139115333557129,3.144756317138672,-0.36158084869384766,0.5147924423217773,0.621220588684082,0.4673185348510742
411,612583360.0,-4.104983329772949,-5.288952827453613,-0.6847620010375977,-4.068368911743164,-2.139115333557129,3.144756317138672,-0.36158084869384766,0.5147924423217773,0.621220588684082,0.4673185348510742
412,612583360.0,-3.994847297668457,-4.350397109985352,-1.5981779098510742,-4.068368911743164,-2.139115333557129,3.144756317138672,-0.36158084869384766,0.5147924423217773,0.621220588684082,0.4673185348510742
413,612583360.0,-4.104983329772949,-5.288952827453613,-0.6847620010375977,-4.068368911743164,-2.139115333557129,3.144756317138672,-0.36158084869384766,0.5147924423217773,0.621220588684082,0.4673185348510742
414,612583424.0,-1.7346515655517578,-6.958958625793457,2.753415107727051,-0.3973550796508789,-6.490853309631348,0.3685922622680664,-0.36158084869384766,0.5147924423217773,0.621220588684082,0.4673185348510742
415,612583424.0,0.2597780227661133,-4.867560386657715,10.422277450561523,-0.3973550796508789,-6.490853309631348,0.3685922622680664,-0.36158084869384766,0.5147924423217773,0.621220588684082,0.4673185348510742
416,612583424.0,-1.7346515655517578,-6.958958625793457,2.753415107727051,-0.3973550796508789,-6.490853309631348,0.3685922622680664,-0.36158084869384766,0.5147924423217773,0.621220588684082,0.4673185348510742
417,612583424.0,0.2597780227661133,-4.867560386657715,10.422277450561523,-0.3973550796508789,-6.490853309631348,0.3685922622680664,-0.36158084869384766,0.5147924423217773,0.621220588684082,0.4673185348510742
418,612583424.0,7.531190872192383,12.845283508300781,-0.34597206115722656,-0.3973550796508789,-6.490853309631348,0.3685922622680664,-0.36158084869384766,0.5147924423217773,0.621220588684082,0.4673185348510742
419,612583488.0,6.421443939208984,-27.06488037109375,27.78915023803711,0.7510337829589844,0.24927902221679688,-0.29082584381103516,-0.36158084869384766,0.5147924423217773,0.621220588684082,0.4673185348510742
420,612583488.0,-17.965438842773438,-2.2135066986083984,12.33889389038086,0.7510337829589844,0.24927902221679688,-0.29082584381103516,-0.36158084869384766,0.5147924423217773,0.621220588684082,0.4673185348510742
421,612583488.0,-5.327260971069336,-6.182016372680664,-1.1528425216674805,0.7510337829589844,0.24927902221679688,-0.29082584381103516,-0.36158084869384766,0.5147924423217773,0.621220588684082,0.4673185348510742
422,612583488.0,-3.553103446960449,0.6153278350830078,8.533194541931152,0.7510337829589844,0.24927902221679688,-0.29082584381103516,-0.36158084869384766,0.5147924423217773,0.621220588684082,0.4673185348510742
423,612583552.0,-5.764215469360352,-4.291736602783203,9.731529235839844,-0.19175338745117188,0.9715499877929688,-0.033023834228515625,-0.36158084869384766,0.5147924423217773,0.621220588684082,0.4673185348510742
424,612583552.0,-9.745894432067871,-3.7494335174560547,3.8487958908081055,-0.19175338745117188,0.9715499877929688,-0.033023834228515625,-0.36158084869384766,0.5147924423217773,0.621220588684082,0.4673185348510742
425,612583552.0,-12.67768383026123,-6.865582466125488,-4.739466667175293,-0.19175338745117188,0.9715499877929688,-0.033023834228515625,-0.36158084869384766,0.5147924423217773,0.621220588684082,0.4673185348510742
426,612583616.0,-16.703657150268555,-6.561509132385254,-11.772647857666016,-0.19175338745117188,0.9715499877929688,-0.033023834228515625,-0.36158084869384766,0.5147924423217773,0.621220588684082,0.4673185348510742
427,612583616.0,-15.052804946899414,-7.49647331237793,-14.101080894470215,-0.19175338745117188,0.9715499877929688,-0.033023834228515625,-0.36158084869384766,0.5147924423217773,0.621220588684082,0.4673185348510742
428,612583616.0,-9.444215774536133,-7.659284591674805,-8.469746589660645,-0.19175338745117188,0.9715499877929688,-0.033023834228515625,-0.36158084869384766,0.5147924423217773,0.621220588684082,0.4673185348510742
429,612583680.0,-9.177254676818848,-0.7242679595947266,-2.437371253967285,0.7648830413818359,2.8592567443847656,-0.449554443359375,-0.36158084869384766,0.5147924423217773,0.621220588684082,0.4673185348510742
430,612583680.0,12.519661903381348,-3.770981788635254,34.55177688598633,0.7648830413818359,2.8592567443847656,-0.449554443359375,-0.36158084869384766,0.5147924423217773,0.621220588684082,0.4673185348510742
431,612583680.0,1.037917137145996,-0.1915416717529297,12.568744659423828,0.7648830413818359,2.8592567443847656,-0.449554443359375,-0.36158084869384766,0.5147924423217773,0.621220588684082,0.4673185348510742
432,612583744.0,-16.886817932128906,-1.883096694946289,3.6967592239379883,0.7936458587646484,-0.25034427642822266,-0.5539541244506836,-0.36158084869384766,0.5147924423217773,0.621220588684082,0.4673185348510742
433,612583744.0,0.29090404510498047,4.017592430114746,8.637345314025879,0.7936458587646484,-0.25034427642822266,-0.5539541244506836,-0.36158084869384766,0.5147924423217773,0.621220588684082,0.4673185348510742
434,612583744.0,0.11133289337158203,-1.2593879699707031,8.739102363586426,0.7936458587646484,-0.25034427642822266,-0.5539541244506836,-0.36158084869384766,0.5147924423217773,0.621220588684082,0.4673185348510742
435,612583808.0,-3.1185426712036133,-3.769784927368164,9.873988151550293,0.7936458587646484,-0.25034427642822266,-0.5539541244506836,-0.36158084869384766,0.5147924423217773,0.621220588684082,0.4673185348510742
436,612583808.0,-2.853975296020508,-1.7945079803466797,11.158516883850098,0.7936458587646484,-0.25034427642822266,-0.5539541244506836,-0.36158084869384766,0.5147924423217773,0.621220588684082,0.4673185348510742
437,612583808.0,-1.9285879135131836,-2.667222023010254,9.567521095275879,0.7936458587646484,-0.25034427642822266,-0.5539541244506836,-0.36158084869384766,0.5147924423217773,0.621220588684082,0.4673185348510742
438,612583808.0,-1.7681713104248047,-2.377513885498047,6.802133560180664,0.7936458587646484,-0.25034427642822266,-0.5539541244506836,-0.36158084869384766,0.5147924423217773,0.621220588684082,0.4673185348510742
439,612583872.0,-2.0231618881225586,-3.5303573608398438,4.904671669006348,0.7936458587646484,-0.25034427642822266,-0.5539541244506836,-0.36158084869384766,0.5147924423217773,0.621220588684082,0.4673185348510742
440,612583872.0,-1.7202863693237305,-3.7290821075439453,3.1963558197021484,0.7936458587646484,-0.25034427642822266,-0.5539541244506836,-0.36158084869384766,0.5147924423217773,0.621220588684082,0.4673185348510742
441,612583872.0,-1.5347299575805664,-3.9397783279418945,2.779752731323242,0.7936458587646484,-0.25034427642822266,-0.5539541244506836,-0.36158084869384766,0.5147924423217773,0.621220588684082,0.4673185348510742
442,612583872.0,-2.0231618881225586,-3.5303573608398438,4.904671669006348,0.7936458587646484,-0.25034427642822266,-0.5539541244506836,-0.36158084869384766,0.5147924423217773,0.621220588684082,0.4673185348510742
443,612583872.0,-1.7202863693237305,-3.7290821075439453,3.1963558197021484,0.7936458587646484,-0.25034427642822266,-0.5539541244506836,-0.36158084869384766,0.5147924423217773,0.621220588684082,0.4673185348510742
444,612583872.0,-1.5347299575805664,-3.9397783279418945,2.779752731323242,0.7936458587646484,-0.25034427642822266,-0.5539541244506836,-0.36158084869384766,0.5147924423217773,0.621220588684082,0.4673185348510742
445,612583936.0,-0.9277811050415039,-5.925829887390137,2.873128890991211,2.526884078979492,0.9406566619873047,-5.1752119064331055,-0.36158084869384766,0.5147924423217773,0.621220588684082,0.4673185348510742
446,612583936.0,-0.5806112289428711,-6.069485664367676,3.839219093322754,2.526884078979492,0.9406566619873047,-5.1752119064331055,-0.36158084869384766,0.5147924423217773,0.621220588684082,0.4673185348510742
447,612583936.0,-0.9277811050415039,-5.925829887390137,2.873128890991211,2.526884078979492,0.9406566619873047,-5.1752119064331055,-0.36158084869384766,0.5147924423217773,0.621220588684082,0.4673185348510742
448,612583936.0,-0.5806112289428711,-6.069485664367676,3.839219093322754,2.526884078979492,0.9406566619873047,-5.1752119064331055,-0.36158084869384766,0.5147924423217773,0.621220588684082,0.4673185348510742
449,612583936.0,-0.3387889862060547,-6.06350040435791,3.7458419799804688,2.526884078979492,0.9406566619873047,-5.1752119064331055,-0.36158084869384766,0.5147924423217773,0.621220588684082,0.4673185348510742
450,612584000.0,-0.6691989898681641,-5.788158416748047,2.807286262512207,1.3422737121582031,0.5294523239135742,-5.927311897277832,-0.36158084869384766,0.5147924423217773,0.621220588684082,0.4673185348510742
451,612584000.0,-0.9086265563964844,-5.262615203857422,1.7166948318481445,1.3422737121582031,0.5294523239135742,-5.927311897277832,-0.36158084869384766,0.5147924423217773,0.621220588684082,0.4673185348510742
452,612584000.0,-0.14605045318603516,-6.222719192504883,1.3814964294433594,1.3422737121582031,0.5294523239135742,-5.927311897277832,-0.36158084869384766,0.5147924423217773,0.621220588684082,0.4673185348510742
453,612584064.0,1.9106311798095703,-9.49569320678711,2.2745609283447266,0.7094869613647461,0.22797298431396484,-5.832500457763672,-0.36158084869384766,0.5147924423217773,0.621220588684082,0.4673185348510742
454,612584064.0,2.0578784942626953,-8.37397575378418,1.4377613067626953,0.7094869613647461,0.22797298431396484,-5.832500457763672,-0.36158084869384766,0.5147924423217773,0.621220588684082,0.4673185348510742
455,612584064.0,1.699934959411621,-7.646116256713867,1.7693681716918945,0.7094869613647461,0.22797298431396484,-5.832500457763672,-0.36158084869384766,0.5147924423217773,0.621220588684082,0.4673185348510742
456,612584064.0,2.29132080078125,-8.620585441589355,1.877110481262207,0.7094869613647461,0.22797298431396484,-5.832500457763672,-0.36158084869384766,0.5147924423217773,0.621220588684082,0.4673185348510742
457,612584128.0,3.0383338928222656,-10.344463348388672,2.661235809326172,0.7094869613647461,0.22797298431396484,-5.832500457763672,-0.36158084869384766,0.5147924423217773,0.621220588684082,0.4673185348510742
458,612584128.0,4.662849426269531,-12.541210174560547,3.338815689086914,0.7094869613647461,0.22797298431396484,-5.832500457763672,-0.36158084869384766,0.5147924423217773,0.621220588684082,0.4673185348510742
459,612584128.0,4.260611534118652,-11.19562816619873,3.237058639526367,0.7094869613647461,0.22797298431396484,-5.832500457763672,-0.36158084869384766,0.5147924423217773,0.621220588684082,0.4673185348510742
460,612584192.0,4.6221466064453125,-10.172075271606445,2.123721122741699,0.7094869613647461,0.22797298431396484,-5.832500457763672,-0.36158084869384766,0.5147924423217773,0.621220588684082,0.4673185348510742
461,612584192.0,7.022407531738281,-11.284215927124023,2.782146453857422,0.7094869613647461,0.22797298431396484,-5.832500457763672,-0.36158084869384766,0.5147924423217773,0.621220588684082,0.4673185348510742
462,612584192.0,8.942615509033203,-10.840078353881836,4.800519943237305,0.7094869613647461,0.22797298431396484,-5.832500457763672,-0.36158084869384766,0.5147924423217773,0.621220588684082,0.4673185348510742
463,612584256.0,9.162888526916504,-8.688822746276855,5.747455596923828,1.9580154418945312,-2.861387252807617,-3.6507720947265625,-0.36158084869384766,0.5147924423217773,0.621220588684082,0.4673185348510742
464,612584384.0,11.463787078857422,-5.0531158447265625,7.617384910583496,-0.3813762664794922,-0.853302001953125,-0.8138866424560547,-0.36158084869384766,0.5147924423217773,0.621220588684082,0.4673185348510742
465,612584384.0,10.224749565124512,-5.355992317199707,7.757449150085449,-0.3813762664794922,-0.853302001953125,-0.8138866424560547,-0.36158084869384766,0.5147924423217773,0.621220588684082,0.4673185348510742
466,612584384.0,9.69681167602539,-5.118958473205566,7.903500556945801,-0.3813762664794922,-0.853302001953125,-0.8138866424560547,-0.36158084869384766,0.5147924423217773,0.621220588684082,0.4673185348510742
467,612584448.0,9.082680702209473,-4.019987106323242,7.506051063537598,-0.019174575805664062,-0.5688676834106445,0.14594554901123047,-0.36158084869384766,0.5147924423217773,0.621220588684082,0.4673185348510742
468,612584448.0,8.832478523254395,-3.4214181900024414,7.213949203491211,-0.019174575805664062,-0.5688676834106445,0.14594554901123047,-0.36158084869384766,0.5147924423217773,0.621220588684082,0.4673185348510742
469,612584576.0,8.90550422668457,-2.1452693939208984,4.606583595275879,-0.5656719207763672,-0.061786651611328125,0.3877677917480469,-0.36158084869384766,0.5147924423217773,0.621220588684082,0.4673185348510742
470,612584576.0,9.002472877502441,-2.3092775344848633,4.078646659851074,-0.5656719207763672,-0.061786651611328125,0.3877677917480469,-0.36158084869384766,0.5147924423217773,0.621220588684082,0.4673185348510742
471,612584576.0,9.253870964050293,-2.348782539367676,3.5734548568725586,-0.5656719207763672,-0.061786651611328125,0.3877677917480469,-0.36158084869384766,0.5147924423217773,0.621220588684082,0.4673185348510742
472,612584576.0,8.90550422668457,-2.1452693939208984,4.606583595275879,-0.5656719207763672,-0.061786651611328125,0.3877677917480469,-0.36158084869384766,0.5147924423217773,0.621220588684082,0.4673185348510742
473,612584576.0,9.002472877502441,-2.3092775344848633,4.078646659851074,-0.5656719207763672,-0.061786651611328125,0.3877677917480469,-0.36158084869384766,0.5147924423217773,0.621220588684082,0.4673185348510742
474,612584576.0,9.253870964050293,-2.348782539367676,3.5734548568725586,-0.5656719207763672,-0.061786651611328125,0.3877677917480469,-0.36158084869384766,0.5147924423217773,0.621220588684082,0.4673185348510742
475,612584640.0,9.153311729431152,-2.230266571044922,3.1652307510375977,-0.15872859954833984,0.01597881317138672,0.41333484649658203,-0.36158084869384766,0.5147924423217773,0.621220588684082,0.4673185348510742
476,612584640.0,8.942615509033203,-2.1955490112304688,3.062276840209961,-0.15872859954833984,0.01597881317138672,0.41333484649658203,-0.36158084869384766,0.5147924423217773,0.621220588684082,0.4673185348510742
477,612584640.0,9.153311729431152,-2.230266571044922,3.1652307510375977,-0.15872859954833984,0.01597881317138672,0.41333484649658203,-0.36158084869384766,0.5147924423217773,0.621220588684082,0.4673185348510742
478,612584640.0,8.942615509033203,-2.1955490112304688,3.062276840209961,-0.15872859954833984,0.01597881317138672,0.41333484649658203,-0.36158084869384766,0.5147924423217773,0.621220588684082,0.4673185348510742
479,612584768.0,8.898321151733398,-2.0267534255981445,2.936577796936035,0.06498241424560547,-0.10865974426269531,0.3739185333251953,-0.36158084869384766,0.5147924423217773,0.621220588684082,0.4673185348510742
480,612584768.0,8.821704864501953,-2.073441505432129,2.628912925720215,0.06498241424560547,-0.10865974426269531,0.3739185333251953,-0.36158084869384766,0.5147924423217773,0.621220588684082,0.4673185348510742
481,612584768.0,8.626571655273438,-2.0566816329956055,2.6085615158081055,0.06498241424560547,-0.10865974426269531,0.3739185333251953,-0.36158084869384766,0.5147924423217773,0.621220588684082,0.4673185348510742
482,612584768.0,8.898321151733398,-2.0267534255981445,2.936577796936035,0.06498241424560547,-0.10865974426269531,0.3739185333251953,-0.36158084869384766,0.5147924423217773,0.621220588684082,0.4673185348510742
483,612584768.0,8.821704864501953,-2.073441505432129,2.628912925720215,0.06498241424560547,-0.10865974426269531,0.3739185333251953,-0.36158084869384766,0.5147924423217773,0.621220588684082,0.4673185348510742
484,612584768.0,8.626571655273438,-2.0566816329956055,2.6085615158081055,0.06498241424560547,-0.10865974426269531,0.3739185333251953,-0.36158084869384766,0.5147924423217773,0.621220588684082,0.4673185348510742
485,612584832.0,8.669668197631836,-2.22308349609375,2.8024978637695312,0.07883167266845703,-0.16831684112548828,0.28549957275390625,-0.36158084869384766,0.5147924423217773,0.621220588684082,0.4673185348510742
486,612584832.0,8.698399543762207,-2.306882858276367,2.973689079284668,0.07883167266845703,-0.16831684112548828,0.28549957275390625,-0.36158084869384766,0.5147924423217773,0.621220588684082,0.4673185348510742
487,612584832.0,8.669668197631836,-2.22308349609375,2.8024978637695312,0.07883167266845703,-0.16831684112548828,0.28549957275390625,-0.36158084869384766,0.5147924423217773,0.621220588684082,0.4673185348510742
488,612584832.0,8.698399543762207,-2.306882858276367,2.973689079284668,0.07883167266845703,-0.16831684112548828,0.28549957275390625,-0.36158084869384766,0.5147924423217773,0.621220588684082,0.4673185348510742
489,612584832.0,8.658893585205078,-2.322445869445801,3.0167856216430664,0.07883167266845703,-0.16831684112548828,0.28549957275390625,-0.36158084869384766,0.5147924423217773,0.621220588684082,0.4673185348510742
490,612584896.0,8.640936851501465,-2.3882884979248047,3.029953956604004,0.07883167266845703,-0.16831684112548828,0.28549957275390625,-0.36158084869384766,0.5147924423217773,0.621220588684082,0.4673185348510742
491,612584896.0,8.567911148071289,-2.406245231628418,3.1149511337280273,0.07883167266845703,-0.16831684112548828,0.28549957275390625,-0.36158084869384766,0.5147924423217773,0.621220588684082,0.4673185348510742
492,612584896.0,8.619388580322266,-2.448145866394043,3.2298765182495117,0.07883167266845703,-0.16831684112548828,0.28549957275390625,-0.36158084869384766,0.5147924423217773,0.621220588684082,0.4673185348510742
493,612584960.0,8.948601722717285,-2.5235652923583984,3.3819122314453125,0.184295654296875,-0.2301034927368164,-0.06498241424560547,-0.36158084869384766,0.5147924423217773,0.621220588684082,0.4673185348510742
494,612584960.0,9.038386344909668,-2.4553279876708984,3.390292167663574,0.184295654296875,-0.2301034927368164,-0.06498241424560547,-0.36158084869384766,0.5147924423217773,0.621220588684082,0.4673185348510742
495,612584960.0,8.83487319946289,-2.5786333084106445,3.470500946044922,0.184295654296875,-0.2301034927368164,-0.06498241424560547,-0.36158084869384766,0.5147924423217773,0.621220588684082,0.4673185348510742
496,612585024.0,8.851633071899414,-2.7091217041015625,3.580636978149414,0.3504819869995117,-0.21625518798828125,-0.08415794372558594,-0.36158084869384766,0.5147924423217773,0.621220588684082,0.4673185348510742
497,612585024.0,8.90550422668457,-2.836017608642578,3.5674686431884766,0.3504819869995117,-0.21625518798828125,-0.08415794372558594,-0.36158084869384766,0.5147924423217773,0.621220588684082,0.4673185348510742
498,612585024.0,8.885152816772461,-2.8024978637695312,3.5758485794067383,0.3504819869995117,-0.21625518798828125,-0.08415794372558594,-0.36158084869384766,0.5147924423217773,0.621220588684082,0.4673185348510742
499,612585152.0,8.882759094238281,-2.72348690032959,3.6728172302246094,0.19175338745117188,-0.07776641845703125,-0.04900360107421875,-0.36158084869384766,0.5147924423217773,0.621220588684082,0.4673185348510742
500,612585152.0,9.014443397521973,-2.7222900390625,3.5961999893188477,0.19175338745117188,-0.07776641845703125,-0.04900360107421875,-0.36158084869384766,0.5147924423217773,0.621220588684082,0.4673185348510742
501,612585152.0,8.882759094238281,-2.72348690032959,3.6728172302246094,0.19175338745117188,-0.07776641845703125,-0.04900360107421875,-0.36158084869384766,0.5147924423217773,0.621220588684082,0.4673185348510742
502,612585152.0,9.014443397521973,-2.7222900390625,3.5961999893188477,0.19175338745117188,-0.07776641845703125,-0.04900360107421875,-0.36158084869384766,0.5147924423217773,0.621220588684082,0.4673185348510742
503,612585216.0,8.992895126342773,-2.778554916381836,3.3890953063964844,0.19175338745117188,-0.07776641845703125,-0.04900360107421875,-0.36158084869384766,0.5147924423217773,0.621220588684082,0.4673185348510742
504,612585216.0,8.900715827941895,-2.7103185653686523,3.338815689086914,0.19175338745117188,-0.07776641845703125,-0.04900360107421875,-0.36158084869384766,0.5147924423217773,0.621220588684082,0.4673185348510742
505,612585216.0,8.900715827941895,-2.7713727951049805,3.3914899826049805,0.19175338745117188,-0.07776641845703125,-0.04900360107421875,-0.36158084869384766,0.5147924423217773,0.621220588684082,0.4673185348510742
506,612585216.0,8.992895126342773,-2.778554916381836,3.3890953063964844,0.19175338745117188,-0.07776641845703125,-0.04900360107421875,-0.36158084869384766,0.5147924423217773,0.621220588684082,0.4673185348510742
507,612585216.0,8.900715827941895,-2.7103185653686523,3.338815689086914,0.19175338745117188,-0.07776641845703125,-0.04900360107421875,-0.36158084869384766,0.5147924423217773,0.621220588684082,0.4673185348510742
508,612585216.0,8.900715827941895,-2.7713727951049805,3.3914899826049805,0.19175338745117188,-0.07776641845703125,-0.04900360107421875,-0.36158084869384766,0.5147924423217773,0.621220588684082,0.4673185348510742
509,612585344.0,8.87437915802002,-2.569056510925293,2.930591583251953,-0.03515434265136719,0.03728485107421875,0.054329872131347656,-0.36158084869384766,0.5147924423217773,0.621220588684082,0.4673185348510742
510,612585344.0,8.846844673156738,-2.679192543029785,2.874326705932617,-0.03515434265136719,0.03728485107421875,0.054329872131347656,-0.36158084869384766,0.5147924423217773,0.621220588684082,0.4673185348510742
511,612585344.0,8.87437915802002,-2.569056510925293,2.930591583251953,-0.03515434265136719,0.03728485107421875,0.054329872131347656,-0.36158084869384766,0.5147924423217773,0.621220588684082,0.4673185348510742
512,612585344.0,8.846844673156738,-2.679192543029785,2.874326705932617,-0.03515434265136719,0.03728485107421875,0.054329872131347656,-0.36158084869384766,0.5147924423217773,0.621220588684082,0.4673185348510742
513,612585408.0,8.819310188293457,-2.6145477294921875,2.8779172897338867,-0.011717796325683594,0.0,0.06817817687988281,-0.36158084869384766,0.5147924423217773,0.621220588684082,0.4673185348510742
514,612585408.0,8.83607006072998,-2.564268112182617,2.941366195678711,-0.011717796325683594,0.0,0.06817817687988281,-0.36158084869384766,0.5147924423217773,0.621220588684082,0.4673185348510742
515,612585408.0,8.8767728805542,-2.539128303527832,2.882706642150879,-0.011717796325683594,0.0,0.06817817687988281,-0.36158084869384766,0.5147924423217773,0.621220588684082,0.4673185348510742
516,612585408.0,8.819310188293457,-2.6145477294921875,2.8779172897338867,-0.011717796325683594,0.0,0.06817817687988281,-0.36158084869384766,0.5147924423217773,0.621220588684082,0.4673185348510742
517,612585408.0,8.83607006072998,-2.564268112182617,2.941366195678711,-0.011717796325683594,0.0,0.06817817687988281,-0.36158084869384766,0.5147924423217773,0.621220588684082,0.4673185348510742
518,612585408.0,8.8767728805542,-2.539128303527832,2.882706642150879,-0.011717796325683594,0.0,0.06817817687988281,-0.36158084869384766,0.5147924423217773,0.621220588684082,0.4673185348510742
519,612585472.0,8.919870376586914,-2.565464973449707,2.8252439498901367,-0.011717796325683594,0.0,0.06817817687988281,-0.36158084869384766,0.5147924423217773,0.621220588684082,0.4673185348510742
520,612585472.0,8.918672561645508,-2.5175790786743164,2.853975296020508,-0.011717796325683594,0.0,0.06817817687988281,-0.36158084869384766,0.5147924423217773,0.621220588684082,0.4673185348510742
521,612585472.0,8.818113327026367,-2.596590042114258,2.941366195678711,-0.011717796325683594,0.0,0.06817817687988281,-0.36158084869384766,0.5147924423217773,0.621220588684082,0.4673185348510742
522,612585536.0,8.813324928283691,-2.535536766052246,3.0143909454345703,0.011717796325683594,-0.061786651611328125,-0.040480613708496094,-0.36158084869384766,0.5147924423217773,0.621220588684082,0.4673185348510742
523,612585536.0,8.83607006072998,-2.5894079208374023,2.997631072998047,0.011717796325683594,-0.061786651611328125,-0.040480613708496094,-0.36158084869384766,0.5147924423217773,0.621220588684082,0.4673185348510742
524,612585536.0,8.855224609375,-2.6372928619384766,3.051502227783203,0.011717796325683594,-0.061786651611328125,-0.040480613708496094,-0.36158084869384766,0.5147924423217773,0.621220588684082,0.4673185348510742
525,612585600.0,8.88634967803955,-2.6432790756225586,3.1125564575195312,-0.011717796325683594,-0.061786651611328125,-0.026632308959960938,-0.36158084869384766,0.5147924423217773,0.621220588684082,0.4673185348510742
526,612585600.0,8.893532752990723,-2.664827346801758,3.1592445373535156,-0.011717796325683594,-0.061786651611328125,-0.026632308959960938,-0.36158084869384766,0.5147924423217773,0.621220588684082,0.4673185348510742
527,612585600.0,8.917475700378418,-2.700741767883301,3.15445613861084,-0.011717796325683594,-0.061786651611328125,-0.026632308959960938,-0.36158084869384766,0.5147924423217773,0.621220588684082,0.4673185348510742
528,612585600.0,8.948601722717285,-2.7043323516845703,3.126922607421875,-0.011717796325683594,-0.061786651611328125,-0.026632308959960938,-0.36158084869384766,0.5147924423217773,0.621220588684082,0.4673185348510742
529,612585728.0,8.87437915802002,-2.700741767883301,3.1700191497802734,0.01597881317138672,-0.021305084228515625,0.005326271057128906,-0.3294715881347656,0.5185470581054688,0.6187610626220703,0.48958778381347656
530,612585792.0,8.937827110290527,-2.689967155456543,3.174807548522949,0.01597881317138672,-0.021305084228515625,0.005326271057128906,-0.3293418884277344,0.5182018280029297,0.6193647384643555,0.4891996383666992
531,612585792.0,8.99528980255127,-2.664827346801758,3.1676254272460938,0.01597881317138672,-0.021305084228515625,0.005326271057128906,-0.3293418884277344,0.5182018280029297,0.6193647384643555,0.4891996383666992
532,612585792.0,8.966558456420898,-2.6803903579711914,3.1053733825683594,0.01597881317138672,-0.021305084228515625,0.005326271057128906,-0.3293418884277344,0.5182018280029297,0.6193647384643555,0.4891996383666992
533,612585856.0,8.921067237854004,-2.6552505493164062,3.065868377685547,0.03621959686279297,0.007456779479980469,0.020239830017089844,-0.3293418884277344,0.5182018280029297,0.6193647384643555,0.4891996383666992
534,612585856.0,8.931840896606445,-2.7019386291503906,3.0862197875976562,0.03621959686279297,0.007456779479980469,0.020239830017089844,-0.3293418884277344,0.5182018280029297,0.6193647384643555,0.4891996383666992
535,612585856.0,8.931840896606445,-2.620532989501953,3.0682621002197266,0.03621959686279297,0.007456779479980469,0.020239830017089844,-0.3293418884277344,0.5182018280029297,0.6193647384643555,0.4891996383666992
536,612585920.0,8.966558456420898,-2.595393180847168,3.064671516418457,0.026632308959960938,0.0031957626342773438,0.0063915252685546875,-0.3293418884277344,0.5182018280029297,0.6193647384643555,0.4891996383666992
537,612585920.0,8.864801406860352,-2.6408843994140625,3.0155887603759766,0.026632308959960938,0.0031957626342773438,0.0063915252685546875,-0.3293418884277344,0.5182018280029297,0.6193647384643555,0.4891996383666992
538,612585920.0,8.822901725769043,-2.5774364471435547,2.9844627380371094,0.026632308959960938,0.0031957626342773438,0.0063915252685546875,-0.3293418884277344,0.5182018280029297,0.6193647384643555,0.4891996383666992
539,612585984.0,8.953390121459961,-2.634899139404297,3.010800361633301,0.026632308959960938,0.0031957626342773438,0.0063915252685546875,-0.3293418884277344,0.5182018280029297,0.6193647384643555,0.4891996383666992
540,612585984.0,8.921067237854004,-2.625321388244629,2.9545345306396484,0.026632308959960938,0.0031957626342773438,0.0063915252685546875,-0.3293418884277344,0.5182018280029297,0.6193647384643555,0.4891996383666992
541,612585984.0,8.861209869384766,-2.661235809326172,2.959322929382324,0.026632308959960938,0.0031957626342773438,0.0063915252685546875,-0.3293418884277344,0.5182018280029297,0.6193647384643555,0.4891996383666992
542,612585984.0,8.910292625427246,-2.6121530532836914,2.967702865600586,0.026632308959960938,0.0031957626342773438,0.0063915252685546875,-0.3293418884277344,0.5182018280029297,0.6193647384643555,0.4891996383666992
543,612586048.0,8.915081024169922,-2.6145477294921875,2.9784774780273438,-0.0287628173828125,-0.007456779479980469,0.012783050537109375,-0.3293418884277344,0.5182018280029297,0.6193647384643555,0.4891996383666992
544,612586048.0,8.961770057678223,-2.595393180847168,2.973689079284668,-0.0287628173828125,-0.007456779479980469,0.012783050537109375,-0.3293418884277344,0.5182018280029297,0.6193647384643555,0.4891996383666992
545,612586048.0,8.92705249786377,-2.6468706130981445,2.9569292068481445,-0.0287628173828125,-0.007456779479980469,0.012783050537109375,-0.3293418884277344,0.5182018280029297,0.6193647384643555,0.4891996383666992
546,612586112.0,8.894729614257812,-2.686375617980957,2.974885940551758,-0.010652542114257812,-0.020239830017089844,0.00852203369140625,-0.3293418884277344,0.5182018280029297,0.6193647384643555,0.4891996383666992
547,612586112.0,8.911490440368652,-2.559478759765625,3.0131940841674805,-0.010652542114257812,-0.020239830017089844,0.00852203369140625,-0.3293418884277344,0.5182018280029297,0.6193647384643555,0.4891996383666992
548,612586112.0,8.90550422668457,-2.53314208984375,3.025165557861328,-0.010652542114257812,-0.020239830017089844,0.00852203369140625,-0.3293418884277344,0.5182018280029297,0.6193647384643555,0.4891996383666992
549,612586176.0,8.888744354248047,-2.6001815795898438,3.0179824829101562,-0.010652542114257812,-0.020239830017089844,0.00852203369140625,-0.3293418884277344,0.5182018280029297,0.6193647384643555,0.4891996383666992
550,612586176.0,8.881561279296875,-2.658841133117676,3.029953956604004,-0.010652542114257812,-0.020239830017089844,0.00852203369140625,-0.3293418884277344,0.5182018280029297,0.6193647384643555,0.4891996383666992
551,612586176.0,8.930644035339355,-2.5475082397460938,3.0562915802001953,-0.010652542114257812,-0.020239830017089844,0.00852203369140625,-0.3293418884277344,0.5182018280029297,0.6193647384643555,0.4891996383666992
552,612586176.0,8.888744354248047,-2.6001815795898438,3.0179824829101562,-0.010652542114257812,-0.020239830017089844,0.00852203369140625,-0.3293418884277344,0.5182018280029297,0.6193647384643555,0.4891996383666992
553,612586176.0,8.881561279296875,-2.658841133117676,3.029953956604004,-0.010652542114257812,-0.020239830017089844,0.00852203369140625,-0.3293418884277344,0.5182018280029297,0.6193647384643555,0.4891996383666992
554,612586176.0,8.930644035339355,-2.5475082397460938,3.0562915802001953,-0.010652542114257812,-0.020239830017089844,0.00852203369140625,-0.3293418884277344,0.5182018280029297,0.6193647384643555,0.4891996383666992
555,612586240.0,8.9450101852417,-2.5929994583129883,3.0491085052490234,0.01597881317138672,-0.025567054748535156,-0.033023834228515625,-0.3293418884277344,0.5182018280029297,0.6193647384643555,0.4891996383666992
556,612586240.0,8.88634967803955,-2.631307601928711,2.989251136779785,0.01597881317138672,-0.025567054748535156,-0.033023834228515625,-0.3293418884277344,0.5182018280029297,0.6193647384643555,0.4891996383666992
557,612586240.0,8.9450101852417,-2.5929994583129883,3.0491085052490234,0.01597881317138672,-0.025567054748535156,-0.033023834228515625,-0.3293418884277344,0.5182018280029297,0.6193647384643555,0.4891996383666992
558,612586240.0,8.88634967803955,-2.631307601928711,2.989251136779785,0.01597881317138672,-0.025567054748535156,-0.033023834228515625,-0.3293418884277344,0.5182018280029297,0.6193647384643555,0.4891996383666992
559,612586240.0,8.909095764160156,-2.6444759368896484,3.0503053665161133,0.01597881317138672,-0.025567054748535156,-0.033023834228515625,-0.3293418884277344,0.5182018280029297,0.6193647384643555,0.4891996383666992
560,612586240.0,8.947403907775879,-2.638490676879883,3.095796585083008,0.01597881317138672,-0.025567054748535156,-0.033023834228515625,-0.3293418884277344,0.5182018280029297,0.6193647384643555,0.4891996383666992
561,612586304.0,8.940220832824707,-2.595393180847168,3.0826282501220703,-0.012783050537109375,-0.014913558959960938,-0.041545867919921875,-0.3293418884277344,0.5182018280029297,0.6193647384643555,0.4891996383666992
562,612586304.0,8.90670108795166,-2.630110740661621,3.0443201065063477,-0.012783050537109375,-0.014913558959960938,-0.041545867919921875,-0.3293418884277344,0.5182018280029297,0.6193647384643555,0.4891996383666992
563,612586304.0,8.940220832824707,-2.6767988204956055,3.051502227783203,-0.012783050537109375,-0.014913558959960938,-0.041545867919921875,-0.3293418884277344,0.5182018280029297,0.6193647384643555,0.4891996383666992
564,612586432.0,8.933038711547852,-2.685178756713867,2.973689079284668,-0.021305084228515625,-0.0031957626342773438,-0.03515434265136719,-0.3293418884277344,0.5182018280029297,0.6193647384643555,0.4891996383666992
565,612586432.0,8.933038711547852,-2.685178756713867,2.973689079284668,-0.021305084228515625,-0.0031957626342773438,-0.03515434265136719,-0.3293418884277344,0.5182018280029297,0.6193647384643555,0.4891996383666992
566,612586496.0,8.92705249786377,-2.729473114013672,2.9545345306396484,-0.05539512634277344,0.0,-0.01597881317138672,-0.3293418884277344,0.5182018280029297,0.6193647384643555,0.4891996383666992
567,612586496.0,8.958178520202637,-2.6815872192382812,2.9856605529785156,-0.05539512634277344,0.0,-0.01597881317138672,-0.3293418884277344,0.5182018280029297,0.6193647384643555,0.4891996383666992
568,612586496.0,8.935432434082031,-2.7629928588867188,2.9246063232421875,-0.05539512634277344,0.0,-0.01597881317138672,-0.3293418884277344,0.5182018280029297,0.6193647384643555,0.4891996383666992
569,612586496.0,8.92705249786377,-2.729473114013672,2.9545345306396484,-0.05539512634277344,0.0,-0.01597881317138672,-0.3293418884277344,0.5182018280029297,0.6193647384643555,0.4891996383666992
570,612586496.0,8.958178520202637,-2.6815872192382812,2.9856605529785156,-0.05539512634277344,0.0,-0.01597881317138672,-0.3293418884277344,0.5182018280029297,0.6193647384643555,0.4891996383666992
571,612586496.0,8.935432434082031,-2.7629928588867188,2.9246063232421875,-0.05539512634277344,0.0,-0.01597881317138672,-0.3293418884277344,0.5182018280029297,0.6193647384643555,0.4891996383666992
