,timestamp,accel_x,accel_y,accel_z,gyro_x,gyro_y,gyro_z,ori_scalar,ori_x,ori_y,ori_z
0,653207040.0,8.990501403808594,-1.0427064895629883,3.3855037689208984,0.10652923583984375,0.0063915252685546875,0.2886953353881836,-0.5722799301147461,0.010141372680664062,0.8147859573364258,0.09201335906982422
1,653207040.0,9.179648399353027,-1.0786199569702148,3.46212100982666,0.10652923583984375,0.0063915252685546875,0.2886953353881836,-0.5722799301147461,0.010141372680664062,0.8147859573364258,0.09201335906982422
2,653207104.0,9.562732696533203,-1.1336889266967773,3.2035388946533203,0.10652923583984375,0.0063915252685546875,0.2886953353881836,-0.5722799301147461,0.010141372680664062,0.8147859573364258,0.09201335906982422
3,653207104.0,9.37478256225586,-1.1731939315795898,3.0969934463500977,0.10652923583984375,0.0063915252685546875,0.2886953353881836,-0.5722799301147461,0.010141372680664062,0.8147859573364258,0.09201335906982422
4,653207104.0,9.043174743652344,-1.204319953918457,3.0527000427246094,0.10652923583984375,0.0063915252685546875,0.2886953353881836,-0.5722799301147461,0.010141372680664062,0.8147859573364258,0.09201335906982422
5,653207168.0,8.942615509033203,-1.136082649230957,3.185582160949707,0.02769756317138672,0.0063915252685546875,0.2716503143310547,-0.5722799301147461,0.010141372680664062,0.8147859573364258,0.09201335906982422
6,653207168.0,9.125777244567871,-1.1157312393188477,3.184385299682617,0.02769756317138672,0.0063915252685546875,0.2716503143310547,-0.5722799301147461,0.010141372680664062,0.8147859573364258,0.09201335906982422
7,653207168.0,9.280208587646484,-1.1528425216674805,2.9497461318969727,0.02769756317138672,0.0063915252685546875,0.2716503143310547,-0.5722799301147461,0.010141372680664062,0.8147859573364258,0.09201335906982422
8,653207232.0,8.846844673156738,-1.0032005310058594,2.932986259460449,-0.009587287902832031,0.09267997741699219,0.23329925537109375,-0.5722799301147461,0.010141372680664062,0.8147859573364258,0.09201335906982422
9,653207360.0,9.702797889709473,-1.6867656707763672,2.627716064453125,-0.8991098403930664,0.1725778579711914,-0.2418222427368164,-0.5687847137451172,0.021060943603515625,0.8154335021972656,0.10552215576171875
10,653207360.0,8.751073837280273,-1.4221982955932617,2.6779956817626953,-0.8991098403930664,0.1725778579711914,-0.2418222427368164,-0.5687847137451172,0.021060943603515625,0.8154335021972656,0.10552215576171875
11,653207360.0,8.5667142868042,-1.413818359375,3.3950815200805664,-0.8991098403930664,0.1725778579711914,-0.2418222427368164,-0.5687847137451172,0.021060943603515625,0.8154335021972656,0.10552215576171875
12,653207424.0,9.78659725189209,-1.7382431030273438,3.0682621002197266,-0.9161548614501953,-0.0010652542114257812,-0.29615211486816406,-0.5620517730712891,0.06478023529052734,0.8123693466186523,0.1410846710205078
13,653207424.0,9.780611991882324,-1.763382911682129,2.4649057388305664,-0.9161548614501953,-0.0010652542114257812,-0.29615211486816406,-0.5620517730712891,0.06478023529052734,0.8123693466186523,0.1410846710205078
14,653207552.0,9.279010772705078,-2.1775922775268555,3.010800361633301,-0.9161548614501953,-0.0010652542114257812,-0.29615211486816406,-0.5601100921630859,0.09991073608398438,0.8048601150512695,0.1690073013305664
15,653207552.0,9.660898208618164,-2.2721662521362305,2.779752731323242,-0.9161548614501953,-0.0010652542114257812,-0.29615211486816406,-0.5601100921630859,0.09991073608398438,0.8048601150512695,0.1690073013305664
16,653207616.0,9.148523330688477,-2.318854331970215,2.5510988235473633,-0.9161548614501953,-0.0010652542114257812,-0.29615211486816406,-0.5601100921630859,0.09991073608398438,0.8048601150512695,0.1690073013305664
17,653207616.0,8.95578384399414,-2.3092775344848633,2.7139101028442383,-0.9161548614501953,-0.0010652542114257812,-0.29615211486816406,-0.5601100921630859,0.09991073608398438,0.8048601150512695,0.1690073013305664
18,653207872.0,8.636148452758789,-2.3559656143188477,2.4218082427978516,0.3270454406738281,-0.10120296478271484,-0.12357425689697266,-0.5602388381958008,0.13146018981933594,0.7949762344360352,0.19201087951660156
19,653207872.0,9.031203269958496,-2.347585678100586,2.4182167053222656,0.3270454406738281,-0.10120296478271484,-0.12357425689697266,-0.5602388381958008,0.13146018981933594,0.7949762344360352,0.19201087951660156
20,653207872.0,8.97613525390625,-2.2051267623901367,2.569056510925293,0.3270454406738281,-0.10120296478271484,-0.12357425689697266,-0.5602388381958008,0.13146018981933594,0.7949762344360352,0.19201087951660156
21,653207936.0,9.061132431030273,-2.0782299041748047,2.5810279846191406,0.24927902221679688,-0.1438150405883789,-0.12250900268554688,-0.5636482238769531,0.13927173614501953,0.7904453277587891,0.19524765014648438
22,653207936.0,9.529212951660156,-2.0878067016601562,2.5534934997558594,0.24927902221679688,-0.1438150405883789,-0.12250900268554688,-0.5636482238769531,0.13927173614501953,0.7904453277587891,0.19524765014648438
23,653208064.0,9.359219551086426,-2.339205741882324,3.117344856262207,0.24927902221679688,-0.1438150405883789,-0.12250900268554688,-0.567317008972168,0.1418609619140625,0.7875967025756836,0.1941690444946289
24,653208128.0,9.451398849487305,-2.0494985580444336,3.003617286682129,0.14701080322265625,0.033023834228515625,0.22584247589111328,-0.569087028503418,0.1262807846069336,0.7905740737915039,0.18747901916503906
25,653208128.0,9.119791984558105,-1.9561223983764648,2.6696157455444336,0.14701080322265625,0.033023834228515625,0.22584247589111328,-0.569087028503418,0.1262807846069336,0.7905740737915039,0.18747901916503906
26,653208256.0,9.256265640258789,-1.6927518844604492,2.503213882446289,0.2013406753540039,0.06711292266845703,0.196014404296875,-0.5653314590454102,0.1159658432006836,0.7945880889892578,0.1886444091796875
27,653208256.0,9.180846214294434,-1.7980995178222656,2.2039289474487305,0.2013406753540039,0.06711292266845703,0.196014404296875,-0.5653314590454102,0.1159658432006836,0.7945880889892578,0.1886444091796875
28,653208320.0,9.081483840942383,-1.727468490600586,2.1476640701293945,-0.012783050537109375,0.009587287902832031,0.09267997741699219,-0.5637350082397461,0.10724830627441406,0.7968320846557617,0.18929195404052734
29,653208320.0,9.203591346740723,-1.7765512466430664,2.3332204818725586,-0.012783050537109375,0.009587287902832031,0.09267997741699219,-0.5637350082397461,0.10724830627441406,0.7968320846557617,0.18929195404052734
30,653208448.0,9.153311729431152,-1.8052825927734375,2.409836769104004,0.04900360107421875,-0.05006885528564453,-0.005326271057128906,-0.567662239074707,0.10254383087158203,0.794285774230957,0.19071674346923828
31,653208448.0,9.091060638427734,-1.7933111190795898,2.649264335632324,0.04900360107421875,-0.05006885528564453,-0.005326271057128906,-0.567662239074707,0.10254383087158203,0.794285774230957,0.19071674346923828
32,653208512.0,9.170071601867676,-1.8064794540405273,2.6660242080688477,0.09374523162841797,-0.053264617919921875,-0.10865974426269531,-0.567662239074707,0.10254383087158203,0.794285774230957,0.19071674346923828
33,653208512.0,9.301756858825684,-1.8795051574707031,2.554690361022949,0.09374523162841797,-0.053264617919921875,-0.10865974426269531,-0.567662239074707,0.10254383087158203,0.794285774230957,0.19071674346923828
34,653208512.0,9.16767692565918,-1.8639421463012695,2.6121530532836914,0.09374523162841797,-0.053264617919921875,-0.10865974426269531,-0.567662239074707,0.10254383087158203,0.794285774230957,0.19071674346923828
35,653208576.0,9.001275062561035,-1.8747167587280273,2.743838310241699,0.11185550689697266,-0.06498241424560547,-0.13103103637695312,-0.5741357803344727,0.10254383087158203,0.7915239334106445,0.1826028823852539
36,653208704.0,9.350839614868164,-1.9597129821777344,2.48166561126709,0.11185550689697266,-0.06498241424560547,-0.13103103637695312,-0.5756902694702148,0.1033639907836914,0.7909631729125977,0.1795816421508789
37,653208704.0,9.232322692871094,-1.941756248474121,2.4517364501953125,0.11185550689697266,-0.06498241424560547,-0.13103103637695312,-0.5756902694702148,0.1033639907836914,0.7909631729125977,0.1795816421508789
38,653208704.0,9.256265640258789,-1.9692907333374023,2.53194522857666,0.11185550689697266,-0.06498241424560547,-0.13103103637695312,-0.5756902694702148,0.1033639907836914,0.7909631729125977,0.1795816421508789
39,653208704.0,9.432244300842285,-2.0854129791259766,2.5774364471435547,0.11185550689697266,-0.06498241424560547,-0.13103103637695312,-0.5756902694702148,0.1033639907836914,0.7909631729125977,0.1795816421508789
40,653208768.0,9.501678466796875,-2.091398239135742,2.4038515090942383,0.030893325805664062,0.005326271057128906,-0.004261016845703125,-0.5756902694702148,0.1033639907836914,0.7909631729125977,0.1795816421508789
41,653208768.0,9.304150581359863,-2.047104835510254,2.3894853591918945,0.030893325805664062,0.005326271057128906,-0.004261016845703125,-0.5756902694702148,0.1033639907836914,0.7909631729125977,0.1795816421508789
42,653208768.0,9.279010772705078,-1.9944305419921875,2.4529342651367188,0.030893325805664062,0.005326271057128906,-0.004261016845703125,-0.5756902694702148,0.1033639907836914,0.7909631729125977,0.1795816421508789
43,653208832.0,9.377176284790039,-2.014781951904297,2.503213882446289,0.03728485107421875,0.031958580017089844,0.04900360107421875,-0.5756902694702148,0.1033639907836914,0.7909631729125977,0.1795816421508789
44,653208832.0,9.437033653259277,-1.9501361846923828,2.4469480514526367,0.03728485107421875,0.031958580017089844,0.04900360107421875,-0.5756902694702148,0.1033639907836914,0.7909631729125977,0.1795816421508789
45,653208832.0,9.268237113952637,-1.945347785949707,2.3846969604492188,0.03728485107421875,0.031958580017089844,0.04900360107421875,-0.5756902694702148,0.1033639907836914,0.7909631729125977,0.1795816421508789
46,653208960.0,9.09465217590332,-1.8268308639526367,2.591801643371582,0.007456779479980469,0.040480613708496094,0.07030868530273438,-0.5756902694702148,0.1033639907836914,0.7909631729125977,0.1795816421508789
47,653208960.0,9.09465217590332,-1.8268308639526367,2.591801643371582,0.007456779479980469,0.040480613708496094,0.07030868530273438,-0.5756902694702148,0.1033639907836914,0.7909631729125977,0.1795816421508789
48,653209024.0,9.288588523864746,-1.818450927734375,2.4936370849609375,0.007456779479980469,0.040480613708496094,0.07030868530273438,-0.5756902694702148,0.1033639907836914,0.7909631729125977,0.1795816421508789
49,653209024.0,9.337671279907227,-1.8016910552978516,2.415822982788086,0.007456779479980469,0.040480613708496094,0.07030868530273438,-0.5756902694702148,0.1033639907836914,0.7909631729125977,0.1795816421508789
50,653209024.0,9.203591346740723,-1.7107086181640625,2.5151853561401367,0.007456779479980469,0.040480613708496094,0.07030868530273438,-0.5756902694702148,0.1033639907836914,0.7909631729125977,0.1795816421508789
51,653209024.0,9.204788208007812,-1.8854904174804688,2.558281898498535,0.007456779479980469,0.040480613708496094,0.07030868530273438,-0.5756902694702148,0.1033639907836914,0.7909631729125977,0.1795816421508789
52,653209024.0,9.288588523864746,-1.818450927734375,2.4936370849609375,0.007456779479980469,0.040480613708496094,0.07030868530273438,-0.5756902694702148,0.1033639907836914,0.7909631729125977,0.1795816421508789
53,653209024.0,9.337671279907227,-1.8016910552978516,2.415822982788086,0.007456779479980469,0.040480613708496094,0.07030868530273438,-0.5756902694702148,0.1033639907836914,0.7909631729125977,0.1795816421508789
54,653209024.0,9.203591346740723,-1.7107086181640625,2.5151853561401367,0.007456779479980469,0.040480613708496094,0.07030868530273438,-0.5756902694702148,0.1033639907836914,0.7909631729125977,0.1795816421508789
55,653209024.0,9.204788208007812,-1.8854904174804688,2.558281898498535,0.007456779479980469,0.040480613708496094,0.07030868530273438,-0.5756902694702148,0.1033639907836914,0.7909631729125977,0.1795816421508789
56,653209088.0,9.409499168395996,-1.9645023345947266,2.4792709350585938,0.007456779479980469,0.040480613708496094,0.07030868530273438,-0.5756902694702148,0.1033639907836914,0.7909631729125977,0.1795816421508789
57,653209088.0,9.40351390838623,-1.8890819549560547,2.4553279876708984,0.007456779479980469,0.040480613708496094,0.07030868530273438,-0.5756902694702148,0.1033639907836914,0.7909631729125977,0.1795816421508789
58,653209088.0,9.294573783874512,-1.8136625289916992,2.570253372192383,0.007456779479980469,0.040480613708496094,0.07030868530273438,-0.5756902694702148,0.1033639907836914,0.7909631729125977,0.1795816421508789
59,653209152.0,9.217957496643066,-1.8004941940307617,2.5750417709350586,0.033023834228515625,-0.019174575805664062,-0.0010652542114257812,-0.5756902694702148,0.1033639907836914,0.7909631729125977,0.1795816421508789
60,653209152.0,9.183239936828613,-1.8459854125976562,2.563070297241211,0.033023834228515625,-0.019174575805664062,-0.0010652542114257812,-0.5756902694702148,0.1033639907836914,0.7909631729125977,0.1795816421508789
61,653209152.0,9.261054039001465,-1.8304224014282227,2.528353691101074,0.033023834228515625,-0.019174575805664062,-0.0010652542114257812,-0.5756902694702148,0.1033639907836914,0.7909631729125977,0.1795816421508789
62,653209152.0,9.261054039001465,-1.8304224014282227,2.528353691101074,0.033023834228515625,-0.019174575805664062,-0.0010652542114257812,-0.5756902694702148,0.1033639907836914,0.7909631729125977,0.1795816421508789
63,653209216.0,9.198802947998047,-1.915419578552246,2.5307483673095703,0.09054946899414062,-0.03728485107421875,-0.010652542114257812,-0.5756902694702148,0.1033639907836914,0.7909631729125977,0.1795816421508789
64,653209216.0,9.056344032287598,-1.945347785949707,2.5463104248046875,0.09054946899414062,-0.03728485107421875,-0.010652542114257812,-0.5756902694702148,0.1033639907836914,0.7909631729125977,0.1795816421508789
65,653209216.0,9.21436595916748,-1.877110481262207,2.6337013244628906,0.09054946899414062,-0.03728485107421875,-0.010652542114257812,-0.5756902694702148,0.1033639907836914,0.7909631729125977,0.1795816421508789
66,653209216.0,9.198802947998047,-1.915419578552246,2.5307483673095703,0.09054946899414062,-0.03728485107421875,-0.010652542114257812,-0.5756902694702148,0.1033639907836914,0.7909631729125977,0.1795816421508789
67,653209216.0,9.056344032287598,-1.945347785949707,2.5463104248046875,0.09054946899414062,-0.03728485107421875,-0.010652542114257812,-0.5756902694702148,0.1033639907836914,0.7909631729125977,0.1795816421508789
68,653209216.0,9.21436595916748,-1.877110481262207,2.6337013244628906,0.09054946899414062,-0.03728485107421875,-0.010652542114257812,-0.5756902694702148,0.1033639907836914,0.7909631729125977,0.1795816421508789
69,653209280.0,9.365204811096191,-1.8711252212524414,2.497227668762207,0.020239830017089844,-0.009587287902832031,0.0021305084228515625,-0.5756902694702148,0.1033639907836914,0.7909631729125977,0.1795816421508789
70,653209280.0,9.365204811096191,-1.8711252212524414,2.497227668762207,0.020239830017089844,-0.009587287902832031,0.0021305084228515625,-0.5756902694702148,0.1033639907836914,0.7909631729125977,0.1795816421508789
71,653209344.0,9.213168144226074,-1.890279769897461,2.5534934997558594,0.06604766845703125,-0.011717796325683594,0.023435592651367188,-0.5756902694702148,0.1033639907836914,0.7909631729125977,0.1795816421508789
72,653209408.0,9.257462501525879,-1.8890819549560547,2.5522966384887695,0.06604766845703125,-0.011717796325683594,0.023435592651367188,-0.5756902694702148,0.1033639907836914,0.7909631729125977,0.1795816421508789
73,653209408.0,9.294573783874512,-1.7921142578125,2.664827346801758,0.06604766845703125,-0.011717796325683594,0.023435592651367188,-0.5756902694702148,0.1033639907836914,0.7909631729125977,0.1795816421508789
74,653209408.0,9.225139617919922,-1.7873258590698242,2.5451135635375977,0.06604766845703125,-0.011717796325683594,0.023435592651367188,-0.5756902694702148,0.1033639907836914,0.7909631729125977,0.1795816421508789
75,653209472.0,9.149720191955566,-1.7035255432128906,2.537930488586426,-0.011717796325683594,0.022370338439941406,0.07776641845703125,-0.5756902694702148,0.1033639907836914,0.7909631729125977,0.1795816421508789
76,653209472.0,9.111412048339844,-1.7705659866333008,2.5247621536254883,-0.011717796325683594,0.022370338439941406,0.07776641845703125,-0.5756902694702148,0.1033639907836914,0.7909631729125977,0.1795816421508789
77,653209472.0,9.263448715209961,-1.8531684875488281,2.499622344970703,-0.011717796325683594,0.022370338439941406,0.07776641845703125,-0.5756902694702148,0.1033639907836914,0.7909631729125977,0.1795816421508789
78,653209472.0,9.271828651428223,-1.7789459228515625,2.415822982788086,-0.011717796325683594,0.022370338439941406,0.07776641845703125,-0.5756902694702148,0.1033639907836914,0.7909631729125977,0.1795816421508789
79,653209472.0,9.100637435913086,-1.695145606994629,2.5199737548828125,-0.011717796325683594,0.022370338439941406,0.07776641845703125,-0.5756902694702148,0.1033639907836914,0.7909631729125977,0.1795816421508789
80,653209472.0,9.173663139343262,-1.8304224014282227,2.496030807495117,-0.011717796325683594,0.022370338439941406,0.07776641845703125,-0.5756902694702148,0.1033639907836914,0.7909631729125977,0.1795816421508789
81,653209472.0,9.280208587646484,-1.820845603942871,2.4768762588500977,-0.011717796325683594,0.022370338439941406,0.07776641845703125,-0.5756902694702148,0.1033639907836914,0.7909631729125977,0.1795816421508789
82,653209536.0,9.132960319519043,-1.7789459228515625,2.357163429260254,0.02982807159423828,-0.011717796325683594,0.009587287902832031,-0.5756902694702148,0.1033639907836914,0.7909631729125977,0.1795816421508789
83,653209536.0,9.135354995727539,-1.7466230392456055,2.409836769104004,0.02982807159423828,-0.011717796325683594,0.009587287902832031,-0.5756902694702148,0.1033639907836914,0.7909631729125977,0.1795816421508789
84,653209536.0,9.198802947998047,-1.7801427841186523,2.381105422973633,0.02982807159423828,-0.011717796325683594,0.009587287902832031,-0.5756902694702148,0.1033639907836914,0.7909631729125977,0.1795816421508789
85,653209536.0,9.11739730834961,-1.7514114379882812,2.376317024230957,0.02982807159423828,-0.011717796325683594,0.009587287902832031,-0.5756902694702148,0.1033639907836914,0.7909631729125977,0.1795816421508789
86,653209536.0,9.199999809265137,-1.7466230392456055,2.4146251678466797,0.02982807159423828,-0.011717796325683594,0.009587287902832031,-0.5756902694702148,0.1033639907836914,0.7909631729125977,0.1795816421508789
87,653209600.0,9.33647346496582,-1.726271629333496,2.433779716491699,-0.02769756317138672,-0.04793834686279297,-0.040480613708496094,-0.5756902694702148,0.1033639907836914,0.7909631729125977,0.1795816421508789
88,653209600.0,9.290982246398926,-1.8028879165649414,2.3344173431396484,-0.02769756317138672,-0.04793834686279297,-0.040480613708496094,-0.5756902694702148,0.1033639907836914,0.7909631729125977,0.1795816421508789
89,653209600.0,9.211971282958984,-1.8256340026855469,2.4361743927001953,-0.02769756317138672,-0.04793834686279297,-0.040480613708496094,-0.5756902694702148,0.1033639907836914,0.7909631729125977,0.1795816421508789
90,653209600.0,9.326896667480469,-1.8399991989135742,2.499622344970703,-0.02769756317138672,-0.04793834686279297,-0.040480613708496094,-0.5756902694702148,0.1033639907836914,0.7909631729125977,0.1795816421508789
91,653209664.0,9.384359359741211,-1.8495769500732422,2.4804677963256836,0.013848304748535156,-0.03835010528564453,-0.033023834228515625,-0.5756902694702148,0.1033639907836914,0.7909631729125977,0.1795816421508789
92,653209664.0,9.21675968170166,-1.8663368225097656,2.473285675048828,0.013848304748535156,-0.03835010528564453,-0.033023834228515625,-0.5756902694702148,0.1033639907836914,0.7909631729125977,0.1795816421508789
93,653209664.0,9.194014549255371,-1.8938703536987305,2.576239585876465,0.013848304748535156,-0.03835010528564453,-0.033023834228515625,-0.5756902694702148,0.1033639907836914,0.7909631729125977,0.1795816421508789
94,653209728.0,9.298165321350098,-1.8699283599853516,2.60137939453125,0.06391716003417969,-0.04793834686279297,-0.04793834686279297,-0.5756902694702148,0.1033639907836914,0.7909631729125977,0.1795816421508789
95,653209728.0,9.324501991271973,-1.8687305450439453,2.5822248458862305,0.06391716003417969,-0.04793834686279297,-0.04793834686279297,-0.5756902694702148,0.1033639907836914,0.7909631729125977,0.1795816421508789
96,653209728.0,9.244294166564941,-1.8256340026855469,2.5738449096679688,0.06391716003417969,-0.04793834686279297,-0.04793834686279297,-0.5756902694702148,0.1033639907836914,0.7909631729125977,0.1795816421508789
97,653209792.0,9.170071601867676,-1.8555622100830078,2.6109561920166016,0.06391716003417969,-0.04793834686279297,-0.04793834686279297,-0.5756902694702148,0.1033639907836914,0.7909631729125977,0.1795816421508789
98,653209792.0,9.252674102783203,-1.8747167587280273,2.691164016723633,0.06391716003417969,-0.04793834686279297,-0.04793834686279297,-0.5756902694702148,0.1033639907836914,0.7909631729125977,0.1795816421508789
99,653209792.0,9.277813911437988,-1.8986597061157227,2.597787857055664,0.06391716003417969,-0.04793834686279297,-0.04793834686279297,-0.5756902694702148,0.1033639907836914,0.7909631729125977,0.1795816421508789
100,653209856.0,9.222745895385742,-1.8783082962036133,2.5307483673095703,0.00852203369140625,-0.013848304748535156,-0.03835010528564453,-0.5756902694702148,0.1033639907836914,0.7909631729125977,0.1795816421508789
101,653209856.0,9.21436595916748,-1.9261932373046875,2.5534934997558594,0.00852203369140625,-0.013848304748535156,-0.03835010528564453,-0.5756902694702148,0.1033639907836914,0.7909631729125977,0.1795816421508789
102,653209856.0,9.304150581359863,-1.9609107971191406,2.5774364471435547,0.00852203369140625,-0.013848304748535156,-0.03835010528564453,-0.5756902694702148,0.1033639907836914,0.7909631729125977,0.1795816421508789
103,653209920.0,9.308939933776855,-1.975275993347168,2.474482536315918,-0.0021305084228515625,-0.005326271057128906,0.005326271057128906,-0.5756902694702148,0.1033639907836914,0.7909631729125977,0.1795816421508789
104,653209920.0,9.30654525756836,-1.9285879135131836,2.473285675048828,-0.0021305084228515625,-0.005326271057128906,0.005326271057128906,-0.5756902694702148,0.1033639907836914,0.7909631729125977,0.1795816421508789
105,653209920.0,9.397527694702148,-1.9106311798095703,2.469694137573242,-0.0021305084228515625,-0.005326271057128906,0.005326271057128906,-0.5756902694702148,0.1033639907836914,0.7909631729125977,0.1795816421508789
106,653210176.0,9.156903266906738,-1.7992973327636719,2.595393180847168,-0.023435592651367188,0.021305084228515625,0.03941535949707031,-0.5814294815063477,0.0860137939453125,0.7892360687255859,0.17789840698242188
107,653210176.0,9.273025512695312,-1.8304224014282227,2.566661834716797,-0.023435592651367188,0.021305084228515625,0.03941535949707031,-0.5814294815063477,0.0860137939453125,0.7892360687255859,0.17789840698242188
108,653210176.0,9.197606086730957,-1.8328170776367188,2.53194522857666,-0.023435592651367188,0.021305084228515625,0.03941535949707031,-0.5814294815063477,0.0860137939453125,0.7892360687255859,0.17789840698242188
109,653210176.0,9.156903266906738,-1.7992973327636719,2.595393180847168,-0.023435592651367188,0.021305084228515625,0.03941535949707031,-0.5814294815063477,0.0860137939453125,0.7892360687255859,0.17789840698242188
110,653210176.0,9.273025512695312,-1.8304224014282227,2.566661834716797,-0.023435592651367188,0.021305084228515625,0.03941535949707031,-0.5814294815063477,0.0860137939453125,0.7892360687255859,0.17789840698242188
111,653210176.0,9.197606086730957,-1.8328170776367188,2.53194522857666,-0.023435592651367188,0.021305084228515625,0.03941535949707031,-0.5814294815063477,0.0860137939453125,0.7892360687255859,0.17789840698242188
112,653210176.0,9.156903266906738,-1.7992973327636719,2.595393180847168,-0.023435592651367188,0.021305084228515625,0.03941535949707031,-0.5814294815063477,0.0860137939453125,0.7892360687255859,0.17789840698242188
113,653210176.0,9.273025512695312,-1.8304224014282227,2.566661834716797,-0.023435592651367188,0.021305084228515625,0.03941535949707031,-0.5814294815063477,0.0860137939453125,0.7892360687255859,0.17789840698242188
114,653210176.0,9.197606086730957,-1.8328170776367188,2.53194522857666,-0.023435592651367188,0.021305084228515625,0.03941535949707031,-0.5814294815063477,0.0860137939453125,0.7892360687255859,0.17789840698242188
115,653210240.0,9.147326469421387,-1.8615484237670898,2.5247621536254883,0.030893325805664062,0.01597881317138672,0.0,-0.5783653259277344,0.08506488800048828,0.7911357879638672,0.17992687225341797
116,653210240.0,9.210774421691895,-1.8699283599853516,2.508002281188965,0.030893325805664062,0.01597881317138672,0.0,-0.5783653259277344,0.08506488800048828,0.7911357879638672,0.17992687225341797
117,653210240.0,9.147326469421387,-1.8615484237670898,2.5247621536254883,0.030893325805664062,0.01597881317138672,0.0,-0.5783653259277344,0.08506488800048828,0.7911357879638672,0.17992687225341797
118,653210240.0,9.210774421691895,-1.8699283599853516,2.508002281188965,0.030893325805664062,0.01597881317138672,0.0,-0.5783653259277344,0.08506488800048828,0.7911357879638672,0.17992687225341797
119,653210240.0,9.147326469421387,-1.8615484237670898,2.5247621536254883,0.030893325805664062,0.01597881317138672,0.0,-0.5783653259277344,0.08506488800048828,0.7911357879638672,0.17992687225341797
120,653210240.0,9.210774421691895,-1.8699283599853516,2.508002281188965,0.030893325805664062,0.01597881317138672,0.0,-0.5783653259277344,0.08506488800048828,0.7911357879638672,0.17992687225341797
121,653210432.0,9.210774421691895,-1.8124656677246094,2.5211706161499023,0.007456779479980469,-0.033023834228515625,-0.031958580017089844,-0.5781497955322266,0.0847625732421875,0.791351318359375,0.17971134185791016
122,653210432.0,9.210774421691895,-1.8124656677246094,2.5211706161499023,0.007456779479980469,-0.033023834228515625,-0.031958580017089844,-0.5781497955322266,0.0847625732421875,0.791351318359375,0.17971134185791016
123,653210496.0,9.16408634185791,-1.850773811340332,2.53314208984375,-0.014913558959960938,-0.02982807159423828,-0.019174575805664062,-0.5781497955322266,0.0847625732421875,0.791351318359375,0.17971134185791016
124,653210496.0,9.123383522033691,-1.915419578552246,2.60137939453125,-0.014913558959960938,-0.02982807159423828,-0.019174575805664062,-0.5781497955322266,0.0847625732421875,0.791351318359375,0.17971134185791016
125,653210496.0,9.241899490356445,-1.883096694946289,2.590604782104492,-0.014913558959960938,-0.02982807159423828,-0.019174575805664062,-0.5781497955322266,0.0847625732421875,0.791351318359375,0.17971134185791016
126,653210496.0,9.16408634185791,-1.850773811340332,2.53314208984375,-0.014913558959960938,-0.02982807159423828,-0.019174575805664062,-0.5781497955322266,0.0847625732421875,0.791351318359375,0.17971134185791016
127,653210496.0,9.123383522033691,-1.915419578552246,2.60137939453125,-0.014913558959960938,-0.02982807159423828,-0.019174575805664062,-0.5781497955322266,0.0847625732421875,0.791351318359375,0.17971134185791016
128,653210496.0,9.241899490356445,-1.883096694946289,2.590604782104492,-0.014913558959960938,-0.02982807159423828,-0.019174575805664062,-0.5781497955322266,0.0847625732421875,0.791351318359375,0.17971134185791016
129,653210560.0,9.229928970336914,-1.9261932373046875,2.4984254837036133,-0.024501800537109375,-0.011717796325683594,-0.007456779479980469,-0.5781497955322266,0.0847625732421875,0.791351318359375,0.17971134185791016
130,653210560.0,9.229928970336914,-1.9261932373046875,2.4984254837036133,-0.024501800537109375,-0.011717796325683594,-0.007456779479980469,-0.5781497955322266,0.0847625732421875,0.791351318359375,0.17971134185791016
131,653210560.0,9.188028335571289,-1.8854904174804688,2.564268112182617,-0.024501800537109375,-0.011717796325683594,-0.007456779479980469,-0.5781497955322266,0.0847625732421875,0.791351318359375,0.17971134185791016
132,653210560.0,9.179648399353027,-1.9872474670410156,2.5786333084106445,-0.024501800537109375,-0.011717796325683594,-0.007456779479980469,-0.5781497955322266,0.0847625732421875,0.791351318359375,0.17971134185791016
133,653210560.0,9.18443775177002,-1.9668960571289062,2.5139875411987305,-0.024501800537109375,-0.011717796325683594,-0.007456779479980469,-0.5781497955322266,0.0847625732421875,0.791351318359375,0.17971134185791016
134,653210624.0,9.332881927490234,-1.9321794509887695,2.4864540100097656,-0.024501800537109375,-0.011717796325683594,-0.007456779479980469,-0.5781497955322266,0.0847625732421875,0.791351318359375,0.17971134185791016
135,653210624.0,9.367599487304688,-1.8854904174804688,2.4936370849609375,-0.024501800537109375,-0.011717796325683594,-0.007456779479980469,-0.5781497955322266,0.0847625732421875,0.791351318359375,0.17971134185791016
136,653210624.0,9.220351219177246,-1.8854904174804688,2.4876508712768555,-0.024501800537109375,-0.011717796325683594,-0.007456779479980469,-0.5781497955322266,0.0847625732421875,0.791351318359375,0.17971134185791016
137,653210688.0,9.229928970336914,-1.9309816360473633,2.460116386413574,-0.024501800537109375,-0.011717796325683594,-0.007456779479980469,-0.5781497955322266,0.0847625732421875,0.791351318359375,0.17971134185791016
138,653210688.0,9.316122055053711,-1.948939323425293,2.496030807495117,-0.024501800537109375,-0.011717796325683594,-0.007456779479980469,-0.5781497955322266,0.0847625732421875,0.791351318359375,0.17971134185791016
139,653210688.0,9.262250900268555,-1.9226016998291016,2.4912424087524414,-0.024501800537109375,-0.011717796325683594,-0.007456779479980469,-0.5781497955322266,0.0847625732421875,0.791351318359375,0.17971134185791016
140,653210752.0,9.197606086730957,-1.9333763122558594,2.497227668762207,-0.0031957626342773438,-0.014913558959960938,0.014913558959960938,-0.5806961059570312,0.08407211303710938,0.7891931533813477,0.18130779266357422
141,653210880.0,9.198802947998047,-1.9261932373046875,2.5678586959838867,-0.03835010528564453,0.0010652542114257812,0.0,-0.580653190612793,0.08381271362304688,0.7891073226928711,0.1818685531616211
142,653210880.0,9.243097305297852,-1.9214048385620117,2.5091991424560547,-0.03835010528564453,0.0010652542114257812,0.0,-0.580653190612793,0.08381271362304688,0.7891073226928711,0.1818685531616211
143,653210880.0,9.35682487487793,-1.9249963760375977,2.5271568298339844,-0.03835010528564453,0.0010652542114257812,0.0,-0.580653190612793,0.08381271362304688,0.7891073226928711,0.1818685531616211
144,653210880.0,9.314925193786621,-1.98126220703125,2.5415220260620117,-0.03835010528564453,0.0010652542114257812,0.0,-0.580653190612793,0.08381271362304688,0.7891073226928711,0.1818685531616211
145,653210944.0,9.281405448913574,-2.007598876953125,2.511593818664551,-0.021305084228515625,-0.0031957626342773438,0.0063915252685546875,-0.580653190612793,0.08381271362304688,0.7891073226928711,0.1818685531616211
146,653210944.0,9.298165321350098,-2.000415802001953,2.4768762588500977,-0.021305084228515625,-0.0031957626342773438,0.0063915252685546875,-0.580653190612793,0.08381271362304688,0.7891073226928711,0.1818685531616211
147,653210944.0,9.263448715209961,-1.9549245834350586,2.503213882446289,-0.021305084228515625,-0.0031957626342773438,0.0063915252685546875,-0.580653190612793,0.08381271362304688,0.7891073226928711,0.1818685531616211
148,653211008.0,9.296968460083008,-1.9058418273925781,2.522367477416992,-0.021305084228515625,-0.0031957626342773438,0.0063915252685546875,-0.580653190612793,0.08381271362304688,0.7891073226928711,0.1818685531616211
149,653211008.0,9.316122055053711,-1.9297847747802734,2.529550552368164,-0.021305084228515625,-0.0031957626342773438,0.0063915252685546875,-0.580653190612793,0.08381271362304688,0.7891073226928711,0.1818685531616211
150,653211008.0,9.328093528747559,-1.8878850936889648,2.4936370849609375,-0.021305084228515625,-0.0031957626342773438,0.0063915252685546875,-0.580653190612793,0.08381271362304688,0.7891073226928711,0.1818685531616211
151,653211136.0,9.23471736907959,-1.8519706726074219,2.5175790786743164,0.005326271057128906,0.0031957626342773438,0.0010652542114257812,-0.5800056457519531,0.08234596252441406,0.7890205383300781,0.1851053237915039
152,653211136.0,9.271828651428223,-1.883096694946289,2.497227668762207,0.005326271057128906,0.0031957626342773438,0.0010652542114257812,-0.5800056457519531,0.08234596252441406,0.7890205383300781,0.1851053237915039
153,653211200.0,9.262250900268555,-1.9202079772949219,2.5151853561401367,0.005326271057128906,0.0031957626342773438,0.0010652542114257812,-0.5800056457519531,0.08234596252441406,0.7890205383300781,0.1851053237915039
154,653211200.0,9.205986022949219,-1.9106311798095703,2.511593818664551,0.005326271057128906,0.0031957626342773438,0.0010652542114257812,-0.5800056457519531,0.08234596252441406,0.7890205383300781,0.1851053237915039
155,653211200.0,9.150917053222656,-1.916616439819336,2.4804677963256836,0.005326271057128906,0.0031957626342773438,0.0010652542114257812,-0.5800056457519531,0.08234596252441406,0.7890205383300781,0.1851053237915039
156,653211264.0,9.231125831604004,-1.9309816360473633,2.4864540100097656,-0.010652542114257812,0.012783050537109375,-0.022370338439941406,-0.5800056457519531,0.08234596252441406,0.7890205383300781,0.1851053237915039
157,653211264.0,9.30654525756836,-1.8854904174804688,2.4876508712768555,-0.010652542114257812,0.012783050537109375,-0.022370338439941406,-0.5800056457519531,0.08234596252441406,0.7890205383300781,0.1851053237915039
158,653211264.0,9.16648006439209,-1.9214048385620117,2.4912424087524414,-0.010652542114257812,0.012783050537109375,-0.022370338439941406,-0.5800056457519531,0.08234596252441406,0.7890205383300781,0.1851053237915039
159,653211328.0,9.11620044708252,-1.9321794509887695,2.4876508712768555,0.00852203369140625,-0.00852203369140625,-0.025567054748535156,-0.5800056457519531,0.08234596252441406,0.7890205383300781,0.1851053237915039
160,653211328.0,9.268237113952637,-1.9704875946044922,2.4828624725341797,0.00852203369140625,-0.00852203369140625,-0.025567054748535156,-0.5800056457519531,0.08234596252441406,0.7890205383300781,0.1851053237915039
161,653211520.0,9.243097305297852,-1.9321794509887695,2.467299461364746,-0.007456779479980469,-0.004261016845703125,-0.014913558959960938,-0.5814294815063477,0.08640289306640625,0.7878990173339844,0.18350887298583984
162,653211520.0,9.243097305297852,-1.9321794509887695,2.467299461364746,-0.007456779479980469,-0.004261016845703125,-0.014913558959960938,-0.5814294815063477,0.08640289306640625,0.7878990173339844,0.18350887298583984
163,653211584.0,9.261054039001465,-1.9633045196533203,2.525959014892578,0.019174575805664062,-0.010652542114257812,0.0010652542114257812,-0.5814294815063477,0.08640289306640625,0.7878990173339844,0.18350887298583984
164,653211584.0,9.318516731262207,-1.9249963760375977,2.5056076049804688,0.019174575805664062,-0.010652542114257812,0.0010652542114257812,-0.5814294815063477,0.08640289306640625,0.7878990173339844,0.18350887298583984
165,653211584.0,9.35682487487793,-1.916616439819336,2.474482536315918,0.019174575805664062,-0.010652542114257812,0.0010652542114257812,-0.5814294815063477,0.08640289306640625,0.7878990173339844,0.18350887298583984
166,653211584.0,9.261054039001465,-1.9633045196533203,2.525959014892578,0.019174575805664062,-0.010652542114257812,0.0010652542114257812,-0.5814294815063477,0.08640289306640625,0.7878990173339844,0.18350887298583984
167,653211584.0,9.318516731262207,-1.9249963760375977,2.5056076049804688,0.019174575805664062,-0.010652542114257812,0.0010652542114257812,-0.5814294815063477,0.08640289306640625,0.7878990173339844,0.18350887298583984
168,653211584.0,9.35682487487793,-1.916616439819336,2.474482536315918,0.019174575805664062,-0.010652542114257812,0.0010652542114257812,-0.5814294815063477,0.08640289306640625,0.7878990173339844,0.18350887298583984
169,653211648.0,9.262250900268555,-1.877110481262207,2.500819206237793,-0.0010652542114257812,0.0,0.0010652542114257812,-0.5814294815063477,0.08640289306640625,0.7878990173339844,0.18350887298583984
170,653211648.0,9.262250900268555,-1.877110481262207,2.500819206237793,-0.0010652542114257812,0.0,0.0010652542114257812,-0.5814294815063477,0.08640289306640625,0.7878990173339844,0.18350887298583984
171,653211648.0,9.26584243774414,-1.9226016998291016,2.5163822174072266,-0.0010652542114257812,0.0,0.0010652542114257812,-0.5814294815063477,0.08640289306640625,0.7878990173339844,0.18350887298583984
172,653211648.0,9.279010772705078,-1.9226016998291016,2.504410743713379,-0.0010652542114257812,0.0,0.0010652542114257812,-0.5814294815063477,0.08640289306640625,0.7878990173339844,0.18350887298583984
173,653211712.0,9.228731155395508,-1.9022512435913086,2.499622344970703,-0.0010652542114257812,0.0,0.0010652542114257812,-0.5814294815063477,0.08640289306640625,0.7878990173339844,0.18350887298583984
174,653211712.0,9.219154357910156,-1.850773811340332,2.5415220260620117,-0.0010652542114257812,0.0,0.0010652542114257812,-0.5814294815063477,0.08640289306640625,0.7878990173339844,0.18350887298583984
175,653211712.0,9.23471736907959,-1.8459854125976562,2.5271568298339844,-0.0010652542114257812,0.0,0.0010652542114257812,-0.5814294815063477,0.08640289306640625,0.7878990173339844,0.18350887298583984
176,653211776.0,9.329291343688965,-1.8447885513305664,2.5235652923583984,-0.025567054748535156,0.0,0.014913558959960938,-0.5814294815063477,0.08640289306640625,0.7878990173339844,0.18350887298583984
177,653211776.0,9.332881927490234,-1.854365348815918,2.4613142013549805,-0.025567054748535156,0.0,0.014913558959960938,-0.5814294815063477,0.08640289306640625,0.7878990173339844,0.18350887298583984
178,653211776.0,9.222745895385742,-1.8711252212524414,2.4661026000976562,-0.025567054748535156,0.0,0.014913558959960938,-0.5814294815063477,0.08640289306640625,0.7878990173339844,0.18350887298583984
179,653211776.0,9.252674102783203,-1.9226016998291016,2.444554328918457,-0.025567054748535156,0.0,0.014913558959960938,-0.5814294815063477,0.08640289306640625,0.7878990173339844,0.18350887298583984
180,653211840.0,9.342459678649902,-1.9118280410766602,2.4230051040649414,0.04900360107421875,-0.009587287902832031,0.0021305084228515625,-0.5814294815063477,0.08640289306640625,0.7878990173339844,0.18350887298583984
181,653211840.0,9.250279426574707,-1.8555622100830078,2.3846969604492188,0.04900360107421875,-0.009587287902832031,0.0021305084228515625,-0.5814294815063477,0.08640289306640625,0.7878990173339844,0.18350887298583984
182,653211840.0,9.174860000610352,-1.820845603942871,2.444554328918457,0.04900360107421875,-0.009587287902832031,0.0021305084228515625,-0.5814294815063477,0.08640289306640625,0.7878990173339844,0.18350887298583984
183,653211904.0,9.199999809265137,-1.8663368225097656,2.4206113815307617,0.05539512634277344,-0.03621959686279297,0.0,-0.5814294815063477,0.08640289306640625,0.7878990173339844,0.18350887298583984
184,653211904.0,9.23471736907959,-1.948939323425293,2.434976577758789,0.05539512634277344,-0.03621959686279297,0.0,-0.5814294815063477,0.08640289306640625,0.7878990173339844,0.18350887298583984
185,653211904.0,9.26464557647705,-2.132101058959961,2.502017021179199,0.05539512634277344,-0.03621959686279297,0.0,-0.5814294815063477,0.08640289306640625,0.7878990173339844,0.18350887298583984
186,653211968.0,9.380767822265625,-2.3032913208007812,2.616941452026367,0.05539512634277344,-0.03621959686279297,0.0,-0.5814294815063477,0.08640289306640625,0.7878990173339844,0.18350887298583984
187,653211968.0,9.678854942321777,-3.03115177154541,2.8815088272094727,0.05539512634277344,-0.03621959686279297,0.0,-0.5814294815063477,0.08640289306640625,0.7878990173339844,0.18350887298583984
188,653211968.0,10.291789054870605,-3.952946662902832,3.408249855041504,0.05539512634277344,-0.03621959686279297,0.0,-0.5814294815063477,0.08640289306640625,0.7878990173339844,0.18350887298583984
189,653212032.0,10.676070213317871,-3.984072685241699,4.798126220703125,-1.251723289489746,0.16405487060546875,1.906881332397461,-0.5814294815063477,0.08640289306640625,0.7878990173339844,0.18350887298583984
190,653212032.0,11.277033805847168,-5.060298919677734,6.653689384460449,-1.251723289489746,0.16405487060546875,1.906881332397461,-0.5814294815063477,0.08640289306640625,0.7878990173339844,0.18350887298583984
191,653212032.0,12.753104209899902,-5.521197319030762,7.464151382446289,-1.251723289489746,0.16405487060546875,1.906881332397461,-0.5814294815063477,0.08640289306640625,0.7878990173339844,0.18350887298583984
192,653212096.0,14.640989303588867,-9.652518272399902,5.475706100463867,0.32065391540527344,1.7129974365234375,5.31263542175293,-0.5814294815063477,0.08640289306640625,0.7878990173339844,0.18350887298583984
193,653212096.0,16.49056625366211,-13.949044227600098,5.350006103515625,0.32065391540527344,1.7129974365234375,5.31263542175293,-0.5814294815063477,0.08640289306640625,0.7878990173339844,0.18350887298583984
194,653212096.0,17.787067413330078,-12.98654556274414,7.4749250411987305,0.32065391540527344,1.7129974365234375,5.31263542175293,-0.5814294815063477,0.08640289306640625,0.7878990173339844,0.18350887298583984
195,653212096.0,17.437501907348633,-12.358048439025879,8.437423706054688,0.32065391540527344,1.7129974365234375,5.31263542175293,-0.5814294815063477,0.08640289306640625,0.7878990173339844,0.18350887298583984
196,653212160.0,16.534860610961914,-11.158516883850098,6.772205352783203,-1.274094581604004,3.2118701934814453,7.47731876373291,-0.5814294815063477,0.08640289306640625,0.7878990173339844,0.18350887298583984
197,653212160.0,13.722784996032715,-12.298192024230957,5.194378852844238,-1.274094581604004,3.2118701934814453,7.47731876373291,-0.5814294815063477,0.08640289306640625,0.7878990173339844,0.18350887298583984
198,653212160.0,10.447417259216309,-12.968588829040527,5.662459373474121,-1.274094581604004,3.2118701934814453,7.47731876373291,-0.5814294815063477,0.08640289306640625,0.7878990173339844,0.18350887298583984
199,653212224.0,6.99606990814209,-12.19882869720459,5.129733085632324,-1.5276355743408203,3.095752716064453,8.337013244628906,-0.5814294815063477,0.08640289306640625,0.7878990173339844,0.18350887298583984
200,653212224.0,4.503630638122559,-11.306962013244629,4.233077049255371,-1.5276355743408203,3.095752716064453,8.337013244628906,-0.5814294815063477,0.08640289306640625,0.7878990173339844,0.18350887298583984
201,653212224.0,3.113753318786621,-9.28499698638916,3.331632614135742,-1.5276355743408203,3.095752716064453,8.337013244628906,-0.5814294815063477,0.08640289306640625,0.7878990173339844,0.18350887298583984
202,653212288.0,2.846792221069336,-6.617774963378906,1.6364860534667969,-1.5276355743408203,3.095752716064453,8.337013244628906,-0.5814294815063477,0.08640289306640625,0.7878990173339844,0.18350887298583984
203,653212288.0,3.091008186340332,-3.7207021713256836,1.3012876510620117,-1.5276355743408203,3.095752716064453,8.337013244628906,-0.5814294815063477,0.08640289306640625,0.7878990173339844,0.18350887298583984
204,653212288.0,2.6073646545410156,-2.9844627380371094,0.059856414794921875,-1.5276355743408203,3.095752716064453,8.337013244628906,-0.5814294815063477,0.08640289306640625,0.7878990173339844,0.18350887298583984
205,653212352.0,1.0953798294067383,-1.4593095779418945,-0.8751068115234375,-1.5276355743408203,3.095752716064453,8.337013244628906,-0.5814294815063477,0.08640289306640625,0.7878990173339844,0.18350887298583984
206,653212352.0,-0.5171632766723633,1.1959400177001953,0.6955366134643555,-1.5276355743408203,3.095752716064453,8.337013244628906,-0.5814294815063477,0.08640289306640625,0.7878990173339844,0.18350887298583984
207,653212352.0,-1.8268308639526367,1.9537277221679688,1.3443851470947266,-1.5276355743408203,3.095752716064453,8.337013244628906,-0.5814294815063477,0.08640289306640625,0.7878990173339844,0.18350887298583984
208,653212352.0,-2.940169334411621,-0.7494077682495117,-1.1923484802246094,-1.5276355743408203,3.095752716064453,8.337013244628906,-0.5814294815063477,0.08640289306640625,0.7878990173339844,0.18350887298583984
209,653212352.0,-0.5171632766723633,1.1959400177001953,0.6955366134643555,-1.5276355743408203,3.095752716064453,8.337013244628906,-0.5814294815063477,0.08640289306640625,0.7878990173339844,0.18350887298583984
210,653212352.0,-1.8268308639526367,1.9537277221679688,1.3443851470947266,-1.5276355743408203,3.095752716064453,8.337013244628906,-0.5814294815063477,0.08640289306640625,0.7878990173339844,0.18350887298583984
211,653212352.0,-2.940169334411621,-0.7494077682495117,-1.1923484802246094,-1.5276355743408203,3.095752716064453,8.337013244628906,-0.5814294815063477,0.08640289306640625,0.7878990173339844,0.18350887298583984
212,653212416.0,-3.0706567764282227,-2.1799869537353516,-0.2394266128540039,2.3692197799682617,1.2815513610839844,1.928187370300293,0.2907142639160156,-0.5863065719604492,0.576207160949707,0.48958778381347656
213,653212416.0,-3.306492805480957,-1.3934669494628906,0.2178783416748047,2.3692197799682617,1.2815513610839844,1.928187370300293,0.2907142639160156,-0.5863065719604492,0.576207160949707,0.48958778381347656
214,653212416.0,-3.0706567764282227,-2.1799869537353516,-0.2394266128540039,2.3692197799682617,1.2815513610839844,1.928187370300293,0.2907142639160156,-0.5863065719604492,0.576207160949707,0.48958778381347656
215,653212416.0,-3.306492805480957,-1.3934669494628906,0.2178783416748047,2.3692197799682617,1.2815513610839844,1.928187370300293,0.2907142639160156,-0.5863065719604492,0.576207160949707,0.48958778381347656
216,653212544.0,-7.583864212036133,1.0199604034423828,-1.204319953918457,1.3710365295410156,1.1324100494384766,0.39948558807373047,0.3597679138183594,-0.5697336196899414,0.5618782043457031,0.4799203872680664
217,653212544.0,-7.522810935974121,-2.8240461349487305,2.8048925399780273,1.3710365295410156,1.1324100494384766,0.39948558807373047,0.3597679138183594,-0.5697336196899414,0.5618782043457031,0.4799203872680664
218,653212608.0,-7.6281585693359375,0.7948989868164062,4.5598955154418945,1.3710365295410156,1.1324100494384766,0.39948558807373047,0.3597679138183594,-0.5697336196899414,0.5618782043457031,0.4799203872680664
219,653212608.0,-9.711177825927734,1.635289192199707,3.062276840209961,1.3710365295410156,1.1324100494384766,0.39948558807373047,0.3597679138183594,-0.5697336196899414,0.5618782043457031,0.4799203872680664
220,653212608.0,-13.48694896697998,11.539206504821777,-24.03013801574707,1.3710365295410156,1.1324100494384766,0.39948558807373047,0.3597679138183594,-0.5697336196899414,0.5618782043457031,0.4799203872680664
221,653212672.0,-1.8160572052001953,-3.0826282501220703,30.560522079467773,0.6455698013305664,0.28549957275390625,-2.1135482788085938,0.3597679138183594,-0.5697336196899414,0.5618782043457031,0.4799203872680664
222,653212672.0,-4.828054428100586,2.5499019622802734,-8.521223068237305,0.6455698013305664,0.28549957275390625,-2.1135482788085938,0.3597679138183594,-0.5697336196899414,0.5618782043457031,0.4799203872680664
223,653212672.0,-3.743448257446289,-7.482108116149902,-1.8411970138549805,0.6455698013305664,0.28549957275390625,-2.1135482788085938,0.3597679138183594,-0.5697336196899414,0.5618782043457031,0.4799203872680664
224,653212672.0,-7.836461067199707,-9.918282508850098,-3.164033889770508,0.6455698013305664,0.28549957275390625,-2.1135482788085938,0.3597679138183594,-0.5697336196899414,0.5618782043457031,0.4799203872680664
225,653212736.0,-7.44379997253418,-3.336421012878418,-2.8288354873657227,1.1196269989013672,-1.576639175415039,-2.372415542602539,0.3597679138183594,-0.5697336196899414,0.5618782043457031,0.4799203872680664
226,653212736.0,-5.579856872558594,0.4417428970336914,3.1041765213012695,1.1196269989013672,-1.576639175415039,-2.372415542602539,0.3597679138183594,-0.5697336196899414,0.5618782043457031,0.4799203872680664
227,653212736.0,-3.116147994995117,-2.7402467727661133,3.5638771057128906,1.1196269989013672,-1.576639175415039,-2.372415542602539,0.3597679138183594,-0.5697336196899414,0.5618782043457031,0.4799203872680664
228,653212800.0,-2.072244644165039,-1.847182273864746,2.2374496459960938,1.1153650283813477,-1.0621004104614258,-3.1607351303100586,0.3597679138183594,-0.5697336196899414,0.5618782043457031,0.4799203872680664
229,653212800.0,-1.919011116027832,-0.7230701446533203,2.725881576538086,1.1153650283813477,-1.0621004104614258,-3.1607351303100586,0.3597679138183594,-0.5697336196899414,0.5618782043457031,0.4799203872680664
230,653212800.0,-1.5323352813720703,-1.3779048919677734,1.8316192626953125,1.1153650283813477,-1.0621004104614258,-3.1607351303100586,0.3597679138183594,-0.5697336196899414,0.5618782043457031,0.4799203872680664
231,653212864.0,-1.3012876510620117,-2.944957733154297,0.09577083587646484,1.1153650283813477,-1.0621004104614258,-3.1607351303100586,0.3597679138183594,-0.5697336196899414,0.5618782043457031,0.4799203872680664
232,653212864.0,-0.6967334747314453,-3.671619415283203,2.1692123413085938,1.1153650283813477,-1.0621004104614258,-3.1607351303100586,0.3597679138183594,-0.5697336196899414,0.5618782043457031,0.4799203872680664
233,653212864.0,0.6632137298583984,-4.136109352111816,3.8440074920654297,1.1153650283813477,-1.0621004104614258,-3.1607351303100586,0.3597679138183594,-0.5697336196899414,0.5618782043457031,0.4799203872680664
234,653212864.0,-1.3012876510620117,-2.944957733154297,0.09577083587646484,1.1153650283813477,-1.0621004104614258,-3.1607351303100586,0.3597679138183594,-0.5697336196899414,0.5618782043457031,0.4799203872680664
235,653212864.0,-0.6967334747314453,-3.671619415283203,2.1692123413085938,1.1153650283813477,-1.0621004104614258,-3.1607351303100586,0.3597679138183594,-0.5697336196899414,0.5618782043457031,0.4799203872680664
236,653212864.0,0.6632137298583984,-4.136109352111816,3.8440074920654297,1.1153650283813477,-1.0621004104614258,-3.1607351303100586,0.3597679138183594,-0.5697336196899414,0.5618782043457031,0.4799203872680664
237,653212928.0,0.6380739212036133,-4.295328140258789,2.378711700439453,2.3862648010253906,-1.5148515701293945,-5.309439659118652,0.3597679138183594,-0.5697336196899414,0.5618782043457031,0.4799203872680664
238,653212928.0,0.5482883453369141,-4.3444108963012695,1.3168506622314453,2.3862648010253906,-1.5148515701293945,-5.309439659118652,0.3597679138183594,-0.5697336196899414,0.5618782043457031,0.4799203872680664
239,653212928.0,0.6380739212036133,-4.295328140258789,2.378711700439453,2.3862648010253906,-1.5148515701293945,-5.309439659118652,0.3597679138183594,-0.5697336196899414,0.5618782043457031,0.4799203872680664
240,653212928.0,0.5482883453369141,-4.3444108963012695,1.3168506622314453,2.3862648010253906,-1.5148515701293945,-5.309439659118652,0.3597679138183594,-0.5697336196899414,0.5618782043457031,0.4799203872680664
241,653212928.0,1.3635387420654297,-4.127729415893555,2.5271568298339844,2.3862648010253906,-1.5148515701293945,-5.309439659118652,0.3597679138183594,-0.5697336196899414,0.5618782043457031,0.4799203872680664
242,653212992.0,2.7689781188964844,-6.469329833984375,3.0203771591186523,0.3962898254394531,-3.452627182006836,-5.899614334106445,0.3597679138183594,-0.5697336196899414,0.5618782043457031,0.4799203872680664
243,653212992.0,3.557891845703125,-8.049551010131836,3.0479116439819336,0.3962898254394531,-3.452627182006836,-5.899614334106445,0.3597679138183594,-0.5697336196899414,0.5618782043457031,0.4799203872680664
244,653212992.0,3.900273323059082,-6.391515731811523,3.4764862060546875,0.3962898254394531,-3.452627182006836,-5.899614334106445,0.3597679138183594,-0.5697336196899414,0.5618782043457031,0.4799203872680664
245,653212992.0,5.412257194519043,-8.88634967803955,5.2745866775512695,0.3962898254394531,-3.452627182006836,-5.899614334106445,0.3597679138183594,-0.5697336196899414,0.5618782043457031,0.4799203872680664
246,653213120.0,15.421523094177246,-10.59705924987793,7.022407531738281,1.0748844146728516,-4.998373031616211,-4.72672176361084,0.3597679138183594,-0.5697336196899414,0.5618782043457031,0.4799203872680664
247,653213120.0,15.421523094177246,-10.59705924987793,7.022407531738281,1.0748844146728516,-4.998373031616211,-4.72672176361084,0.3597679138183594,-0.5697336196899414,0.5618782043457031,0.4799203872680664
248,653213184.0,15.483774185180664,-7.739492416381836,9.150917053222656,1.0748844146728516,-4.998373031616211,-4.72672176361084,0.3597679138183594,-0.5697336196899414,0.5618782043457031,0.4799203872680664
249,653213184.0,14.505712509155273,-5.933012008666992,10.000885009765625,1.0748844146728516,-4.998373031616211,-4.72672176361084,0.3597679138183594,-0.5697336196899414,0.5618782043457031,0.4799203872680664
250,653213184.0,15.079141616821289,-6.384332656860352,8.701991081237793,1.0748844146728516,-4.998373031616211,-4.72672176361084,0.3597679138183594,-0.5697336196899414,0.5618782043457031,0.4799203872680664
251,653213184.0,15.483774185180664,-7.739492416381836,9.150917053222656,1.0748844146728516,-4.998373031616211,-4.72672176361084,0.3597679138183594,-0.5697336196899414,0.5618782043457031,0.4799203872680664
252,653213184.0,14.505712509155273,-5.933012008666992,10.000885009765625,1.0748844146728516,-4.998373031616211,-4.72672176361084,0.3597679138183594,-0.5697336196899414,0.5618782043457031,0.4799203872680664
253,653213184.0,15.079141616821289,-6.384332656860352,8.701991081237793,1.0748844146728516,-4.998373031616211,-4.72672176361084,0.3597679138183594,-0.5697336196899414,0.5618782043457031,0.4799203872680664
254,653213248.0,15.237163543701172,-5.8683671951293945,6.5411577224731445,0.5560846328735352,-1.1068429946899414,-2.192380905151367,0.3597679138183594,-0.5697336196899414,0.5618782043457031,0.4799203872680664
255,653213248.0,15.237163543701172,-5.8683671951293945,6.5411577224731445,0.5560846328735352,-1.1068429946899414,-2.192380905151367,0.3597679138183594,-0.5697336196899414,0.5618782043457031,0.4799203872680664
256,653213248.0,13.850878715515137,-5.724710464477539,4.472504615783691,0.5560846328735352,-1.1068429946899414,-2.192380905151367,0.3597679138183594,-0.5697336196899414,0.5618782043457031,0.4799203872680664
257,653213248.0,12.74831485748291,-5.545139312744141,4.296525955200195,0.5560846328735352,-1.1068429946899414,-2.192380905151367,0.3597679138183594,-0.5697336196899414,0.5618782043457031,0.4799203872680664
258,653213312.0,11.290202140808105,-4.727495193481445,5.007624626159668,-0.5177335739135742,0.18642616271972656,1.0631656646728516,0.3597679138183594,-0.5697336196899414,0.5618782043457031,0.4799203872680664
259,653213312.0,10.401926040649414,-3.565074920654297,5.581053733825684,-0.5177335739135742,0.18642616271972656,1.0631656646728516,0.3597679138183594,-0.5697336196899414,0.5618782043457031,0.4799203872680664
260,653213312.0,10.240312576293945,-2.783344268798828,5.721118927001953,-0.5177335739135742,0.18642616271972656,1.0631656646728516,0.3597679138183594,-0.5697336196899414,0.5618782043457031,0.4799203872680664
261,653213440.0,9.352036476135254,-0.9984121322631836,2.4505395889282227,-0.42292213439941406,0.7020301818847656,1.0738191604614258,0.3597679138183594,-0.5697336196899414,0.5618782043457031,0.4799203872680664
262,653213440.0,9.73751449584961,-0.3567466735839844,2.1560440063476562,-0.42292213439941406,0.7020301818847656,1.0738191604614258,0.3597679138183594,-0.5697336196899414,0.5618782043457031,0.4799203872680664
263,653213440.0,9.352036476135254,-0.9984121322631836,2.4505395889282227,-0.42292213439941406,0.7020301818847656,1.0738191604614258,0.3597679138183594,-0.5697336196899414,0.5618782043457031,0.4799203872680664
264,653213440.0,9.73751449584961,-0.3567466735839844,2.1560440063476562,-0.42292213439941406,0.7020301818847656,1.0738191604614258,0.3597679138183594,-0.5697336196899414,0.5618782043457031,0.4799203872680664
265,653213504.0,9.962576866149902,-0.2106952667236328,2.039921760559082,-0.42292213439941406,0.7020301818847656,1.0738191604614258,0.3597679138183594,-0.5697336196899414,0.5618782043457031,0.4799203872680664
266,653213504.0,9.839271545410156,-0.6225109100341797,1.5239553451538086,-0.42292213439941406,0.7020301818847656,1.0738191604614258,0.3597679138183594,-0.5697336196899414,0.5618782043457031,0.4799203872680664
267,653213504.0,9.680051803588867,-1.1516456604003906,1.1743907928466797,-0.42292213439941406,0.7020301818847656,1.0738191604614258,0.3597679138183594,-0.5697336196899414,0.5618782043457031,0.4799203872680664
268,653213504.0,9.962576866149902,-0.2106952667236328,2.039921760559082,-0.42292213439941406,0.7020301818847656,1.0738191604614258,0.3597679138183594,-0.5697336196899414,0.5618782043457031,0.4799203872680664
269,653213504.0,9.839271545410156,-0.6225109100341797,1.5239553451538086,-0.42292213439941406,0.7020301818847656,1.0738191604614258,0.3597679138183594,-0.5697336196899414,0.5618782043457031,0.4799203872680664
270,653213504.0,9.680051803588867,-1.1516456604003906,1.1743907928466797,-0.42292213439941406,0.7020301818847656,1.0738191604614258,0.3597679138183594,-0.5697336196899414,0.5618782043457031,0.4799203872680664
271,653213568.0,9.586675643920898,-1.4186077117919922,1.391073226928711,0.12463951110839844,0.17044734954833984,0.6498308181762695,0.3597679138183594,-0.5697336196899414,0.5618782043457031,0.4799203872680664
272,653213568.0,9.40590763092041,-0.9026412963867188,1.3767070770263672,0.12463951110839844,0.17044734954833984,0.6498308181762695,0.3597679138183594,-0.5697336196899414,0.5618782043457031,0.4799203872680664
273,653213568.0,8.962966918945312,-1.1779823303222656,1.2210798263549805,0.12463951110839844,0.17044734954833984,0.6498308181762695,0.3597679138183594,-0.5697336196899414,0.5618782043457031,0.4799203872680664
274,653213568.0,8.68523120880127,-1.6436691284179688,1.2282629013061523,0.12463951110839844,0.17044734954833984,0.6498308181762695,0.3597679138183594,-0.5697336196899414,0.5618782043457031,0.4799203872680664
275,653213632.0,9.002472877502441,-1.8603506088256836,1.6113462448120117,0.5837821960449219,-0.041545867919921875,0.2950868606567383,0.3597679138183594,-0.5697336196899414,0.5618782043457031,0.4799203872680664
276,653213760.0,9.150917053222656,-2.2087182998657227,1.8986597061157227,0.3451557159423828,-0.2695198059082031,-0.08309268951416016,0.3597679138183594,-0.5697336196899414,0.5618782043457031,0.4799203872680664
277,653213760.0,9.06472396850586,-2.0818214416503906,1.8340139389038086,0.3451557159423828,-0.2695198059082031,-0.08309268951416016,0.3597679138183594,-0.5697336196899414,0.5618782043457031,0.4799203872680664
278,653213760.0,8.939023971557617,-2.006402015686035,2.0566816329956055,0.3451557159423828,-0.2695198059082031,-0.08309268951416016,0.3597679138183594,-0.5697336196899414,0.5618782043457031,0.4799203872680664
279,653213824.0,9.039584159851074,-2.1763954162597656,2.2973060607910156,0.23329925537109375,-0.33237171173095703,-0.11824703216552734,0.3597679138183594,-0.5697336196899414,0.5618782043457031,0.4799203872680664
280,653213824.0,9.192817687988281,-2.375120162963867,2.266180992126465,0.23329925537109375,-0.33237171173095703,-0.11824703216552734,0.3597679138183594,-0.5697336196899414,0.5618782043457031,0.4799203872680664
281,653213824.0,9.165283203125,-2.3619518280029297,2.2063236236572266,0.23329925537109375,-0.33237171173095703,-0.11824703216552734,0.3597679138183594,-0.5697336196899414,0.5618782043457031,0.4799203872680664
282,653213888.0,9.107820510864258,-2.3846969604492188,2.460116386413574,0.23329925537109375,-0.33237171173095703,-0.11824703216552734,0.3597679138183594,-0.5697336196899414,0.5618782043457031,0.4799203872680664
283,653213888.0,9.28499698638916,-2.508002281188965,2.559478759765625,0.23329925537109375,-0.33237171173095703,-0.11824703216552734,0.3597679138183594,-0.5697336196899414,0.5618782043457031,0.4799203872680664
284,653213888.0,9.487313270568848,-2.4924392700195312,2.381105422973633,0.23329925537109375,-0.33237171173095703,-0.11824703216552734,0.3597679138183594,-0.5697336196899414,0.5618782043457031,0.4799203872680664
285,653213888.0,9.391542434692383,-2.3858938217163086,2.3619518280029297,0.23329925537109375,-0.33237171173095703,-0.11824703216552734,0.3597679138183594,-0.5697336196899414,0.5618782043457031,0.4799203872680664
286,653213952.0,9.244294166564941,-2.3930768966674805,2.5738449096679688,0.22264671325683594,-0.18216514587402344,0.08415794372558594,0.3597679138183594,-0.5697336196899414,0.5618782043457031,0.4799203872680664
287,653213952.0,9.49569320678711,-2.438568115234375,2.7725696563720703,0.22264671325683594,-0.18216514587402344,0.08415794372558594,0.3597679138183594,-0.5697336196899414,0.5618782043457031,0.4799203872680664
288,653213952.0,9.636955261230469,-2.390683174133301,2.5678586959838867,0.22264671325683594,-0.18216514587402344,0.08415794372558594,0.3597679138183594,-0.5697336196899414,0.5618782043457031,0.4799203872680664
289,653214016.0,9.42745590209961,-2.2721662521362305,2.469694137573242,0.17151260375976562,-0.09907245635986328,0.17470836639404297,0.3597679138183594,-0.5697336196899414,0.5618782043457031,0.4799203872680664
290,653214016.0,9.390344619750977,-2.2649831771850586,2.522367477416992,0.17151260375976562,-0.09907245635986328,0.17470836639404297,0.3597679138183594,-0.5697336196899414,0.5618782043457031,0.4799203872680664
291,653214016.0,9.71476936340332,-2.2757577896118164,2.6732072830200195,0.17151260375976562,-0.09907245635986328,0.17470836639404297,0.3597679138183594,-0.5697336196899414,0.5618782043457031,0.4799203872680664
292,653214080.0,9.57709789276123,-2.158437728881836,2.564268112182617,0.17151260375976562,-0.09907245635986328,0.17470836639404297,0.3597679138183594,-0.5697336196899414,0.5618782043457031,0.4799203872680664
293,653214080.0,9.199999809265137,-2.069849967956543,2.470890998840332,0.17151260375976562,-0.09907245635986328,0.17470836639404297,0.3597679138183594,-0.5697336196899414,0.5618782043457031,0.4799203872680664
294,653214080.0,9.152114868164062,-2.0878067016601562,2.4912424087524414,0.17151260375976562,-0.09907245635986328,0.17470836639404297,0.3597679138183594,-0.5697336196899414,0.5618782043457031,0.4799203872680664
295,653214144.0,9.308939933776855,-2.059075355529785,2.506805419921875,0.12570476531982422,0.08948421478271484,0.08202743530273438,0.3597679138183594,-0.5697336196899414,0.5618782043457031,0.4799203872680664
296,653214144.0,9.325699806213379,-1.9872474670410156,2.3583602905273438,0.12570476531982422,0.08948421478271484,0.08202743530273438,0.3597679138183594,-0.5697336196899414,0.5618782043457031,0.4799203872680664
297,653214144.0,9.067117691040039,-2.059075355529785,2.1787891387939453,0.12570476531982422,0.08948421478271484,0.08202743530273438,0.3597679138183594,-0.5697336196899414,0.5618782043457031,0.4799203872680664
298,653214208.0,8.934235572814941,-2.168015480041504,2.251814842224121,0.10226821899414062,0.07350540161132812,0.04793834686279297,0.3597679138183594,-0.5697336196899414,0.5618782043457031,0.4799203872680664
299,653214208.0,9.18563461303711,-2.0794267654418945,2.4230051040649414,0.10226821899414062,0.07350540161132812,0.04793834686279297,0.3597679138183594,-0.5697336196899414,0.5618782043457031,0.4799203872680664
300,653214208.0,9.270630836486816,-2.1512556076049805,2.072244644165039,0.10226821899414062,0.07350540161132812,0.04793834686279297,0.3597679138183594,-0.5697336196899414,0.5618782043457031,0.4799203872680664
301,653214272.0,9.353233337402344,-2.468496322631836,1.9860506057739258,0.10226821899414062,0.07350540161132812,0.04793834686279297,0.3597679138183594,-0.5697336196899414,0.5618782043457031,0.4799203872680664
302,653214336.0,9.292180061340332,-2.53194522857666,1.9226016998291016,0.10226821899414062,0.07350540161132812,0.04793834686279297,0.3597679138183594,-0.5697336196899414,0.5618782043457031,0.4799203872680664
303,653214464.0,9.142537117004395,-2.4541311264038086,2.157240867614746,0.019174575805664062,-0.045806884765625,-0.020239830017089844,0.3597679138183594,-0.5697336196899414,0.5618782043457031,0.4799203872680664
304,653214464.0,9.142537117004395,-2.470890998840332,2.212308883666992,0.019174575805664062,-0.045806884765625,-0.020239830017089844,0.3597679138183594,-0.5697336196899414,0.5618782043457031,0.4799203872680664
305,653214464.0,9.347248077392578,-2.3990631103515625,2.2087182998657227,0.019174575805664062,-0.045806884765625,-0.020239830017089844,0.3597679138183594,-0.5697336196899414,0.5618782043457031,0.4799203872680664
306,653214528.0,9.449005126953125,-2.2637863159179688,2.132101058959961,0.0010652542114257812,-0.02982807159423828,0.03835010528564453,0.3597679138183594,-0.5697336196899414,0.5618782043457031,0.4799203872680664
307,653214528.0,9.290982246398926,-2.244631767272949,2.1763954162597656,0.0010652542114257812,-0.02982807159423828,0.03835010528564453,0.3597679138183594,-0.5697336196899414,0.5618782043457031,0.4799203872680664
308,653214528.0,9.130566596984863,-2.3918800354003906,2.1692123413085938,0.0010652542114257812,-0.02982807159423828,0.03835010528564453,0.3597679138183594,-0.5697336196899414,0.5618782043457031,0.4799203872680664
309,653214528.0,9.229928970336914,-2.4265966415405273,2.244631767272949,0.0010652542114257812,-0.02982807159423828,0.03835010528564453,0.3597679138183594,-0.5697336196899414,0.5618782043457031,0.4799203872680664
310,653214592.0,9.231125831604004,-2.256603240966797,2.227871894836426,0.0010652542114257812,-0.02982807159423828,0.03835010528564453,0.3597679138183594,-0.5697336196899414,0.5618782043457031,0.4799203872680664
311,653214592.0,9.165283203125,-2.1464672088623047,2.2087182998657227,0.0010652542114257812,-0.02982807159423828,0.03835010528564453,0.3597679138183594,-0.5697336196899414,0.5618782043457031,0.4799203872680664
312,653214592.0,9.112608909606934,-2.1955490112304688,2.1823806762695312,0.0010652542114257812,-0.02982807159423828,0.03835010528564453,0.3597679138183594,-0.5697336196899414,0.5618782043457031,0.4799203872680664
313,653214656.0,9.150917053222656,-2.312869071960449,2.284137725830078,0.0170440673828125,-0.02769756317138672,-0.012783050537109375,0.3597679138183594,-0.5697336196899414,0.5618782043457031,0.4799203872680664
314,653214656.0,9.243097305297852,-2.2374496459960938,2.2135066986083984,0.0170440673828125,-0.02769756317138672,-0.012783050537109375,0.3597679138183594,-0.5697336196899414,0.5618782043457031,0.4799203872680664
315,653214656.0,9.246688842773438,-2.2434349060058594,2.128509521484375,0.0170440673828125,-0.02769756317138672,-0.012783050537109375,0.3597679138183594,-0.5697336196899414,0.5618782043457031,0.4799203872680664
316,653214720.0,9.211971282958984,-2.296109199523926,2.1464672088623047,0.0170440673828125,-0.02769756317138672,-0.012783050537109375,0.3597679138183594,-0.5697336196899414,0.5618782043457031,0.4799203872680664
317,653214720.0,9.173663139343262,-2.354768753051758,2.233858108520508,0.0170440673828125,-0.02769756317138672,-0.012783050537109375,0.3597679138183594,-0.5697336196899414,0.5618782043457031,0.4799203872680664
318,653214720.0,9.26464557647705,-2.3236427307128906,2.229069709777832,0.0170440673828125,-0.02769756317138672,-0.012783050537109375,0.3597679138183594,-0.5697336196899414,0.5618782043457031,0.4799203872680664
319,653214784.0,9.340065002441406,-2.347585678100586,2.123721122741699,0.0170440673828125,-0.02769756317138672,-0.012783050537109375,0.3597679138183594,-0.5697336196899414,0.5618782043457031,0.4799203872680664
320,653214976.0,9.250279426574707,-2.377513885498047,2.253011703491211,0.07350540161132812,-0.023435592651367188,0.0010652542114257812,0.3597679138183594,-0.5697336196899414,0.5618782043457031,0.4799203872680664
321,653214976.0,9.258659362792969,-2.227871894836426,2.3344173431396484,0.07350540161132812,-0.023435592651367188,0.0010652542114257812,0.3597679138183594,-0.5697336196899414,0.5618782043457031,0.4799203872680664
322,653215040.0,9.289785385131836,-2.225478172302246,2.1991405487060547,-0.020239830017089844,0.014913558959960938,0.0,0.3597679138183594,-0.5697336196899414,0.5618782043457031,0.4799203872680664
323,653215040.0,9.219154357910156,-2.2697715759277344,2.2111120223999023,-0.020239830017089844,0.014913558959960938,0.0,0.3597679138183594,-0.5697336196899414,0.5618782043457031,0.4799203872680664
324,653215040.0,9.149720191955566,-2.3583602905273438,2.2362518310546875,-0.020239830017089844,0.014913558959960938,0.0,0.3597679138183594,-0.5697336196899414,0.5618782043457031,0.4799203872680664
325,653215104.0,9.204788208007812,-2.357163429260254,2.2613916397094727,-0.020239830017089844,0.014913558959960938,0.0,0.3597679138183594,-0.5697336196899414,0.5618782043457031,0.4799203872680664
326,653215104.0,9.323305130004883,-2.3308258056640625,2.201535224914551,-0.020239830017089844,0.014913558959960938,0.0,0.3597679138183594,-0.5697336196899414,0.5618782043457031,0.4799203872680664
327,653215104.0,9.2550687789917,-2.253011703491211,2.1740007400512695,-0.020239830017089844,0.014913558959960938,0.0,0.3597679138183594,-0.5697336196899414,0.5618782043457031,0.4799203872680664
328,653215104.0,9.155706405639648,-2.2673778533935547,2.163227081298828,-0.020239830017089844,0.014913558959960938,0.0,0.3597679138183594,-0.5697336196899414,0.5618782043457031,0.4799203872680664
329,653215104.0,9.204788208007812,-2.357163429260254,2.2613916397094727,-0.020239830017089844,0.014913558959960938,0.0,0.3597679138183594,-0.5697336196899414,0.5618782043457031,0.4799203872680664
330,653215104.0,9.323305130004883,-2.3308258056640625,2.201535224914551,-0.020239830017089844,0.014913558959960938,0.0,0.3597679138183594,-0.5697336196899414,0.5618782043457031,0.4799203872680664
331,653215104.0,9.2550687789917,-2.253011703491211,2.1740007400512695,-0.020239830017089844,0.014913558959960938,0.0,0.3597679138183594,-0.5697336196899414,0.5618782043457031,0.4799203872680664
332,653215104.0,9.155706405639648,-2.2673778533935547,2.163227081298828,-0.020239830017089844,0.014913558959960938,0.0,0.3597679138183594,-0.5697336196899414,0.5618782043457031,0.4799203872680664
333,653215168.0,9.299362182617188,-2.310474395751953,2.2099151611328125,0.0287628173828125,0.0170440673828125,0.02769756317138672,0.3597679138183594,-0.5697336196899414,0.5618782043457031,0.4799203872680664
334,653215168.0,9.299362182617188,-2.310474395751953,2.2099151611328125,0.0287628173828125,0.0170440673828125,0.02769756317138672,0.3597679138183594,-0.5697336196899414,0.5618782043457031,0.4799203872680664
335,653215168.0,9.397527694702148,-2.281743049621582,2.1464672088623047,0.0287628173828125,0.0170440673828125,0.02769756317138672,0.3597679138183594,-0.5697336196899414,0.5618782043457031,0.4799203872680664
336,653215168.0,9.338868141174316,-2.2422380447387695,2.0902013778686523,0.0287628173828125,0.0170440673828125,0.02769756317138672,0.3597679138183594,-0.5697336196899414,0.5618782043457031,0.4799203872680664
337,653215232.0,9.251477241516113,-2.258997917175293,2.138087272644043,0.024501800537109375,0.013848304748535156,0.02769756317138672,0.3597679138183594,-0.5697336196899414,0.5618782043457031,0.4799203872680664
338,653215232.0,9.208379745483398,-2.322445869445801,2.1548471450805664,0.024501800537109375,0.013848304748535156,0.02769756317138672,0.3597679138183594,-0.5697336196899414,0.5618782043457031,0.4799203872680664
339,653215232.0,9.221549034118652,-2.266180992126465,2.157240867614746,0.024501800537109375,0.013848304748535156,0.02769756317138672,0.3597679138183594,-0.5697336196899414,0.5618782043457031,0.4799203872680664
340,653215296.0,9.30654525756836,-2.1763954162597656,2.1177358627319336,0.024501800537109375,0.013848304748535156,0.02769756317138672,0.3597679138183594,-0.5697336196899414,0.5618782043457031,0.4799203872680664
341,653215296.0,9.241899490356445,-2.193155288696289,2.138087272644043,0.024501800537109375,0.013848304748535156,0.02769756317138672,0.3597679138183594,-0.5697336196899414,0.5618782043457031,0.4799203872680664
342,653215296.0,9.131763458251953,-2.2745609283447266,2.1452693939208984,0.024501800537109375,0.013848304748535156,0.02769756317138672,0.3597679138183594,-0.5697336196899414,0.5618782043457031,0.4799203872680664
343,653215360.0,9.170071601867676,-2.310474395751953,2.0866098403930664,0.024501800537109375,0.013848304748535156,0.02769756317138672,0.3597679138183594,-0.5697336196899414,0.5618782043457031,0.4799203872680664
344,653215360.0,9.249082565307617,-2.22188663482666,2.1225242614746094,0.024501800537109375,0.013848304748535156,0.02769756317138672,0.3597679138183594,-0.5697336196899414,0.5618782043457031,0.4799203872680664
345,653215360.0,9.275420188903809,-2.1775922775268555,2.0866098403930664,0.024501800537109375,0.013848304748535156,0.02769756317138672,0.3597679138183594,-0.5697336196899414,0.5618782043457031,0.4799203872680664
346,653215360.0,9.251477241516113,-2.191958427429199,2.099778175354004,0.024501800537109375,0.013848304748535156,0.02769756317138672,0.3597679138183594,-0.5697336196899414,0.5618782043457031,0.4799203872680664
347,653215424.0,9.182043075561523,-2.2637863159179688,2.1045665740966797,0.024501800537109375,0.013848304748535156,0.02769756317138672,0.3597679138183594,-0.5697336196899414,0.5618782043457031,0.4799203872680664
348,653215424.0,9.205986022949219,-2.2410402297973633,2.127312660217285,0.024501800537109375,0.013848304748535156,0.02769756317138672,0.3597679138183594,-0.5697336196899414,0.5618782043457031,0.4799203872680664
349,653215424.0,9.247885704040527,-2.1823806762695312,2.1201295852661133,0.024501800537109375,0.013848304748535156,0.02769756317138672,0.3597679138183594,-0.5697336196899414,0.5618782043457031,0.4799203872680664
350,653215488.0,9.227534294128418,-2.194352149963379,2.1129465103149414,0.03941535949707031,-0.023435592651367188,-0.01810932159423828,0.3597679138183594,-0.5697336196899414,0.5618782043457031,0.4799203872680664
351,653215488.0,9.177254676818848,-2.227871894836426,2.098581314086914,0.03941535949707031,-0.023435592651367188,-0.01810932159423828,0.3597679138183594,-0.5697336196899414,0.5618782043457031,0.4799203872680664
352,653215488.0,9.16648006439209,-2.3008975982666016,2.1225242614746094,0.03941535949707031,-0.023435592651367188,-0.01810932159423828,0.3597679138183594,-0.5697336196899414,0.5618782043457031,0.4799203872680664
353,653215552.0,9.241899490356445,-2.215900421142578,2.128509521484375,0.08522319793701172,-0.041545867919921875,-0.011717796325683594,0.3597679138183594,-0.5697336196899414,0.5618782043457031,0.4799203872680664
354,653215552.0,9.253870964050293,-2.2111120223999023,2.0518932342529297,0.08522319793701172,-0.041545867919921875,-0.011717796325683594,0.3597679138183594,-0.5697336196899414,0.5618782043457031,0.4799203872680664
355,653215552.0,9.225139617919922,-2.253011703491211,2.066258430480957,0.08522319793701172,-0.041545867919921875,-0.011717796325683594,0.3597679138183594,-0.5697336196899414,0.5618782043457031,0.4799203872680664
356,653215552.0,9.225139617919922,-2.253011703491211,2.066258430480957,0.08522319793701172,-0.041545867919921875,-0.011717796325683594,0.3597679138183594,-0.5697336196899414,0.5618782043457031,0.4799203872680664
357,653215616.0,9.223942756652832,-2.322445869445801,2.0578784942626953,0.08522319793701172,-0.041545867919921875,-0.011717796325683594,0.3597679138183594,-0.5697336196899414,0.5618782043457031,0.4799203872680664
358,653215616.0,9.288588523864746,-2.3942737579345703,2.0231618881225586,0.08522319793701172,-0.041545867919921875,-0.011717796325683594,0.3597679138183594,-0.5697336196899414,0.5618782043457031,0.4799203872680664
359,653215616.0,9.33407974243164,-2.3595571517944336,2.059075355529785,0.08522319793701172,-0.041545867919921875,-0.011717796325683594,0.3597679138183594,-0.5697336196899414,0.5618782043457031,0.4799203872680664
360,653215616.0,9.223942756652832,-2.322445869445801,2.0578784942626953,0.08522319793701172,-0.041545867919921875,-0.011717796325683594,0.3597679138183594,-0.5697336196899414,0.5618782043457031,0.4799203872680664
361,653215616.0,9.288588523864746,-2.3942737579345703,2.0231618881225586,0.08522319793701172,-0.041545867919921875,-0.011717796325683594,0.3597679138183594,-0.5697336196899414,0.5618782043457031,0.4799203872680664
362,653215616.0,9.33407974243164,-2.3595571517944336,2.059075355529785,0.08522319793701172,-0.041545867919921875,-0.011717796325683594,0.3597679138183594,-0.5697336196899414,0.5618782043457031,0.4799203872680664
363,653215680.0,9.308939933776855,-2.2362518310546875,2.105764389038086,0.19921016693115234,-0.07563591003417969,0.0,0.3597679138183594,-0.5697336196899414,0.5618782043457031,0.4799203872680664
364,653215680.0,9.308939933776855,-2.2362518310546875,2.105764389038086,0.19921016693115234,-0.07563591003417969,0.0,0.3597679138183594,-0.5697336196899414,0.5618782043457031,0.4799203872680664
365,653215744.0,9.28499698638916,-2.249420166015625,2.233858108520508,0.01810932159423828,-0.026632308959960938,0.00852203369140625,0.3597679138183594,-0.5697336196899414,0.5618782043457031,0.4799203872680664
366,653215808.0,9.329291343688965,-2.2506179809570312,2.3008975982666016,0.0010652542114257812,-0.011717796325683594,0.013848304748535156,0.3597679138183594,-0.5697336196899414,0.5618782043457031,0.4799203872680664
367,653215808.0,9.331685066223145,-2.1811838150024414,2.219491958618164,0.0010652542114257812,-0.011717796325683594,0.013848304748535156,0.3597679138183594,-0.5697336196899414,0.5618782043457031,0.4799203872680664
368,653215808.0,9.389147758483887,-2.164423942565918,2.1799869537353516,0.0010652542114257812,-0.011717796325683594,0.013848304748535156,0.3597679138183594,-0.5697336196899414,0.5618782043457031,0.4799203872680664
369,653215872.0,9.332881927490234,-2.2362518310546875,2.2613916397094727,0.00852203369140625,-0.0031957626342773438,0.023435592651367188,0.3597679138183594,-0.5697336196899414,0.5618782043457031,0.4799203872680664
370,653215872.0,9.189226150512695,-2.284137725830078,2.2099151611328125,0.00852203369140625,-0.0031957626342773438,0.023435592651367188,0.3597679138183594,-0.5697336196899414,0.5618782043457031,0.4799203872680664
371,653215872.0,9.268237113952637,-2.2386465072631836,2.1548471450805664,0.00852203369140625,-0.0031957626342773438,0.023435592651367188,0.3597679138183594,-0.5697336196899414,0.5618782043457031,0.4799203872680664
372,653215936.0,9.414287567138672,-2.17160701751709,2.1692123413085938,-0.025567054748535156,0.033023834228515625,0.012783050537109375,0.3597679138183594,-0.5697336196899414,0.5618782043457031,0.4799203872680664
373,653215936.0,9.367599487304688,-2.175198554992676,2.157240867614746,-0.025567054748535156,0.033023834228515625,0.012783050537109375,0.3597679138183594,-0.5697336196899414,0.5618782043457031,0.4799203872680664
374,653215936.0,9.258659362792969,-2.2147035598754883,2.109355926513672,-0.025567054748535156,0.033023834228515625,0.012783050537109375,0.3597679138183594,-0.5697336196899414,0.5618782043457031,0.4799203872680664
375,653216000.0,9.289785385131836,-2.189563751220703,2.127312660217285,-0.025567054748535156,0.033023834228515625,0.012783050537109375,0.3597679138183594,-0.5697336196899414,0.5618782043457031,0.4799203872680664
376,653216000.0,9.341261863708496,-2.132101058959961,2.1105527877807617,-0.025567054748535156,0.033023834228515625,0.012783050537109375,0.3597679138183594,-0.5697336196899414,0.5618782043457031,0.4799203872680664
377,653216000.0,9.290982246398926,-2.1440725326538086,2.1021728515625,-0.025567054748535156,0.033023834228515625,0.012783050537109375,0.3597679138183594,-0.5697336196899414,0.5618782043457031,0.4799203872680664
378,653216000.0,9.250279426574707,-2.2170982360839844,2.133297920227051,-0.025567054748535156,0.033023834228515625,0.012783050537109375,0.3597679138183594,-0.5697336196899414,0.5618782043457031,0.4799203872680664
379,653216064.0,9.247885704040527,-2.288926124572754,2.1021728515625,0.023435592651367188,0.0063915252685546875,0.0021305084228515625,0.3597679138183594,-0.5697336196899414,0.5618782043457031,0.4799203872680664
380,653216064.0,9.21675968170166,-2.2051267623901367,2.132101058959961,0.023435592651367188,0.0063915252685546875,0.0021305084228515625,0.3597679138183594,-0.5697336196899414,0.5618782043457031,0.4799203872680664
381,653216064.0,9.268237113952637,-2.1428756713867188,2.0890045166015625,0.023435592651367188,0.0063915252685546875,0.0021305084228515625,0.3597679138183594,-0.5697336196899414,0.5618782043457031,0.4799203872680664
382,653216128.0,9.273025512695312,-2.127312660217285,2.1177358627319336,0.005326271057128906,0.0010652542114257812,-0.0170440673828125,0.3597679138183594,-0.5697336196899414,0.5618782043457031,0.4799203872680664
383,653216128.0,9.250279426574707,-2.2075204849243164,2.1081581115722656,0.005326271057128906,0.0010652542114257812,-0.0170440673828125,0.3597679138183594,-0.5697336196899414,0.5618782043457031,0.4799203872680664
384,653216128.0,9.231125831604004,-2.2386465072631836,2.1488609313964844,0.005326271057128906,0.0010652542114257812,-0.0170440673828125,0.3597679138183594,-0.5697336196899414,0.5618782043457031,0.4799203872680664
385,653216192.0,9.270630836486816,-2.189563751220703,2.124917984008789,-0.02769756317138672,0.005326271057128906,-0.02982807159423828,0.3597679138183594,-0.5697336196899414,0.5618782043457031,0.4799203872680664
386,653216192.0,9.312531471252441,-2.1560440063476562,2.0878067016601562,-0.02769756317138672,0.005326271057128906,-0.02982807159423828,0.3597679138183594,-0.5697336196899414,0.5618782043457031,0.4799203872680664
387,653216192.0,9.295770645141602,-2.22428035736084,2.1141443252563477,-0.02769756317138672,0.005326271057128906,-0.02982807159423828,0.3597679138183594,-0.5697336196899414,0.5618782043457031,0.4799203872680664
388,653216256.0,9.252674102783203,-2.285334587097168,2.123721122741699,0.014913558959960938,-0.011717796325683594,-0.019174575805664062,0.3597679138183594,-0.5697336196899414,0.5618782043457031,0.4799203872680664
389,653216256.0,9.23471736907959,-2.286531448364258,2.1452693939208984,0.014913558959960938,-0.011717796325683594,-0.019174575805664062,0.3597679138183594,-0.5697336196899414,0.5618782043457031,0.4799203872680664
390,653216256.0,9.289785385131836,-2.2398433685302734,2.162029266357422,0.014913558959960938,-0.011717796325683594,-0.019174575805664062,0.3597679138183594,-0.5697336196899414,0.5618782043457031,0.4799203872680664
391,653216320.0,9.304150581359863,-2.22308349609375,2.160832405090332,0.0021305084228515625,0.0,-0.012783050537109375,0.3597679138183594,-0.5697336196899414,0.5618782043457031,0.4799203872680664
392,653216320.0,9.281405448913574,-2.2506179809570312,2.162029266357422,0.0021305084228515625,0.0,-0.012783050537109375,0.3597679138183594,-0.5697336196899414,0.5618782043457031,0.4799203872680664
393,653216320.0,9.261054039001465,-2.2745609283447266,2.1464672088623047,0.0021305084228515625,0.0,-0.012783050537109375,0.3597679138183594,-0.5697336196899414,0.5618782043457031,0.4799203872680664
394,653216320.0,9.304150581359863,-2.2637863159179688,2.17160701751709,0.0021305084228515625,0.0,-0.012783050537109375,0.3597679138183594,-0.5697336196899414,0.5618782043457031,0.4799203872680664
395,653216448.0,9.262250900268555,-2.212308883666992,2.1811838150024414,-0.004261016845703125,0.011717796325683594,-0.0031957626342773438,0.3597679138183594,-0.5697336196899414,0.5618782043457031,0.4799203872680664
396,653216448.0,9.262250900268555,-2.212308883666992,2.1811838150024414,-0.004261016845703125,0.011717796325683594,-0.0031957626342773438,0.3597679138183594,-0.5697336196899414,0.5618782043457031,0.4799203872680664
397,653216448.0,9.262250900268555,-2.212308883666992,2.1811838150024414,-0.004261016845703125,0.011717796325683594,-0.0031957626342773438,0.3597679138183594,-0.5697336196899414,0.5618782043457031,0.4799203872680664
398,653216512.0,9.249082565307617,-2.226675033569336,2.157240867614746,0.00852203369140625,0.011717796325683594,-0.0010652542114257812,0.3597679138183594,-0.5697336196899414,0.5618782043457031,0.4799203872680664
399,653216512.0,9.241899490356445,-2.2578001022338867,2.17160701751709,0.00852203369140625,0.011717796325683594,-0.0010652542114257812,0.3597679138183594,-0.5697336196899414,0.5618782043457031,0.4799203872680664
400,653216512.0,9.229928970336914,-2.2362518310546875,2.1416778564453125,0.00852203369140625,0.011717796325683594,-0.0010652542114257812,0.3597679138183594,-0.5697336196899414,0.5618782043457031,0.4799203872680664
401,653216512.0,9.249082565307617,-2.226675033569336,2.157240867614746,0.00852203369140625,0.011717796325683594,-0.0010652542114257812,0.3597679138183594,-0.5697336196899414,0.5618782043457031,0.4799203872680664
402,653216512.0,9.241899490356445,-2.2578001022338867,2.17160701751709,0.00852203369140625,0.011717796325683594,-0.0010652542114257812,0.3597679138183594,-0.5697336196899414,0.5618782043457031,0.4799203872680664
403,653216512.0,9.229928970336914,-2.2362518310546875,2.1416778564453125,0.00852203369140625,0.011717796325683594,-0.0010652542114257812,0.3597679138183594,-0.5697336196899414,0.5618782043457031,0.4799203872680664
404,653216512.0,9.249082565307617,-2.226675033569336,2.157240867614746,0.00852203369140625,0.011717796325683594,-0.0010652542114257812,0.3597679138183594,-0.5697336196899414,0.5618782043457031,0.4799203872680664
405,653216512.0,9.241899490356445,-2.2578001022338867,2.17160701751709,0.00852203369140625,0.011717796325683594,-0.0010652542114257812,0.3597679138183594,-0.5697336196899414,0.5618782043457031,0.4799203872680664
406,653216512.0,9.229928970336914,-2.2362518310546875,2.1416778564453125,0.00852203369140625,0.011717796325683594,-0.0010652542114257812,0.3597679138183594,-0.5697336196899414,0.5618782043457031,0.4799203872680664
407,653216576.0,9.277813911437988,-2.2362518310546875,2.1464672088623047,0.025567054748535156,0.0063915252685546875,-0.0031957626342773438,0.3597679138183594,-0.5697336196899414,0.5618782043457031,0.4799203872680664
408,653216576.0,9.277813911437988,-2.2362518310546875,2.1464672088623047,0.025567054748535156,0.0063915252685546875,-0.0031957626342773438,0.3597679138183594,-0.5697336196899414,0.5618782043457031,0.4799203872680664
409,653216576.0,9.277813911437988,-2.2362518310546875,2.1464672088623047,0.025567054748535156,0.0063915252685546875,-0.0031957626342773438,0.3597679138183594,-0.5697336196899414,0.5618782043457031,0.4799203872680664
410,653216640.0,9.293376922607422,-2.2458295822143555,2.1464672088623047,-0.026632308959960938,0.00852203369140625,0.007456779479980469,0.3597679138183594,-0.5697336196899414,0.5618782043457031,0.4799203872680664
411,653216704.0,9.246688842773438,-2.2398433685302734,2.168015480041504,0.031958580017089844,0.0010652542114257812,0.004261016845703125,0.3597679138183594,-0.5697336196899414,0.5618782043457031,0.4799203872680664
412,653216704.0,9.26464557647705,-2.1835784912109375,2.1740007400512695,0.031958580017089844,0.0010652542114257812,0.004261016845703125,0.3597679138183594,-0.5697336196899414,0.5618782043457031,0.4799203872680664
413,653216704.0,9.259857177734375,-2.162029266357422,2.164423942565918,0.031958580017089844,0.0010652542114257812,0.004261016845703125,0.3597679138183594,-0.5697336196899414,0.5618782043457031,0.4799203872680664
414,653216768.0,9.261054039001465,-2.1823806762695312,2.1823806762695312,-0.010652542114257812,0.021305084228515625,0.0170440673828125,0.3597679138183594,-0.5697336196899414,0.5618782043457031,0.4799203872680664
415,653216768.0,9.317319869995117,-2.1847753524780273,2.2170982360839844,-0.010652542114257812,0.021305084228515625,0.0170440673828125,0.3597679138183594,-0.5697336196899414,0.5618782043457031,0.4799203872680664
416,653216768.0,9.279010772705078,-2.194352149963379,2.1668176651000977,-0.010652542114257812,0.021305084228515625,0.0170440673828125,0.3597679138183594,-0.5697336196899414,0.5618782043457031,0.4799203872680664
417,653216832.0,9.183239936828613,-2.200338363647461,2.159635543823242,0.0063915252685546875,0.0031957626342773438,0.0170440673828125,0.3597679138183594,-0.5697336196899414,0.5618782043457031,0.4799203872680664
418,653216832.0,9.223942756652832,-2.2099151611328125,2.1692123413085938,0.0063915252685546875,0.0031957626342773438,0.0170440673828125,0.3597679138183594,-0.5697336196899414,0.5618782043457031,0.4799203872680664
419,653216832.0,9.239505767822266,-2.1883668899536133,2.1787891387939453,0.0063915252685546875,0.0031957626342773438,0.0170440673828125,0.3597679138183594,-0.5697336196899414,0.5618782043457031,0.4799203872680664
420,653216896.0,9.246688842773438,-2.2170982360839844,2.157240867614746,0.0063915252685546875,0.0031957626342773438,0.0170440673828125,0.3597679138183594,-0.5697336196899414,0.5618782043457031,0.4799203872680664
421,653216896.0,9.332881927490234,-2.3667402267456055,2.2135066986083984,0.0063915252685546875,0.0031957626342773438,0.0170440673828125,0.3597679138183594,-0.5697336196899414,0.5618782043457031,0.4799203872680664
422,653216896.0,9.320911407470703,-2.5558881759643555,2.3846969604492188,0.0063915252685546875,0.0031957626342773438,0.0170440673828125,0.3597679138183594,-0.5697336196899414,0.5618782043457031,0.4799203872680664
423,653216896.0,9.52681827545166,-3.122134208679199,2.661235809326172,0.0063915252685546875,0.0031957626342773438,0.0170440673828125,0.3597679138183594,-0.5697336196899414,0.5618782043457031,0.4799203872680664
424,653216960.0,10.028419494628906,-3.119739532470703,2.934183120727539,0.12463951110839844,-0.026632308959960938,0.530517578125,0.3597679138183594,-0.5697336196899414,0.5618782043457031,0.4799203872680664
425,653216960.0,10.419882774353027,-3.9098501205444336,3.095796585083008,0.12463951110839844,-0.026632308959960938,0.530517578125,0.3597679138183594,-0.5697336196899414,0.5618782043457031,0.4799203872680664
426,653216960.0,10.087079048156738,-4.737071990966797,2.664827346801758,0.12463951110839844,-0.026632308959960938,0.530517578125,0.3597679138183594,-0.5697336196899414,0.5618782043457031,0.4799203872680664
427,653217024.0,10.186441421508789,-5.413455009460449,1.7717628479003906,3.8201541900634766,0.37178802490234375,2.0091495513916016,0.3597679138183594,-0.5697336196899414,0.5618782043457031,0.4799203872680664
428,653217024.0,11.078309059143066,-5.154872894287109,2.9796743392944336,3.8201541900634766,0.37178802490234375,2.0091495513916016,0.3597679138183594,-0.5697336196899414,0.5618782043457031,0.4799203872680664
429,653217024.0,11.761874198913574,-5.305712699890137,4.711932182312012,3.8201541900634766,0.37178802490234375,2.0091495513916016,0.3597679138183594,-0.5697336196899414,0.5618782043457031,0.4799203872680664
430,653217088.0,12.14615535736084,-6.2406768798828125,6.486089706420898,1.777979850769043,0.9800729751586914,3.286440849304199,0.3597679138183594,-0.5697336196899414,0.5618782043457031,0.4799203872680664
431,653217088.0,13.302589416503906,-6.647703170776367,8.168067932128906,1.777979850769043,0.9800729751586914,3.286440849304199,0.3597679138183594,-0.5697336196899414,0.5618782043457031,0.4799203872680664
432,653217088.0,13.93946647644043,-6.654886245727539,8.561925888061523,1.777979850769043,0.9800729751586914,3.286440849304199,0.3597679138183594,-0.5697336196899414,0.5618782043457031,0.4799203872680664
433,653217152.0,14.384801864624023,-9.110215187072754,7.132543563842773,-0.16298961639404297,2.723963737487793,4.680913925170898,0.3597679138183594,-0.5697336196899414,0.5618782043457031,0.4799203872680664
434,653217152.0,15.0097074508667,-10.776630401611328,7.400702476501465,-0.16298961639404297,2.723963737487793,4.680913925170898,0.3597679138183594,-0.5697336196899414,0.5618782043457031,0.4799203872680664
435,653217152.0,14.597892761230469,-9.5651273727417,9.160494804382324,-0.16298961639404297,2.723963737487793,4.680913925170898,0.3597679138183594,-0.5697336196899414,0.5618782043457031,0.4799203872680664
436,653217216.0,12.772257804870605,-8.516434669494629,8.3248929977417,0.7627525329589844,4.163180351257324,5.152840614318848,0.3597679138183594,-0.5697336196899414,0.5618782043457031,0.4799203872680664
437,653217216.0,10.294183731079102,-9.347248077392578,6.413064002990723,0.7627525329589844,4.163180351257324,5.152840614318848,0.3597679138183594,-0.5697336196899414,0.5618782043457031,0.4799203872680664
438,653217216.0,8.620585441589355,-9.707586288452148,6.23588752746582,0.7627525329589844,4.163180351257324,5.152840614318848,0.3597679138183594,-0.5697336196899414,0.5618782043457031,0.4799203872680664
439,653217216.0,7.5467529296875,-8.75586223602295,7.92385196685791,0.7627525329589844,4.163180351257324,5.152840614318848,0.3597679138183594,-0.5697336196899414,0.5618782043457031,0.4799203872680664
440,653217472.0,-4.106180191040039,0.15921878814697266,1.413818359375,1.051447868347168,1.9026203155517578,1.6490793228149414,-0.102630615234375,-0.5158290863037109,0.7361087799072266,0.4260587692260742
441,653217472.0,-5.139309883117676,-0.8990497589111328,0.9481325149536133,1.051447868347168,1.9026203155517578,1.6490793228149414,-0.102630615234375,-0.5158290863037109,0.7361087799072266,0.4260587692260742
442,653217472.0,-4.106180191040039,0.15921878814697266,1.413818359375,1.051447868347168,1.9026203155517578,1.6490793228149414,-0.102630615234375,-0.5158290863037109,0.7361087799072266,0.4260587692260742
443,653217472.0,-5.139309883117676,-0.8990497589111328,0.9481325149536133,1.051447868347168,1.9026203155517578,1.6490793228149414,-0.102630615234375,-0.5158290863037109,0.7361087799072266,0.4260587692260742
444,653217536.0,-5.624151229858398,-1.0690431594848633,0.49322032928466797,1.858942985534668,1.1973934173583984,0.6466350555419922,-0.102630615234375,-0.5158290863037109,0.7361087799072266,0.4260587692260742
445,653217536.0,-5.886323928833008,-1.7095117568969727,1.7573966979980469,1.858942985534668,1.1973934173583984,0.6466350555419922,-0.102630615234375,-0.5158290863037109,0.7361087799072266,0.4260587692260742
446,653217536.0,-5.959349632263184,-2.8048925399780273,2.6037731170654297,1.858942985534668,1.1973934173583984,0.6466350555419922,-0.102630615234375,-0.5158290863037109,0.7361087799072266,0.4260587692260742
447,653217536.0,-5.624151229858398,-1.0690431594848633,0.49322032928466797,1.858942985534668,1.1973934173583984,0.6466350555419922,-0.102630615234375,-0.5158290863037109,0.7361087799072266,0.4260587692260742
448,653217536.0,-5.886323928833008,-1.7095117568969727,1.7573966979980469,1.858942985534668,1.1973934173583984,0.6466350555419922,-0.102630615234375,-0.5158290863037109,0.7361087799072266,0.4260587692260742
449,653217536.0,-5.959349632263184,-2.8048925399780273,2.6037731170654297,1.858942985534668,1.1973934173583984,0.6466350555419922,-0.102630615234375,-0.5158290863037109,0.7361087799072266,0.4260587692260742
450,653217664.0,-8.727130889892578,0.7589845657348633,-2.9904489517211914,1.0503826141357422,0.9033708572387695,0.28443336486816406,-0.102630615234375,-0.5158290863037109,0.7361087799072266,0.4260587692260742
451,653217664.0,-8.78339672088623,-6.282576560974121,2.381105422973633,1.0503826141357422,0.9033708572387695,0.28443336486816406,-0.102630615234375,-0.5158290863037109,0.7361087799072266,0.4260587692260742
452,653217728.0,-7.156486511230469,2.7103185653686523,7.437813758850098,-3.569809913635254,1.7758493423461914,-0.40587806701660156,-0.102630615234375,-0.5158290863037109,0.7361087799072266,0.4260587692260742
453,653217728.0,-9.749485969543457,3.0419254302978516,4.543135643005371,-3.569809913635254,1.7758493423461914,-0.40587806701660156,-0.102630615234375,-0.5158290863037109,0.7361087799072266,0.4260587692260742
454,653217728.0,-19.22842025756836,6.551932334899902,-22.891658782958984,-3.569809913635254,1.7758493423461914,-0.40587806701660156,-0.102630615234375,-0.5158290863037109,0.7361087799072266,0.4260587692260742
455,653217792.0,-19.30384063720703,0.5949764251708984,23.99661636352539,-3.569809913635254,1.7758493423461914,-0.40587806701660156,-0.102630615234375,-0.5158290863037109,0.7361087799072266,0.4260587692260742
456,653217792.0,-3.22149658203125,-2.937774658203125,-11.536811828613281,-3.569809913635254,1.7758493423461914,-0.40587806701660156,-0.102630615234375,-0.5158290863037109,0.7361087799072266,0.4260587692260742
457,653217792.0,-5.116564750671387,0.7972927093505859,2.1105527877807617,-3.569809913635254,1.7758493423461914,-0.40587806701660156,-0.102630615234375,-0.5158290863037109,0.7361087799072266,0.4260587692260742
458,653217792.0,-7.893922805786133,-5.522394180297852,2.157240867614746,-3.569809913635254,1.7758493423461914,-0.40587806701660156,-0.102630615234375,-0.5158290863037109,0.7361087799072266,0.4260587692260742
459,653217792.0,-19.30384063720703,0.5949764251708984,23.99661636352539,-3.569809913635254,1.7758493423461914,-0.40587806701660156,-0.102630615234375,-0.5158290863037109,0.7361087799072266,0.4260587692260742
460,653217792.0,-3.22149658203125,-2.937774658203125,-11.536811828613281,-3.569809913635254,1.7758493423461914,-0.40587806701660156,-0.102630615234375,-0.5158290863037109,0.7361087799072266,0.4260587692260742
461,653217792.0,-5.116564750671387,0.7972927093505859,2.1105527877807617,-3.569809913635254,1.7758493423461914,-0.40587806701660156,-0.102630615234375,-0.5158290863037109,0.7361087799072266,0.4260587692260742
462,653217792.0,-7.893922805786133,-5.522394180297852,2.157240867614746,-3.569809913635254,1.7758493423461914,-0.40587806701660156,-0.102630615234375,-0.5158290863037109,0.7361087799072266,0.4260587692260742
463,653217856.0,-3.864358901977539,-5.429017066955566,-1.3982563018798828,1.5926179885864258,-0.7254667282104492,-2.129528045654297,-0.102630615234375,-0.5158290863037109,0.7361087799072266,0.4260587692260742
464,653217856.0,-3.864358901977539,-5.429017066955566,-1.3982563018798828,1.5926179885864258,-0.7254667282104492,-2.129528045654297,-0.102630615234375,-0.5158290863037109,0.7361087799072266,0.4260587692260742
465,653217856.0,-3.554300308227539,-2.7989063262939453,2.191958427429199,1.5926179885864258,-0.7254667282104492,-2.129528045654297,-0.102630615234375,-0.5158290863037109,0.7361087799072266,0.4260587692260742
466,653217856.0,-2.992842674255371,-2.409836769104004,2.8001041412353516,1.5926179885864258,-0.7254667282104492,-2.129528045654297,-0.102630615234375,-0.5158290863037109,0.7361087799072266,0.4260587692260742
467,653217920.0,-3.1329078674316406,-2.4253997802734375,3.3855037689208984,1.4424114227294922,-1.1025819778442383,-2.754857063293457,-0.102630615234375,-0.5158290863037109,0.7361087799072266,0.4260587692260742
468,653217920.0,-3.430994987487793,-1.6903572082519531,3.6333112716674805,1.4424114227294922,-1.1025819778442383,-2.754857063293457,-0.102630615234375,-0.5158290863037109,0.7361087799072266,0.4260587692260742
469,653217920.0,-3.2861413955688477,-1.3743133544921875,3.766193389892578,1.4424114227294922,-1.1025819778442383,-2.754857063293457,-0.102630615234375,-0.5158290863037109,0.7361087799072266,0.4260587692260742
470,653218048.0,-0.05865955352783203,-5.521197319030762,3.091008186340332,1.235743522644043,-1.9154033660888672,-4.947238922119141,-0.102630615234375,-0.5158290863037109,0.7361087799072266,0.4260587692260742
471,653218112.0,0.7913074493408203,-7.691607475280762,2.3882884979248047,0.4026813507080078,-2.666438102722168,-4.924867630004883,-0.102630615234375,-0.5158290863037109,0.7361087799072266,0.4260587692260742
472,653218112.0,1.4916324615478516,-7.200780868530273,2.1452693939208984,0.4026813507080078,-2.666438102722168,-4.924867630004883,-0.102630615234375,-0.5158290863037109,0.7361087799072266,0.4260587692260742
473,653218112.0,2.8527774810791016,-5.807312965393066,4.173220634460449,0.4026813507080078,-2.666438102722168,-4.924867630004883,-0.102630615234375,-0.5158290863037109,0.7361087799072266,0.4260587692260742
474,653218112.0,3.9505529403686523,-9.487313270568848,5.638516426086426,0.4026813507080078,-2.666438102722168,-4.924867630004883,-0.102630615234375,-0.5158290863037109,0.7361087799072266,0.4260587692260742
475,653218176.0,4.327651023864746,-12.605855941772461,7.672452926635742,0.4026813507080078,-2.666438102722168,-4.924867630004883,-0.102630615234375,-0.5158290863037109,0.7361087799072266,0.4260587692260742
476,653218176.0,4.120546340942383,-11.737931251525879,9.188028335571289,0.4026813507080078,-2.666438102722168,-4.924867630004883,-0.102630615234375,-0.5158290863037109,0.7361087799072266,0.4260587692260742
477,653218176.0,5.160859107971191,-11.397944450378418,9.754274368286133,0.4026813507080078,-2.666438102722168,-4.924867630004883,-0.102630615234375,-0.5158290863037109,0.7361087799072266,0.4260587692260742
478,653218240.0,5.952166557312012,-11.5775146484375,8.688822746276855,3.3375749588012695,-3.861701011657715,-3.620944023132324,-0.102630615234375,-0.5158290863037109,0.7361087799072266,0.4260587692260742
479,653218240.0,6.144905090332031,-10.824515342712402,7.933428764343262,3.3375749588012695,-3.861701011657715,-3.620944023132324,-0.102630615234375,-0.5158290863037109,0.7361087799072266,0.4260587692260742
480,653218432.0,10.654521942138672,-3.768588066101074,3.8188676834106445,0.7393159866333008,-0.449554443359375,-1.0280113220214844,-0.6519508361816406,0.12045478820800781,0.7417621612548828,0.10124874114990234
481,653218496.0,10.611425399780273,-1.8459854125976562,4.362367630004883,0.1736431121826172,0.19281864166259766,0.9523754119873047,-0.6564388275146484,0.10258674621582031,0.7417621612548828,0.09140872955322266
482,653218496.0,10.629382133483887,-1.4317760467529297,3.714716911315918,0.1736431121826172,0.19281864166259766,0.9523754119873047,-0.6564388275146484,0.10258674621582031,0.7417621612548828,0.09140872955322266
483,653218496.0,10.28819751739502,-1.6568374633789062,3.2394533157348633,0.1736431121826172,0.19281864166259766,0.9523754119873047,-0.6564388275146484,0.10258674621582031,0.7417621612548828,0.09140872955322266
484,653218560.0,10.275029182434082,-1.2234735488891602,3.1688222885131836,0.07244014739990234,0.3685922622680664,1.283681869506836,-0.6528568267822266,0.09326457977294922,0.7452154159545898,0.09844398498535156
485,653218560.0,10.242706298828125,-0.5027971267700195,3.0527000427246094,0.07244014739990234,0.3685922622680664,1.283681869506836,-0.6528568267822266,0.09326457977294922,0.7452154159545898,0.09844398498535156
486,653218560.0,9.738712310791016,-0.24541282653808594,2.570253372192383,0.07244014739990234,0.3685922622680664,1.283681869506836,-0.6528568267822266,0.09326457977294922,0.7452154159545898,0.09844398498535156
487,653218624.0,8.990501403808594,-0.640467643737793,2.2170982360839844,0.07244014739990234,0.3685922622680664,1.283681869506836,-0.6528568267822266,0.09326457977294922,0.7452154159545898,0.09844398498535156
488,653218624.0,8.676851272583008,-1.2617826461791992,2.7570066452026367,0.07244014739990234,0.3685922622680664,1.283681869506836,-0.6528568267822266,0.09326457977294922,0.7452154159545898,0.09844398498535156
489,653218624.0,9.050357818603516,-1.260584831237793,2.944957733154297,0.07244014739990234,0.3685922622680664,1.283681869506836,-0.6528568267822266,0.09326457977294922,0.7452154159545898,0.09844398498535156
490,653218688.0,9.268237113952637,-1.1181259155273438,2.320052146911621,0.07244014739990234,0.3685922622680664,1.283681869506836,-0.6528568267822266,0.09326457977294922,0.7452154159545898,0.09844398498535156
491,653218688.0,9.243097305297852,-1.2498111724853516,1.942953109741211,0.07244014739990234,0.3685922622680664,1.283681869506836,-0.6528568267822266,0.09326457977294922,0.7452154159545898,0.09844398498535156
492,653218688.0,9.326896667480469,-1.6137409210205078,2.201535224914551,0.07244014739990234,0.3685922622680664,1.283681869506836,-0.6528568267822266,0.09326457977294922,0.7452154159545898,0.09844398498535156
493,653218752.0,9.330488204956055,-1.6628236770629883,2.381105422973633,0.196014404296875,0.10652923583984375,0.2759113311767578,-0.6528568267822266,0.09326457977294922,0.7452154159545898,0.09844398498535156
494,653218752.0,9.253870964050293,-1.4976186752319336,1.7406368255615234,0.196014404296875,0.10652923583984375,0.2759113311767578,-0.6528568267822266,0.09326457977294922,0.7452154159545898,0.09844398498535156
495,653218752.0,9.487313270568848,-1.262979507446289,1.3407936096191406,0.196014404296875,0.10652923583984375,0.2759113311767578,-0.6528568267822266,0.09326457977294922,0.7452154159545898,0.09844398498535156
496,653218752.0,9.539987564086914,-1.139674186706543,1.4688873291015625,0.196014404296875,0.10652923583984375,0.2759113311767578,-0.6528568267822266,0.09326457977294922,0.7452154159545898,0.09844398498535156
497,653218816.0,9.229928970336914,-1.3539619445800781,1.8160572052001953,0.020239830017089844,0.07776641845703125,0.2599315643310547,-0.6528568267822266,0.09326457977294922,0.7452154159545898,0.09844398498535156
498,653218816.0,9.210774421691895,-1.508392333984375,1.7250747680664062,0.020239830017089844,0.07776641845703125,0.2599315643310547,-0.6528568267822266,0.09326457977294922,0.7452154159545898,0.09844398498535156
499,653218816.0,9.317319869995117,-1.5036039352416992,1.6532459259033203,0.020239830017089844,0.07776641845703125,0.2599315643310547,-0.6528568267822266,0.09326457977294922,0.7452154159545898,0.09844398498535156
500,653218880.0,9.277813911437988,-1.6161346435546875,1.6700057983398438,0.1033334732055664,-0.041545867919921875,0.13422679901123047,-0.6528568267822266,0.09326457977294922,0.7452154159545898,0.09844398498535156
501,653218880.0,9.14493179321289,-1.7214832305908203,1.9261932373046875,0.1033334732055664,-0.041545867919921875,0.13422679901123047,-0.6528568267822266,0.09326457977294922,0.7452154159545898,0.09844398498535156
502,653218880.0,9.195211410522461,-1.6867656707763672,2.0195703506469727,0.1033334732055664,-0.041545867919921875,0.13422679901123047,-0.6528568267822266,0.09326457977294922,0.7452154159545898,0.09844398498535156
503,653218944.0,9.154508590698242,-1.7669744491577148,1.9106311798095703,0.06711292266845703,-0.06498241424560547,0.12037849426269531,-0.6528568267822266,0.09326457977294922,0.7452154159545898,0.09844398498535156
504,653218944.0,9.012049674987793,-1.8723220825195312,1.9824590682983398,0.06711292266845703,-0.06498241424560547,0.12037849426269531,-0.6528568267822266,0.09326457977294922,0.7452154159545898,0.09844398498535156
505,653218944.0,8.986909866333008,-2.066258430480957,2.0866098403930664,0.06711292266845703,-0.06498241424560547,0.12037849426269531,-0.6528568267822266,0.09326457977294922,0.7452154159545898,0.09844398498535156
506,653219008.0,8.991698265075684,-2.320052146911621,1.9369678497314453,0.06711292266845703,-0.06498241424560547,0.12037849426269531,-0.6528568267822266,0.09326457977294922,0.7452154159545898,0.09844398498535156
507,653219008.0,8.965361595153809,-2.46370792388916,1.9249963760375977,0.06711292266845703,-0.06498241424560547,0.12037849426269531,-0.6528568267822266,0.09326457977294922,0.7452154159545898,0.09844398498535156
508,653219008.0,9.120988845825195,-2.563070297241211,2.128509521484375,0.06711292266845703,-0.06498241424560547,0.12037849426269531,-0.6528568267822266,0.09326457977294922,0.7452154159545898,0.09844398498535156
509,653219008.0,9.397527694702148,-2.4026546478271484,2.439764976501465,0.06711292266845703,-0.06498241424560547,0.12037849426269531,-0.6528568267822266,0.09326457977294922,0.7452154159545898,0.09844398498535156
510,653219072.0,9.364007949829102,-2.1823806762695312,2.3116722106933594,1.299661636352539,-0.3909635543823242,0.0170440673828125,-0.6528568267822266,0.09326457977294922,0.7452154159545898,0.09844398498535156
511,653219072.0,9.292180061340332,-1.9333763122558594,2.3308258056640625,1.299661636352539,-0.3909635543823242,0.0170440673828125,-0.6528568267822266,0.09326457977294922,0.7452154159545898,0.09844398498535156
512,653219072.0,9.40351390838623,-1.632894515991211,2.3523740768432617,1.299661636352539,-0.3909635543823242,0.0170440673828125,-0.6528568267822266,0.09326457977294922,0.7452154159545898,0.09844398498535156
513,653219136.0,9.489706993103027,-1.357553482055664,2.433779716491699,1.0951251983642578,-0.2929563522338867,-0.0170440673828125,-0.6528568267822266,0.09326457977294922,0.7452154159545898,0.09844398498535156
514,653219136.0,9.531606674194336,-1.0642547607421875,2.536733627319336,1.0951251983642578,-0.2929563522338867,-0.0170440673828125,-0.6528568267822266,0.09326457977294922,0.7452154159545898,0.09844398498535156
515,653219136.0,9.401119232177734,-1.0283403396606445,2.4361743927001953,1.0951251983642578,-0.2929563522338867,-0.0170440673828125,-0.6528568267822266,0.09326457977294922,0.7452154159545898,0.09844398498535156
516,653219200.0,9.319713592529297,-1.0917892456054688,2.375120162963867,1.0951251983642578,-0.2929563522338867,-0.0170440673828125,-0.6528568267822266,0.09326457977294922,0.7452154159545898,0.09844398498535156
517,653219200.0,9.332881927490234,-1.3383989334106445,2.3643455505371094,1.0951251983642578,-0.2929563522338867,-0.0170440673828125,-0.6528568267822266,0.09326457977294922,0.7452154159545898,0.09844398498535156
518,653219200.0,9.483721733093262,-1.7095117568969727,2.3619518280029297,1.0951251983642578,-0.2929563522338867,-0.0170440673828125,-0.6528568267822266,0.09326457977294922,0.7452154159545898,0.09844398498535156
519,653219264.0,9.510058403015137,-1.7837343215942383,2.3368120193481445,1.0951251983642578,-0.2929563522338867,-0.0170440673828125,-0.6528568267822266,0.09326457977294922,0.7452154159545898,0.09844398498535156
520,653219264.0,9.465764999389648,-1.883096694946289,2.191958427429199,1.0951251983642578,-0.2929563522338867,-0.0170440673828125,-0.6528568267822266,0.09326457977294922,0.7452154159545898,0.09844398498535156
521,653219264.0,9.42625904083252,-1.9297847747802734,2.218295097351074,1.0951251983642578,-0.2929563522338867,-0.0170440673828125,-0.6528568267822266,0.09326457977294922,0.7452154159545898,0.09844398498535156
522,653219264.0,9.465764999389648,-1.883096694946289,2.191958427429199,1.0951251983642578,-0.2929563522338867,-0.0170440673828125,-0.6528568267822266,0.09326457977294922,0.7452154159545898,0.09844398498535156
523,653219264.0,9.42625904083252,-1.9297847747802734,2.218295097351074,1.0951251983642578,-0.2929563522338867,-0.0170440673828125,-0.6528568267822266,0.09326457977294922,0.7452154159545898,0.09844398498535156
524,653219328.0,9.460975646972656,-1.9645023345947266,2.2685747146606445,0.057525634765625,-0.052199363708496094,0.10865974426269531,-0.6399955749511719,0.012213706970214844,0.7596302032470703,0.1149301528930664
525,653219328.0,9.507664680480957,-1.9082365036010742,2.3044891357421875,0.057525634765625,-0.052199363708496094,0.10865974426269531,-0.6399955749511719,0.012213706970214844,0.7596302032470703,0.1149301528930664
526,653219328.0,9.387950897216797,-1.8232393264770508,2.1428756713867188,0.057525634765625,-0.052199363708496094,0.10865974426269531,-0.6399955749511719,0.012213706970214844,0.7596302032470703,0.1149301528930664
527,653219328.0,9.460975646972656,-1.9645023345947266,2.2685747146606445,0.057525634765625,-0.052199363708496094,0.10865974426269531,-0.6399955749511719,0.012213706970214844,0.7596302032470703,0.1149301528930664
528,653219328.0,9.507664680480957,-1.9082365036010742,2.3044891357421875,0.057525634765625,-0.052199363708496094,0.10865974426269531,-0.6399955749511719,0.012213706970214844,0.7596302032470703,0.1149301528930664
529,653219328.0,9.387950897216797,-1.8232393264770508,2.1428756713867188,0.057525634765625,-0.052199363708496094,0.10865974426269531,-0.6399955749511719,0.012213706970214844,0.7596302032470703,0.1149301528930664
530,653219456.0,9.320911407470703,-1.9142217636108398,2.2578001022338867,0.06604766845703125,-0.021305084228515625,0.06604766845703125,-0.6362838745117188,0.006084442138671875,0.7627372741699219,0.11553478240966797
531,653219456.0,9.42625904083252,-1.9297847747802734,2.157240867614746,0.06604766845703125,-0.021305084228515625,0.06604766845703125,-0.6362838745117188,0.006084442138671875,0.7627372741699219,0.11553478240966797
532,653219520.0,9.437033653259277,-1.9369678497314453,2.1177358627319336,0.06604766845703125,-0.021305084228515625,0.06604766845703125,-0.6362838745117188,0.006084442138671875,0.7627372741699219,0.11553478240966797
533,653219520.0,9.47653865814209,-1.9441509246826172,2.109355926513672,0.06604766845703125,-0.021305084228515625,0.06604766845703125,-0.6362838745117188,0.006084442138671875,0.7627372741699219,0.11553478240966797
534,653219520.0,9.367599487304688,-1.98126220703125,2.0542869567871094,0.06604766845703125,-0.021305084228515625,0.06604766845703125,-0.6362838745117188,0.006084442138671875,0.7627372741699219,0.11553478240966797
535,653219584.0,9.361613273620605,-2.0578784942626953,1.978867530822754,0.06604766845703125,-0.021305084228515625,0.06604766845703125,-0.6362838745117188,0.006084442138671875,0.7627372741699219,0.11553478240966797
536,653219584.0,9.52442455291748,-2.0542869567871094,2.009993553161621,0.06604766845703125,-0.021305084228515625,0.06604766845703125,-0.6362838745117188,0.006084442138671875,0.7627372741699219,0.11553478240966797
537,653219584.0,9.522029876708984,-1.9561223983764648,1.9836559295654297,0.06604766845703125,-0.021305084228515625,0.06604766845703125,-0.6362838745117188,0.006084442138671875,0.7627372741699219,0.11553478240966797
538,653219584.0,9.361613273620605,-2.0578784942626953,1.978867530822754,0.06604766845703125,-0.021305084228515625,0.06604766845703125,-0.6362838745117188,0.006084442138671875,0.7627372741699219,0.11553478240966797
539,653219584.0,9.52442455291748,-2.0542869567871094,2.009993553161621,0.06604766845703125,-0.021305084228515625,0.06604766845703125,-0.6362838745117188,0.006084442138671875,0.7627372741699219,0.11553478240966797
540,653219584.0,9.522029876708984,-1.9561223983764648,1.9836559295654297,0.06604766845703125,-0.021305084228515625,0.06604766845703125,-0.6362838745117188,0.006084442138671875,0.7627372741699219,0.11553478240966797
541,653219648.0,9.359219551086426,-1.9573192596435547,1.948939323425293,0.25567054748535156,-0.05646038055419922,0.0745706558227539,-0.6362838745117188,0.006084442138671875,0.7627372741699219,0.11553478240966797
542,653219648.0,9.33407974243164,-1.762186050415039,2.0890045166015625,0.25567054748535156,-0.05646038055419922,0.0745706558227539,-0.6362838745117188,0.006084442138671875,0.7627372741699219,0.11553478240966797
543,653219648.0,9.359219551086426,-1.9573192596435547,1.948939323425293,0.25567054748535156,-0.05646038055419922,0.0745706558227539,-0.6362838745117188,0.006084442138671875,0.7627372741699219,0.11553478240966797
544,653219648.0,9.33407974243164,-1.762186050415039,2.0890045166015625,0.25567054748535156,-0.05646038055419922,0.0745706558227539,-0.6362838745117188,0.006084442138671875,0.7627372741699219,0.11553478240966797
545,653219776.0,9.331685066223145,-1.723876953125,2.128509521484375,0.014913558959960938,-0.004261016845703125,0.0287628173828125,-0.6300258636474609,-0.01622772216796875,0.7689952850341797,0.10685920715332031
546,653219776.0,9.293376922607422,-1.7992973327636719,2.0483016967773438,0.014913558959960938,-0.004261016845703125,0.0287628173828125,-0.6300258636474609,-0.01622772216796875,0.7689952850341797,0.10685920715332031
547,653219776.0,9.393936157226562,-1.8783082962036133,2.0890045166015625,0.014913558959960938,-0.004261016845703125,0.0287628173828125,-0.6300258636474609,-0.01622772216796875,0.7689952850341797,0.10685920715332031
548,653219840.0,9.40471076965332,-1.977670669555664,2.094989776611328,-0.03728485107421875,0.013848304748535156,-0.012783050537109375,-0.6295948028564453,-0.015666961669921875,0.7692975997924805,0.1073770523071289
549,653219840.0,9.40351390838623,-1.9405593872070312,2.080624580383301,-0.03728485107421875,0.013848304748535156,-0.012783050537109375,-0.6295948028564453,-0.015666961669921875,0.7692975997924805,0.1073770523071289
550,653219840.0,9.390344619750977,-1.9010534286499023,2.0255556106567383,-0.03728485107421875,0.013848304748535156,-0.012783050537109375,-0.6295948028564453,-0.015666961669921875,0.7692975997924805,0.1073770523071289
551,653219904.0,9.378373146057129,-1.9609107971191406,2.071046829223633,-0.020239830017089844,0.022370338439941406,-0.004261016845703125,-0.6295948028564453,-0.015666961669921875,0.7692975997924805,0.1073770523071289
552,653219904.0,9.378373146057129,-1.9609107971191406,2.105764389038086,-0.020239830017089844,0.022370338439941406,-0.004261016845703125,-0.6295948028564453,-0.015666961669921875,0.7692975997924805,0.1073770523071289
553,653219904.0,9.408302307128906,-1.9656991958618164,2.072244644165039,-0.020239830017089844,0.022370338439941406,-0.004261016845703125,-0.6295948028564453,-0.015666961669921875,0.7692975997924805,0.1073770523071289
554,653219968.0,9.387950897216797,-1.8974618911743164,2.041118621826172,-0.020239830017089844,0.022370338439941406,-0.004261016845703125,-0.6295948028564453,-0.015666961669921875,0.7692975997924805,0.1073770523071289
555,653219968.0,9.37478256225586,-1.9357709884643555,2.0483016967773438,-0.020239830017089844,0.022370338439941406,-0.004261016845703125,-0.6295948028564453,-0.015666961669921875,0.7692975997924805,0.1073770523071289
556,653219968.0,9.389147758483887,-1.975275993347168,2.0315418243408203,-0.020239830017089844,0.022370338439941406,-0.004261016845703125,-0.6295948028564453,-0.015666961669921875,0.7692975997924805,0.1073770523071289
557,653219968.0,9.358022689819336,-1.9896421432495117,2.0554847717285156,-0.020239830017089844,0.022370338439941406,-0.004261016845703125,-0.6295948028564453,-0.015666961669921875,0.7692975997924805,0.1073770523071289
558,653220032.0,9.352036476135254,-1.9549245834350586,2.1129465103149414,-0.03515434265136719,0.022370338439941406,-0.004261016845703125,-0.6295948028564453,-0.015666961669921875,0.7692975997924805,0.1073770523071289
559,653220032.0,9.397527694702148,-1.8699283599853516,2.0746383666992188,-0.03515434265136719,0.022370338439941406,-0.004261016845703125,-0.6295948028564453,-0.015666961669921875,0.7692975997924805,0.1073770523071289
560,653220032.0,9.397527694702148,-1.9034481048583984,2.0231618881225586,-0.03515434265136719,0.022370338439941406,-0.004261016845703125,-0.6295948028564453,-0.015666961669921875,0.7692975997924805,0.1073770523071289
561,653220032.0,9.397527694702148,-1.9034481048583984,2.0231618881225586,-0.03515434265136719,0.022370338439941406,-0.004261016845703125,-0.6295948028564453,-0.015666961669921875,0.7692975997924805,0.1073770523071289
562,653220032.0,9.397527694702148,-1.9034481048583984,2.0231618881225586,-0.03515434265136719,0.022370338439941406,-0.004261016845703125,-0.6295948028564453,-0.015666961669921875,0.7692975997924805,0.1073770523071289
563,653220096.0,9.353233337402344,-2.000415802001953,2.0902013778686523,0.009587287902832031,0.024501800537109375,0.0021305084228515625,-0.6295948028564453,-0.015666961669921875,0.7692975997924805,0.1073770523071289
564,653220096.0,9.366402626037598,-2.0243587493896484,2.0902013778686523,0.009587287902832031,0.024501800537109375,0.0021305084228515625,-0.6295948028564453,-0.015666961669921875,0.7692975997924805,0.1073770523071289
565,653220096.0,9.369993209838867,-1.9237995147705078,2.097384452819824,0.009587287902832031,0.024501800537109375,0.0021305084228515625,-0.6295948028564453,-0.015666961669921875,0.7692975997924805,0.1073770523071289
566,653220096.0,9.353233337402344,-2.000415802001953,2.0902013778686523,0.009587287902832031,0.024501800537109375,0.0021305084228515625,-0.6295948028564453,-0.015666961669921875,0.7692975997924805,0.1073770523071289
567,653220096.0,9.366402626037598,-2.0243587493896484,2.0902013778686523,0.009587287902832031,0.024501800537109375,0.0021305084228515625,-0.6295948028564453,-0.015666961669921875,0.7692975997924805,0.1073770523071289
568,653220096.0,9.369993209838867,-1.9237995147705078,2.097384452819824,0.009587287902832031,0.024501800537109375,0.0021305084228515625,-0.6295948028564453,-0.015666961669921875,0.7692975997924805,0.1073770523071289
569,653220096.0,9.353233337402344,-2.000415802001953,2.0902013778686523,0.009587287902832031,0.024501800537109375,0.0021305084228515625,-0.6295948028564453,-0.015666961669921875,0.7692975997924805,0.1073770523071289
570,653220096.0,9.366402626037598,-2.0243587493896484,2.0902013778686523,0.009587287902832031,0.024501800537109375,0.0021305084228515625,-0.6295948028564453,-0.015666961669921875,0.7692975997924805,0.1073770523071289
