,timestamp,accel_x,accel_y,accel_z,gyro_x,gyro_y,gyro_z,ori_scalar,ori_x,ori_y,ori_z
0,47576364.0,9.081483840942383,-0.9708776473999023,2.900663375854492,0.023435592651367188,-0.010652542114257812,0.22584247589111328,-0.2958078384399414,0.6445693969726562,0.49394702911376953,0.5030536651611328
1,47576384.0,9.077892303466797,-1.0654516220092773,3.3962783813476562,0.023435592651367188,-0.010652542114257812,0.22584247589111328,-0.2958078384399414,0.6445693969726562,0.49394702911376953,0.5030536651611328
2,47576404.0,9.241899490356445,-0.9481325149536133,3.0203771591186523,0.023435592651367188,-0.010652542114257812,0.22584247589111328,-0.2958078384399414,0.6445693969726562,0.49394702911376953,0.5030536651611328
3,47576424.0,9.205986022949219,-1.1803770065307617,2.5929994583129883,0.023435592651367188,-0.010652542114257812,0.22584247589111328,-0.2958078384399414,0.6445693969726562,0.49394702911376953,0.5030536651611328
4,47576424.0,9.205986022949219,-1.1803770065307617,2.5929994583129883,0.023435592651367188,-0.010652542114257812,0.22584247589111328,-0.2958078384399414,0.6445693969726562,0.49394702911376953,0.5030536651611328
5,47576444.0,8.99648666381836,-1.107351303100586,2.7869348526000977,0.023435592651367188,-0.010652542114257812,0.22584247589111328,-0.2958078384399414,0.6445693969726562,0.49394702911376953,0.5030536651611328
6,47576464.0,8.898321151733398,-0.9804553985595703,3.146076202392578,0.023435592651367188,-0.010652542114257812,0.22584247589111328,-0.2958078384399414,0.6445693969726562,0.49394702911376953,0.5030536651611328
7,47576484.0,8.948601722717285,-0.98284912109375,3.007208824157715,0.023435592651367188,-0.010652542114257812,0.22584247589111328,-0.2958078384399414,0.6445693969726562,0.49394702911376953,0.5030536651611328
8,47576504.0,8.936630249023438,-1.1025629043579102,2.758204460144043,0.023435592651367188,-0.010652542114257812,0.22584247589111328,-0.2958078384399414,0.6445693969726562,0.49394702911376953,0.5030536651611328
9,47576524.0,8.939023971557617,-1.0558748245239258,2.8336238861083984,0.023435592651367188,-0.010652542114257812,0.22584247589111328,-0.29615306854248047,0.6435337066650391,0.4948101043701172,0.5032262802124023
10,47576656.0,9.103032112121582,-0.9385547637939453,3.164033889770508,0.30147838592529297,-0.07670116424560547,0.045806884765625,-0.3033609390258789,0.6371030807495117,0.5003776550292969,0.5017156600952148
11,47576672.0,8.991698265075684,-0.7170848846435547,2.880311965942383,0.33024120330810547,-0.07244014739990234,0.06817817687988281,-0.3033609390258789,0.6371030807495117,0.5003776550292969,0.5017156600952148
12,47576692.0,8.952192306518555,-0.8870782852172852,2.814469337463379,0.19388389587402344,-0.03621959686279297,0.08309268951416016,-0.3033609390258789,0.6371030807495117,0.5003776550292969,0.5017156600952148
13,47576712.0,9.176057815551758,-1.1109428405761719,2.9808712005615234,0.040480613708496094,-0.045806884765625,0.060721397399902344,-0.3033609390258789,0.6371030807495117,0.5003776550292969,0.5017156600952148
14,47576732.0,9.320911407470703,-1.2162914276123047,3.0491085052490234,-0.00852203369140625,-0.06604766845703125,0.02982807159423828,-0.3033609390258789,0.6371030807495117,0.5003776550292969,0.5017156600952148
15,47576852.0,8.7654390335083,-0.9900321960449219,2.8192577362060547,0.16831684112548828,-0.06391716003417969,0.020239830017089844,-0.31384849548339844,0.6270904541015625,0.5086641311645508,0.4995145797729492
16,47576872.0,8.883955955505371,-1.0570716857910156,2.849186897277832,0.04474163055419922,-0.042611122131347656,0.02769756317138672,-0.31384849548339844,0.6270904541015625,0.5086641311645508,0.4995145797729492
17,47576892.0,9.04556941986084,-1.2725563049316406,2.8635520935058594,-0.0628519058227539,-0.042611122131347656,0.031958580017089844,-0.31384849548339844,0.6270904541015625,0.5086641311645508,0.4995145797729492
18,47576912.0,9.043174743652344,-1.3395957946777344,2.806089401245117,-0.08202743530273438,-0.031958580017089844,0.03728485107421875,-0.31384849548339844,0.6270904541015625,0.5086641311645508,0.4995145797729492
19,47576932.0,8.946207046508789,-1.166010856628418,2.7665843963623047,-0.013848304748535156,-0.030893325805664062,0.061786651611328125,-0.31384849548339844,0.6270904541015625,0.5086641311645508,0.4995145797729492
20,47576952.0,9.009654998779297,-1.2881193161010742,2.72348690032959,0.08415794372558594,-0.04793834686279297,0.07244014739990234,-0.31384849548339844,0.6270904541015625,0.5086641311645508,0.4995145797729492
21,47577272.0,8.92465877532959,-1.3120622634887695,2.711515426635742,-0.07670116424560547,-0.03515434265136719,0.010652542114257812,-0.32157325744628906,0.6225156784057617,0.5073690414428711,0.5016288757324219
22,47577292.0,8.936630249023438,-1.264176368713379,2.806089401245117,-0.07670116424560547,-0.03515434265136719,0.010652542114257812,-0.32157325744628906,0.6225156784057617,0.5073690414428711,0.5016288757324219
23,47577312.0,8.998881340026855,-1.2067136764526367,2.845595359802246,-0.07670116424560547,-0.03515434265136719,0.010652542114257812,-0.32157325744628906,0.6225156784057617,0.5073690414428711,0.5016288757324219
24,47577328.0,8.991698265075684,-1.264176368713379,2.7246837615966797,-0.07670116424560547,-0.03515434265136719,0.010652542114257812,-0.32157325744628906,0.6225156784057617,0.5073690414428711,0.5016288757324219
25,47577352.0,8.923460960388184,-1.2234735488891602,2.6983470916748047,-0.07670116424560547,-0.03515434265136719,0.010652542114257812,-0.32157325744628906,0.6225156784057617,0.5073690414428711,0.5016288757324219
26,47577472.0,9.087469100952148,-1.2821340560913086,2.782146453857422,0.05113410949707031,-0.024501800537109375,0.004261016845703125,-0.32032203674316406,0.6208324432373047,0.5088796615600586,0.5029668807983398
27,47577492.0,9.209577560424805,-1.0295372009277344,2.7941179275512695,0.05113410949707031,-0.024501800537109375,0.004261016845703125,-0.32032203674316406,0.6208324432373047,0.5088796615600586,0.5029668807983398
28,47577512.0,9.123383522033691,-1.0558748245239258,2.7127132415771484,0.05113410949707031,-0.024501800537109375,0.004261016845703125,-0.32032203674316406,0.6208324432373047,0.5088796615600586,0.5029668807983398
29,47577528.0,9.004866600036621,-1.0582685470581055,2.7905263900756836,0.05113410949707031,-0.024501800537109375,0.004261016845703125,-0.32032203674316406,0.6208324432373047,0.5088796615600586,0.5029668807983398
30,47577552.0,9.07669448852539,-1.081014633178711,2.916226387023926,0.05113410949707031,-0.024501800537109375,0.004261016845703125,-0.32032203674316406,0.6208324432373047,0.5088796615600586,0.5029668807983398
31,47577672.0,8.78579044342041,-1.0881977081298828,2.7139101028442383,0.05539512634277344,-0.034089088439941406,-0.04474163055419922,-0.32088279724121094,0.6194944381713867,0.5079736709594727,0.5051679611206055
32,47577688.0,8.922264099121094,-0.9996089935302734,2.72109317779541,0.060721397399902344,-0.06391716003417969,-0.06604766845703125,-0.32088279724121094,0.6194944381713867,0.5079736709594727,0.5051679611206055
33,47577712.0,8.97374153137207,-1.1312942504882812,2.688770294189453,0.0010652542114257812,-0.057525634765625,-0.07137489318847656,-0.32088279724121094,0.6194944381713867,0.5079736709594727,0.5051679611206055
34,47577728.0,9.007261276245117,-1.227065086364746,2.6779956817626953,-0.040480613708496094,-0.054329872131347656,-0.07776641845703125,-0.32088279724121094,0.6194944381713867,0.5079736709594727,0.5051679611206055
35,47577748.0,9.138946533203125,-1.1887569427490234,2.625321388244629,-0.042611122131347656,-0.0692434310913086,-0.06498241424560547,-0.32088279724121094,0.6194944381713867,0.5079736709594727,0.5051679611206055
36,47577868.0,9.35443115234375,-1.1013660430908203,2.8192577362060547,-0.042611122131347656,-0.0692434310913086,-0.06498241424560547,-0.3248100280761719,0.6174659729003906,0.5051679611206055,0.5079736709594727
37,47577888.0,9.452595710754395,-1.1109428405761719,2.782146453857422,-0.042611122131347656,-0.0692434310913086,-0.06498241424560547,-0.3248100280761719,0.6174659729003906,0.5051679611206055,0.5079736709594727
38,47577908.0,9.656109809875488,-1.168405532836914,2.8156661987304688,-0.042611122131347656,-0.0692434310913086,-0.06498241424560547,-0.3248100280761719,0.6174659729003906,0.5051679611206055,0.5079736709594727
39,47577928.0,9.538789749145508,-1.037917137145996,2.8839035034179688,-0.042611122131347656,-0.0692434310913086,-0.06498241424560547,-0.3248100280761719,0.6174659729003906,0.5051679611206055,0.5079736709594727
40,47577948.0,9.176057815551758,-0.9996089935302734,2.9856605529785156,-0.042611122131347656,-0.0692434310913086,-0.06498241424560547,-0.3248100280761719,0.6174659729003906,0.5051679611206055,0.5079736709594727
41,47578068.0,8.534391403198242,-1.0989713668823242,2.7354583740234375,0.010652542114257812,0.07030868530273438,-0.045806884765625,-0.3234720230102539,0.6118125915527344,0.5144472122192383,0.5063762664794922
42,47578068.0,8.534391403198242,-1.0989713668823242,2.7354583740234375,0.010652542114257812,0.07030868530273438,-0.045806884765625,-0.3234720230102539,0.6118125915527344,0.5144472122192383,0.5063762664794922
43,47578088.0,8.71635627746582,-1.1767854690551758,2.6133499145507812,-0.019174575805664062,0.05859088897705078,-0.12677001953125,-0.3234720230102539,0.6118125915527344,0.5144472122192383,0.5063762664794922
44,47578088.0,8.71635627746582,-1.1767854690551758,2.6133499145507812,-0.019174575805664062,0.05859088897705078,-0.12677001953125,-0.3234720230102539,0.6118125915527344,0.5144472122192383,0.5063762664794922
45,47578108.0,8.849238395690918,-1.1648139953613281,2.499622344970703,-0.0745706558227539,0.045806884765625,-0.1736431121826172,-0.3234720230102539,0.6118125915527344,0.5144472122192383,0.5063762664794922
46,47578108.0,8.849238395690918,-1.1648139953613281,2.499622344970703,-0.0745706558227539,0.045806884765625,-0.1736431121826172,-0.3234720230102539,0.6118125915527344,0.5144472122192383,0.5063762664794922
47,47578128.0,8.865999221801758,-1.328822135925293,2.620532989501953,-0.12677001953125,0.04793834686279297,-0.21092796325683594,-0.3234720230102539,0.6118125915527344,0.5144472122192383,0.5063762664794922
48,47578128.0,8.865999221801758,-1.328822135925293,2.620532989501953,-0.12677001953125,0.04793834686279297,-0.21092796325683594,-0.3234720230102539,0.6118125915527344,0.5144472122192383,0.5063762664794922
49,47578148.0,9.059934616088867,-1.4090299606323242,2.572648048400879,-0.14594554901123047,0.022370338439941406,-0.20986270904541016,-0.3234720230102539,0.6118125915527344,0.5144472122192383,0.5063762664794922
50,47578148.0,9.059934616088867,-1.4090299606323242,2.572648048400879,-0.14594554901123047,0.022370338439941406,-0.20986270904541016,-0.3234720230102539,0.6118125915527344,0.5144472122192383,0.5063762664794922
51,47578168.0,9.240702629089355,-1.3443851470947266,2.318854331970215,-0.14594554901123047,0.022370338439941406,-0.20986270904541016,-0.3234720230102539,0.6118125915527344,0.5144472122192383,0.5063762664794922
52,47578188.0,9.050357818603516,-1.3108654022216797,2.3715286254882812,-0.14594554901123047,0.022370338439941406,-0.20986270904541016,-0.3234720230102539,0.6118125915527344,0.5144472122192383,0.5063762664794922
53,47578208.0,9.071906089782715,-1.3683271408081055,2.4026546478271484,-0.14594554901123047,0.022370338439941406,-0.20986270904541016,-0.3234720230102539,0.6118125915527344,0.5144472122192383,0.5063762664794922
54,47578228.0,9.28499698638916,-1.3072738647460938,2.415822982788086,-0.14594554901123047,0.022370338439941406,-0.20986270904541016,-0.3234720230102539,0.6118125915527344,0.5144472122192383,0.5063762664794922
55,47578248.0,9.23711109161377,-1.2749509811401367,2.4517364501953125,-0.14594554901123047,0.022370338439941406,-0.20986270904541016,-0.3234720230102539,0.6118125915527344,0.5144472122192383,0.5063762664794922
56,47578268.0,9.098243713378906,-1.3336105346679688,2.4529342651367188,0.04474163055419922,-0.03621959686279297,-0.04793834686279297,-0.3234720230102539,0.6118125915527344,0.5144472122192383,0.5063762664794922
57,47578288.0,9.11739730834961,-1.227065086364746,2.5834217071533203,0.07030868530273438,-0.05646038055419922,-0.04367637634277344,-0.3234720230102539,0.6118125915527344,0.5144472122192383,0.5063762664794922
58,47578308.0,9.26584243774414,-1.2186851501464844,2.5798301696777344,0.07670116424560547,-0.07883167266845703,-0.01597881317138672,-0.3234720230102539,0.6118125915527344,0.5144472122192383,0.5063762664794922
59,47578328.0,9.295770645141602,-1.106154441833496,2.606167793273926,0.045806884765625,-0.07350540161132812,0.019174575805664062,-0.3234720230102539,0.6118125915527344,0.5144472122192383,0.5063762664794922
60,47578348.0,8.971346855163574,-1.045100212097168,2.656447410583496,0.024501800537109375,-0.02982807159423828,0.057525634765625,-0.3234720230102539,0.6118125915527344,0.5144472122192383,0.5063762664794922
61,47578368.0,8.862407684326172,-1.0977745056152344,2.657644271850586,-0.026632308959960938,-0.021305084228515625,0.0862884521484375,-0.3234720230102539,0.6118125915527344,0.5144472122192383,0.5063762664794922
62,47578388.0,9.031203269958496,-1.0211572647094727,2.718698501586914,-0.03515434265136719,-0.04687213897705078,0.0980072021484375,-0.3234720230102539,0.6118125915527344,0.5144472122192383,0.5063762664794922
63,47578408.0,9.132960319519043,-1.0079889297485352,2.632504463195801,-0.03515434265136719,-0.060721397399902344,0.10120296478271484,-0.3234720230102539,0.6118125915527344,0.5144472122192383,0.5063762664794922
64,47578428.0,8.80614185333252,-0.9589061737060547,2.649264335632324,-0.0063915252685546875,-0.0170440673828125,0.08735370635986328,-0.3234720230102539,0.6118125915527344,0.5144472122192383,0.5063762664794922
65,47578448.0,8.690019607543945,-1.0953798294067383,2.6779956817626953,0.040480613708496094,-0.026632308959960938,0.05539512634277344,-0.3234720230102539,0.6118125915527344,0.5144472122192383,0.5063762664794922
66,47578468.0,9.020429611206055,-1.0534801483154297,2.65285587310791,0.040480613708496094,-0.026632308959960938,0.05539512634277344,-0.3234720230102539,0.6118125915527344,0.5144472122192383,0.5063762664794922
67,47578488.0,8.970149993896484,-1.0846061706542969,2.6037731170654297,0.040480613708496094,-0.026632308959960938,0.05539512634277344,-0.3234720230102539,0.6118125915527344,0.5144472122192383,0.5063762664794922
68,47578504.0,8.881561279296875,-1.0558748245239258,2.7043323516845703,0.040480613708496094,-0.026632308959960938,0.05539512634277344,-0.3234720230102539,0.6118125915527344,0.5144472122192383,0.5063762664794922
69,47578528.0,8.984515190124512,-1.2198820114135742,2.6480674743652344,0.040480613708496094,-0.026632308959960938,0.05539512634277344,-0.3234720230102539,0.6118125915527344,0.5144472122192383,0.5063762664794922
70,47578544.0,9.316122055053711,-1.2917108535766602,2.6085615158081055,0.040480613708496094,-0.026632308959960938,0.05539512634277344,-0.3234720230102539,0.6118125915527344,0.5144472122192383,0.5063762664794922
71,47578668.0,8.97493839263916,-1.0702400207519531,2.679192543029785,0.08522319793701172,-0.025567054748535156,0.042611122131347656,-0.3368082046508789,0.6090936660766602,0.5099153518676758,0.5055561065673828
72,47578688.0,9.006063461303711,-1.1899538040161133,2.691164016723633,0.08522319793701172,-0.025567054748535156,0.042611122131347656,-0.33672237396240234,0.6088781356811523,0.5101308822631836,0.5056428909301758
73,47578704.0,9.188028335571289,-1.1552371978759766,2.632504463195801,0.08522319793701172,-0.025567054748535156,0.042611122131347656,-0.3366355895996094,0.6085758209228516,0.5103473663330078,0.5058155059814453
74,47578728.0,9.292180061340332,-1.054677963256836,2.6408843994140625,0.08522319793701172,-0.025567054748535156,0.042611122131347656,-0.33667850494384766,0.6081008911132812,0.5107355117797852,0.5059452056884766
75,47578744.0,9.099440574645996,-0.9948205947875977,2.7031354904174805,0.08522319793701172,-0.025567054748535156,0.042611122131347656,-0.3365497589111328,0.6076688766479492,0.5112533569335938,0.5060749053955078
76,47578768.0,9.037189483642578,-1.073831558227539,2.693558692932129,0.08522319793701172,-0.025567054748535156,0.042611122131347656,-0.3365497589111328,0.6076688766479492,0.5112533569335938,0.5060749053955078
77,47578768.0,9.037189483642578,-1.073831558227539,2.693558692932129,0.08522319793701172,-0.025567054748535156,0.042611122131347656,-0.3365497589111328,0.6076688766479492,0.5112533569335938,0.5060749053955078
78,47578788.0,9.26584243774414,-1.1265058517456055,2.622927665710449,0.08522319793701172,-0.025567054748535156,0.042611122131347656,-0.3365497589111328,0.6076688766479492,0.5112533569335938,0.5060749053955078
79,47578788.0,9.26584243774414,-1.1265058517456055,2.622927665710449,0.08522319793701172,-0.025567054748535156,0.042611122131347656,-0.3365497589111328,0.6076688766479492,0.5112533569335938,0.5060749053955078
80,47578808.0,9.282602310180664,-1.015172004699707,2.656447410583496,0.08522319793701172,-0.025567054748535156,0.042611122131347656,-0.3365497589111328,0.6076688766479492,0.5112533569335938,0.5060749053955078
81,47578808.0,9.282602310180664,-1.015172004699707,2.656447410583496,0.08522319793701172,-0.025567054748535156,0.042611122131347656,-0.3365497589111328,0.6076688766479492,0.5112533569335938,0.5060749053955078
82,47578824.0,8.991698265075684,-0.9900321960449219,2.6779956817626953,0.08522319793701172,-0.025567054748535156,0.042611122131347656,-0.3365497589111328,0.6076688766479492,0.5112533569335938,0.5060749053955078
83,47578824.0,8.991698265075684,-0.9900321960449219,2.6779956817626953,0.08522319793701172,-0.025567054748535156,0.042611122131347656,-0.3365497589111328,0.6076688766479492,0.5112533569335938,0.5060749053955078
84,47578848.0,9.006063461303711,-1.0055952072143555,2.6696157455444336,0.08522319793701172,-0.025567054748535156,0.042611122131347656,-0.3365497589111328,0.6076688766479492,0.5112533569335938,0.5060749053955078
85,47578848.0,9.006063461303711,-1.0055952072143555,2.6696157455444336,0.08522319793701172,-0.025567054748535156,0.042611122131347656,-0.3365497589111328,0.6076688766479492,0.5112533569335938,0.5060749053955078
86,47578864.0,9.199999809265137,-0.9349641799926758,2.5738449096679688,0.040480613708496094,-0.005326271057128906,0.06498241424560547,-0.3365497589111328,0.6076688766479492,0.5112533569335938,0.5060749053955078
87,47578888.0,9.202394485473633,-0.9541177749633789,2.6420812606811523,0.034089088439941406,0.011717796325683594,0.06604766845703125,-0.3365497589111328,0.6076688766479492,0.5112533569335938,0.5060749053955078
88,47578904.0,9.052752494812012,-0.9960174560546875,2.624124526977539,0.010652542114257812,0.033023834228515625,0.07776641845703125,-0.3365497589111328,0.6076688766479492,0.5112533569335938,0.5060749053955078
89,47578924.0,9.038386344909668,-1.0367202758789062,2.6049699783325195,0.021305084228515625,0.030893325805664062,0.07776641845703125,-0.3365497589111328,0.6076688766479492,0.5112533569335938,0.5060749053955078
90,47578944.0,9.249082565307617,-0.9433441162109375,2.5235652923583984,0.057525634765625,0.005326271057128906,0.07030868530273438,-0.3365497589111328,0.6076688766479492,0.5112533569335938,0.5060749053955078
91,47579064.0,9.028809547424316,-0.950526237487793,2.638490676879883,0.0628519058227539,-0.0031957626342773438,0.041545867919921875,-0.33339881896972656,0.6032238006591797,0.5201005935668945,0.5043916702270508
92,47579084.0,8.937827110290527,-1.0678462982177734,2.628912925720215,0.0628519058227539,-0.0031957626342773438,0.041545867919921875,-0.33348560333251953,0.6031379699707031,0.5205326080322266,0.5040464401245117
93,47579104.0,9.006063461303711,-1.1731939315795898,2.7067270278930664,0.0628519058227539,-0.0031957626342773438,0.041545867919921875,-0.3332691192626953,0.6031808853149414,0.5207481384277344,0.5039167404174805
94,47579124.0,9.124580383300781,-1.1504487991333008,2.6959524154663086,0.0628519058227539,-0.0031957626342773438,0.041545867919921875,-0.33322620391845703,0.6030941009521484,0.5210075378417969,0.5037870407104492
95,47579144.0,8.99648666381836,-1.0498886108398438,2.634899139404297,0.0628519058227539,-0.0031957626342773438,0.041545867919921875,-0.33318328857421875,0.6029214859008789,0.5213527679443359,0.503657341003418
96,47579164.0,8.858816146850586,-1.1911516189575195,2.6444759368896484,-0.021305084228515625,0.04474163055419922,0.03621959686279297,-0.33318328857421875,0.6029214859008789,0.5213527679443359,0.503657341003418
97,47579164.0,8.858816146850586,-1.1911516189575195,2.6444759368896484,-0.021305084228515625,0.04474163055419922,0.03621959686279297,-0.33318328857421875,0.6029214859008789,0.5213527679443359,0.503657341003418
98,47579184.0,9.030006408691406,-1.2857246398925781,2.6432790756225586,-0.03515434265136719,0.012783050537109375,0.019174575805664062,-0.33318328857421875,0.6029214859008789,0.5213527679443359,0.503657341003418
99,47579184.0,9.030006408691406,-1.2857246398925781,2.6432790756225586,-0.03515434265136719,0.012783050537109375,0.019174575805664062,-0.33318328857421875,0.6029214859008789,0.5213527679443359,0.503657341003418
100,47579204.0,9.243097305297852,-1.2581911087036133,2.661235809326172,0.013848304748535156,-0.011717796325683594,-0.0031957626342773438,-0.33318328857421875,0.6029214859008789,0.5213527679443359,0.503657341003418
101,47579204.0,9.243097305297852,-1.2581911087036133,2.661235809326172,0.013848304748535156,-0.011717796325683594,-0.0031957626342773438,-0.33318328857421875,0.6029214859008789,0.5213527679443359,0.503657341003418
102,47579224.0,9.190423011779785,-1.2653741836547852,2.6444759368896484,0.03621959686279297,0.0010652542114257812,-0.010652542114257812,-0.33318328857421875,0.6029214859008789,0.5213527679443359,0.503657341003418
103,47579224.0,9.190423011779785,-1.2653741836547852,2.6444759368896484,0.03621959686279297,0.0010652542114257812,-0.010652542114257812,-0.33318328857421875,0.6029214859008789,0.5213527679443359,0.503657341003418
104,47579244.0,9.056344032287598,-1.237839698791504,2.688770294189453,0.012783050537109375,0.009587287902832031,-0.01597881317138672,-0.33318328857421875,0.6029214859008789,0.5213527679443359,0.503657341003418
105,47579244.0,9.056344032287598,-1.237839698791504,2.688770294189453,0.012783050537109375,0.009587287902832031,-0.01597881317138672,-0.33318328857421875,0.6029214859008789,0.5213527679443359,0.503657341003418
106,47579364.0,8.950995445251465,-1.417409896850586,2.6767988204956055,0.014913558959960938,0.02769756317138672,-0.005326271057128906,-0.33318328857421875,0.6029214859008789,0.5213527679443359,0.503657341003418
107,47579384.0,9.222745895385742,-1.385087013244629,2.650461196899414,0.014913558959960938,0.02769756317138672,-0.005326271057128906,-0.33318328857421875,0.6029214859008789,0.5213527679443359,0.503657341003418
108,47579404.0,9.310136795043945,-1.3240337371826172,2.6001815795898438,0.014913558959960938,0.02769756317138672,-0.005326271057128906,-0.33318328857421875,0.6029214859008789,0.5213527679443359,0.503657341003418
109,47579424.0,9.069512367248535,-1.295302391052246,2.6684188842773438,0.014913558959960938,0.02769756317138672,-0.005326271057128906,-0.33318328857421875,0.6029214859008789,0.5213527679443359,0.503657341003418
110,47579444.0,9.034794807434082,-1.3072738647460938,2.6767988204956055,0.014913558959960938,0.02769756317138672,-0.005326271057128906,-0.33318328857421875,0.6029214859008789,0.5213527679443359,0.503657341003418
111,47579464.0,9.103032112121582,-1.2881193161010742,2.6720104217529297,0.014913558959960938,0.02769756317138672,-0.005326271057128906,-0.33318328857421875,0.6029214859008789,0.5213527679443359,0.503657341003418
112,47579464.0,9.103032112121582,-1.2881193161010742,2.6720104217529297,0.014913558959960938,0.02769756317138672,-0.005326271057128906,-0.33318328857421875,0.6029214859008789,0.5213527679443359,0.503657341003418
113,47579484.0,9.101835250854492,-1.2486133575439453,2.7079238891601562,0.014913558959960938,0.02769756317138672,-0.005326271057128906,-0.33318328857421875,0.6029214859008789,0.5213527679443359,0.503657341003418
114,47579484.0,9.101835250854492,-1.2486133575439453,2.7079238891601562,0.014913558959960938,0.02769756317138672,-0.005326271057128906,-0.33318328857421875,0.6029214859008789,0.5213527679443359,0.503657341003418
115,47579504.0,8.92705249786377,-1.2797393798828125,2.7342615127563477,0.014913558959960938,0.02769756317138672,-0.005326271057128906,-0.33318328857421875,0.6029214859008789,0.5213527679443359,0.503657341003418
116,47579504.0,8.92705249786377,-1.2797393798828125,2.7342615127563477,0.014913558959960938,0.02769756317138672,-0.005326271057128906,-0.33318328857421875,0.6029214859008789,0.5213527679443359,0.503657341003418
117,47579524.0,8.90670108795166,-1.3455820083618164,2.688770294189453,0.014913558959960938,0.02769756317138672,-0.005326271057128906,-0.33318328857421875,0.6029214859008789,0.5213527679443359,0.503657341003418
118,47579524.0,8.90670108795166,-1.3455820083618164,2.688770294189453,0.014913558959960938,0.02769756317138672,-0.005326271057128906,-0.33318328857421875,0.6029214859008789,0.5213527679443359,0.503657341003418
119,47579544.0,9.043174743652344,-1.2390365600585938,2.716303825378418,0.014913558959960938,0.02769756317138672,-0.005326271057128906,-0.33318328857421875,0.6029214859008789,0.5213527679443359,0.503657341003418
120,47579544.0,9.043174743652344,-1.2390365600585938,2.716303825378418,0.014913558959960938,0.02769756317138672,-0.005326271057128906,-0.33318328857421875,0.6029214859008789,0.5213527679443359,0.503657341003418
121,47579564.0,9.0754976272583,-1.1265058517456055,2.752218246459961,0.045806884765625,-0.004261016845703125,0.031958580017089844,-0.33318328857421875,0.6029214859008789,0.5213527679443359,0.503657341003418
122,47579584.0,8.959375381469727,-1.1444625854492188,2.758204460144043,0.024501800537109375,0.012783050537109375,0.025567054748535156,-0.33318328857421875,0.6029214859008789,0.5213527679443359,0.503657341003418
123,47579604.0,8.870787620544434,-1.1576309204101562,2.745035171508789,0.0010652542114257812,0.02982807159423828,0.019174575805664062,-0.33318328857421875,0.6029214859008789,0.5213527679443359,0.503657341003418
124,47579624.0,9.056344032287598,-1.1863622665405273,2.727078437805176,0.009587287902832031,0.0031957626342773438,0.0170440673828125,-0.33318328857421875,0.6029214859008789,0.5213527679443359,0.503657341003418
125,47579644.0,9.047964096069336,-1.106154441833496,2.72348690032959,0.03515434265136719,-0.0010652542114257812,0.01597881317138672,-0.33318328857421875,0.6029214859008789,0.5213527679443359,0.503657341003418
126,47579664.0,8.919870376586914,-1.0654516220092773,2.7139101028442383,0.042611122131347656,0.0287628173828125,0.011717796325683594,-0.33318328857421875,0.6029214859008789,0.5213527679443359,0.503657341003418
127,47579684.0,9.04437255859375,-1.0534801483154297,2.711515426635742,0.020239830017089844,0.009587287902832031,-0.0010652542114257812,-0.33318328857421875,0.6029214859008789,0.5213527679443359,0.503657341003418
128,47579704.0,9.119791984558105,-1.103759765625,2.7318668365478516,-0.0010652542114257812,0.0010652542114257812,-0.021305084228515625,-0.33318328857421875,0.6029214859008789,0.5213527679443359,0.503657341003418
129,47579724.0,9.092257499694824,-1.1779823303222656,2.6420812606811523,-0.01810932159423828,0.013848304748535156,-0.025567054748535156,-0.33318328857421875,0.6029214859008789,0.5213527679443359,0.503657341003418
130,47579744.0,9.110215187072754,-1.1875600814819336,2.685178756713867,-0.019174575805664062,0.0063915252685546875,-0.023435592651367188,-0.33318328857421875,0.6029214859008789,0.5213527679443359,0.503657341003418
131,47579760.0,9.0754976272583,-1.1049575805664062,2.7713727951049805,-0.019174575805664062,0.0063915252685546875,-0.023435592651367188,-0.33318328857421875,0.6029214859008789,0.5213527679443359,0.503657341003418
132,47579784.0,9.070709228515625,-1.1648139953613281,2.745035171508789,-0.019174575805664062,0.0063915252685546875,-0.023435592651367188,-0.33318328857421875,0.6029214859008789,0.5213527679443359,0.503657341003418
133,47579800.0,9.056344032287598,-1.1516456604003906,2.7330636978149414,-0.019174575805664062,0.0063915252685546875,-0.023435592651367188,-0.33318328857421875,0.6029214859008789,0.5213527679443359,0.503657341003418
134,47579824.0,8.989303588867188,-1.227065086364746,2.7953147888183594,-0.019174575805664062,0.0063915252685546875,-0.023435592651367188,-0.33318328857421875,0.6029214859008789,0.5213527679443359,0.503657341003418
135,47579840.0,8.917475700378418,-1.2390365600585938,2.782146453857422,-0.019174575805664062,0.0063915252685546875,-0.023435592651367188,-0.33318328857421875,0.6029214859008789,0.5213527679443359,0.503657341003418
136,47579864.0,8.90550422668457,-1.2282629013061523,2.8013010025024414,-0.022370338439941406,0.014913558959960938,-0.021305084228515625,-0.33318328857421875,0.6029214859008789,0.5213527679443359,0.503657341003418
137,47579880.0,9.043174743652344,-1.230656623840332,2.813272476196289,-0.012783050537109375,0.004261016845703125,-0.022370338439941406,-0.33318328857421875,0.6029214859008789,0.5213527679443359,0.503657341003418
138,47579900.0,9.110215187072754,-1.2186851501464844,2.821652412414551,-0.009587287902832031,0.0,-0.025567054748535156,-0.33318328857421875,0.6029214859008789,0.5213527679443359,0.503657341003418
139,47579920.0,9.0754976272583,-1.237839698791504,2.874326705932617,-0.0031957626342773438,0.013848304748535156,-0.040480613708496094,-0.33318328857421875,0.6029214859008789,0.5213527679443359,0.503657341003418
140,47579940.0,9.047964096069336,-1.325230598449707,2.813272476196289,-0.010652542114257812,0.013848304748535156,-0.03835010528564453,-0.33318328857421875,0.6029214859008789,0.5213527679443359,0.503657341003418
141,47579960.0,9.073103904724121,-1.296499252319336,2.8659467697143555,-0.01597881317138672,0.0031957626342773438,-0.03941535949707031,-0.33318328857421875,0.6029214859008789,0.5213527679443359,0.503657341003418
142,47579980.0,8.984515190124512,-1.3000907897949219,2.8779172897338867,0.0031957626342773438,0.011717796325683594,-0.03621959686279297,-0.33318328857421875,0.6029214859008789,0.5213527679443359,0.503657341003418
143,47580000.0,8.88634967803955,-1.3467788696289062,2.8527774810791016,-0.004261016845703125,0.022370338439941406,-0.02769756317138672,-0.33318328857421875,0.6029214859008789,0.5213527679443359,0.503657341003418
144,47580020.0,8.901912689208984,-1.2713594436645508,2.8575668334960938,0.00852203369140625,0.01597881317138672,-0.03728485107421875,-0.33318328857421875,0.6029214859008789,0.5213527679443359,0.503657341003418
145,47580040.0,8.972543716430664,-1.270162582397461,2.7953147888183594,0.0170440673828125,0.011717796325683594,-0.030893325805664062,-0.33318328857421875,0.6029214859008789,0.5213527679443359,0.503657341003418
146,47580160.0,9.015641212463379,-1.1743907928466797,2.5774364471435547,0.0170440673828125,0.011717796325683594,-0.030893325805664062,-0.3323631286621094,0.6060724258422852,0.5251932144165039,0.49636363983154297
147,47580160.0,9.015641212463379,-1.1743907928466797,2.5774364471435547,0.0170440673828125,0.011717796325683594,-0.030893325805664062,-0.3323631286621094,0.6060724258422852,0.5251932144165039,0.49636363983154297
148,47580180.0,9.136551856994629,-1.1157312393188477,2.5475082397460938,0.0170440673828125,0.011717796325683594,-0.030893325805664062,-0.3323631286621094,0.6060724258422852,0.5251932144165039,0.49636363983154297
149,47580180.0,9.136551856994629,-1.1157312393188477,2.5475082397460938,0.0170440673828125,0.011717796325683594,-0.030893325805664062,-0.3323631286621094,0.6060724258422852,0.5251932144165039,0.49636363983154297
150,47580200.0,9.126975059509277,-1.1049575805664062,2.5427188873291016,0.0170440673828125,0.011717796325683594,-0.030893325805664062,-0.3323631286621094,0.6060724258422852,0.5251932144165039,0.49636363983154297
151,47580200.0,9.126975059509277,-1.1049575805664062,2.5427188873291016,0.0170440673828125,0.011717796325683594,-0.030893325805664062,-0.3323631286621094,0.6060724258422852,0.5251932144165039,0.49636363983154297
152,47580220.0,9.129368782043457,-1.0989713668823242,2.5427188873291016,0.0170440673828125,0.011717796325683594,-0.030893325805664062,-0.3323631286621094,0.6060724258422852,0.5251932144165039,0.49636363983154297
153,47580220.0,9.129368782043457,-1.0989713668823242,2.5427188873291016,0.0170440673828125,0.011717796325683594,-0.030893325805664062,-0.3323631286621094,0.6060724258422852,0.5251932144165039,0.49636363983154297
154,47580240.0,9.177254676818848,-1.0965776443481445,2.566661834716797,0.0170440673828125,0.011717796325683594,-0.030893325805664062,-0.3323631286621094,0.6060724258422852,0.5251932144165039,0.49636363983154297
155,47580240.0,9.177254676818848,-1.0965776443481445,2.566661834716797,0.0170440673828125,0.011717796325683594,-0.030893325805664062,-0.3323631286621094,0.6060724258422852,0.5251932144165039,0.49636363983154297
156,47580260.0,9.112608909606934,-1.0570716857910156,2.620532989501953,0.0170440673828125,0.011717796325683594,-0.030893325805664062,-0.3323631286621094,0.6060724258422852,0.5251932144165039,0.49636363983154297
157,47580280.0,9.02641487121582,-1.073831558227539,2.6803903579711914,0.0170440673828125,0.011717796325683594,-0.030893325805664062,-0.3323631286621094,0.6060724258422852,0.5251932144165039,0.49636363983154297
158,47580300.0,8.946207046508789,-0.9900321960449219,2.682784080505371,0.0170440673828125,0.011717796325683594,-0.030893325805664062,-0.3323631286621094,0.6060724258422852,0.5251932144165039,0.49636363983154297
159,47580320.0,9.056344032287598,-1.0271434783935547,2.7390499114990234,0.0170440673828125,0.011717796325683594,-0.030893325805664062,-0.3323631286621094,0.6060724258422852,0.5251932144165039,0.49636363983154297
160,47580340.0,9.107820510864258,-0.9672861099243164,2.84200382232666,0.0170440673828125,0.011717796325683594,-0.030893325805664062,-0.3323631286621094,0.6060724258422852,0.5251932144165039,0.49636363983154297
161,47580360.0,9.033597946166992,-0.9732723236083984,2.84320068359375,0.08735370635986328,-0.04900360107421875,0.004261016845703125,-0.3323631286621094,0.6060724258422852,0.5251932144165039,0.49636363983154297
162,47580380.0,9.070709228515625,-1.011580467224121,2.845595359802246,0.034089088439941406,-0.052199363708496094,-0.0063915252685546875,-0.3323631286621094,0.6060724258422852,0.5251932144165039,0.49636363983154297
163,47580400.0,9.156903266906738,-1.05108642578125,2.916226387023926,0.0010652542114257812,-0.05006885528564453,-0.022370338439941406,-0.3323631286621094,0.6060724258422852,0.5251932144165039,0.49636363983154297
164,47580420.0,9.136551856994629,-1.1552371978759766,2.8922834396362305,-0.011717796325683594,-0.033023834228515625,-0.026632308959960938,-0.3323631286621094,0.6060724258422852,0.5251932144165039,0.49636363983154297
165,47580440.0,9.06472396850586,-1.1827716827392578,2.8707351684570312,0.00852203369140625,-0.026632308959960938,-0.023435592651367188,-0.3323631286621094,0.6060724258422852,0.5251932144165039,0.49636363983154297
166,47580660.0,9.11500358581543,-1.3683271408081055,2.8228492736816406,0.05965614318847656,-0.009587287902832031,-0.05113410949707031,-0.33823299407958984,0.5994691848754883,0.5304155349731445,0.49489688873291016
167,47580660.0,9.11500358581543,-1.3683271408081055,2.8228492736816406,0.05965614318847656,-0.009587287902832031,-0.05113410949707031,-0.33823299407958984,0.5994691848754883,0.5304155349731445,0.49489688873291016
168,47580680.0,8.95578384399414,-1.2545995712280273,2.8815088272094727,0.08309268951416016,-0.005326271057128906,-0.053264617919921875,-0.33823299407958984,0.5994691848754883,0.5304155349731445,0.49489688873291016
169,47580680.0,8.95578384399414,-1.2545995712280273,2.8815088272094727,0.08309268951416016,-0.005326271057128906,-0.053264617919921875,-0.33823299407958984,0.5994691848754883,0.5304155349731445,0.49489688873291016
170,47580700.0,8.857619285583496,-1.2115020751953125,2.864748954772949,0.07030868530273438,0.004261016845703125,-0.02982807159423828,-0.33823299407958984,0.5994691848754883,0.5304155349731445,0.49489688873291016
171,47580700.0,8.857619285583496,-1.2115020751953125,2.864748954772949,0.07030868530273438,0.004261016845703125,-0.02982807159423828,-0.33823299407958984,0.5994691848754883,0.5304155349731445,0.49489688873291016
172,47580720.0,8.75466537475586,-1.2091083526611328,2.814469337463379,0.009587287902832031,0.020239830017089844,-0.009587287902832031,-0.33823299407958984,0.5994691848754883,0.5304155349731445,0.49489688873291016
173,47580720.0,8.75466537475586,-1.2091083526611328,2.814469337463379,0.009587287902832031,0.020239830017089844,-0.009587287902832031,-0.33823299407958984,0.5994691848754883,0.5304155349731445,0.49489688873291016
174,47580740.0,8.737905502319336,-1.2725563049316406,2.7462329864501953,-0.034089088439941406,0.03728485107421875,0.0010652542114257812,-0.33823299407958984,0.5994691848754883,0.5304155349731445,0.49489688873291016
175,47580740.0,8.737905502319336,-1.2725563049316406,2.7462329864501953,-0.034089088439941406,0.03728485107421875,0.0010652542114257812,-0.33823299407958984,0.5994691848754883,0.5304155349731445,0.49489688873291016
176,47580856.0,9.110215187072754,-1.1468572616577148,2.685178756713867,-0.01810932159423828,0.022370338439941406,0.07989692687988281,-0.33823299407958984,0.5994691848754883,0.5304155349731445,0.49489688873291016
177,47580880.0,8.99528980255127,-1.0067920684814453,2.660038948059082,0.005326271057128906,0.020239830017089844,0.09054946899414062,-0.33823299407958984,0.5994691848754883,0.5304155349731445,0.49489688873291016
178,47580896.0,8.930644035339355,-0.9361610412597656,2.6947555541992188,0.01597881317138672,0.01810932159423828,0.09374523162841797,-0.33823299407958984,0.5994691848754883,0.5304155349731445,0.49489688873291016
179,47580920.0,8.907898902893066,-0.9134149551391602,2.7366552352905273,-0.011717796325683594,0.012783050537109375,0.08735370635986328,-0.33823299407958984,0.5994691848754883,0.5304155349731445,0.49489688873291016
180,47580936.0,8.943812370300293,-0.9301748275756836,2.749823570251465,-0.031958580017089844,0.0031957626342773438,0.05646038055419922,-0.33823299407958984,0.5994691848754883,0.5304155349731445,0.49489688873291016
181,47580960.0,8.909095764160156,-0.9912290573120117,2.7222900390625,-0.031958580017089844,0.0031957626342773438,0.05646038055419922,-0.33823299407958984,0.5994691848754883,0.5304155349731445,0.49489688873291016
182,47580960.0,8.909095764160156,-0.9912290573120117,2.7222900390625,-0.031958580017089844,0.0031957626342773438,0.05646038055419922,-0.33823299407958984,0.5994691848754883,0.5304155349731445,0.49489688873291016
183,47580976.0,8.901912689208984,-1.0211572647094727,2.7282752990722656,-0.031958580017089844,0.0031957626342773438,0.05646038055419922,-0.33823299407958984,0.5994691848754883,0.5304155349731445,0.49489688873291016
184,47580976.0,8.901912689208984,-1.0211572647094727,2.7282752990722656,-0.031958580017089844,0.0031957626342773438,0.05646038055419922,-0.33823299407958984,0.5994691848754883,0.5304155349731445,0.49489688873291016
185,47581000.0,9.070709228515625,-1.0929861068725586,2.743838310241699,-0.031958580017089844,0.0031957626342773438,0.05646038055419922,-0.33823299407958984,0.5994691848754883,0.5304155349731445,0.49489688873291016
186,47581000.0,9.070709228515625,-1.0929861068725586,2.743838310241699,-0.031958580017089844,0.0031957626342773438,0.05646038055419922,-0.33823299407958984,0.5994691848754883,0.5304155349731445,0.49489688873291016
187,47581016.0,9.141340255737305,-1.075028419494629,2.8036956787109375,-0.031958580017089844,0.0031957626342773438,0.05646038055419922,-0.33823299407958984,0.5994691848754883,0.5304155349731445,0.49489688873291016
188,47581016.0,9.141340255737305,-1.075028419494629,2.8036956787109375,-0.031958580017089844,0.0031957626342773438,0.05646038055419922,-0.33823299407958984,0.5994691848754883,0.5304155349731445,0.49489688873291016
189,47581040.0,8.998881340026855,-1.0714378356933594,2.839609146118164,-0.031958580017089844,0.0031957626342773438,0.05646038055419922,-0.33823299407958984,0.5994691848754883,0.5304155349731445,0.49489688873291016
190,47581040.0,8.998881340026855,-1.0714378356933594,2.839609146118164,-0.031958580017089844,0.0031957626342773438,0.05646038055419922,-0.33823299407958984,0.5994691848754883,0.5304155349731445,0.49489688873291016
191,47581056.0,8.978529930114746,-1.041508674621582,2.8264408111572266,-0.024501800537109375,-0.0170440673828125,-0.0287628173828125,-0.33823299407958984,0.5994691848754883,0.5304155349731445,0.49489688873291016
192,47581080.0,8.984515190124512,-1.1001691818237305,2.853975296020508,-0.0692434310913086,-0.01810932159423828,-0.033023834228515625,-0.33823299407958984,0.5994691848754883,0.5304155349731445,0.49489688873291016
193,47581096.0,8.882759094238281,-1.3060760498046875,2.806089401245117,-0.10865974426269531,-0.0021305084228515625,-0.02769756317138672,-0.33823299407958984,0.5994691848754883,0.5304155349731445,0.49489688873291016
194,47581120.0,8.90550422668457,-1.3000907897949219,2.820455551147461,-0.08522319793701172,-0.0063915252685546875,-0.020239830017089844,-0.33823299407958984,0.5994691848754883,0.5304155349731445,0.49489688873291016
195,47581136.0,9.028809547424316,-1.2749509811401367,2.850383758544922,-0.011717796325683594,-0.02769756317138672,-0.023435592651367188,-0.33823299407958984,0.5994691848754883,0.5304155349731445,0.49489688873291016
196,47581156.0,9.120988845825195,-1.2091083526611328,2.813272476196289,-0.011717796325683594,-0.02769756317138672,-0.023435592651367188,-0.33823299407958984,0.5994691848754883,0.5304155349731445,0.49489688873291016
197,47581176.0,9.088665962219238,-1.2713594436645508,2.839609146118164,-0.011717796325683594,-0.02769756317138672,-0.023435592651367188,-0.33823299407958984,0.5994691848754883,0.5304155349731445,0.49489688873291016
198,47581196.0,8.982121467590332,-1.3000907897949219,2.84320068359375,-0.011717796325683594,-0.02769756317138672,-0.023435592651367188,-0.33823299407958984,0.5994691848754883,0.5304155349731445,0.49489688873291016
199,47581216.0,9.035992622375488,-1.3108654022216797,2.7989063262939453,-0.011717796325683594,-0.02769756317138672,-0.023435592651367188,-0.33823299407958984,0.5994691848754883,0.5304155349731445,0.49489688873291016
200,47581236.0,9.070709228515625,-1.2414312362670898,2.8048925399780273,-0.011717796325683594,-0.02769756317138672,-0.023435592651367188,-0.33823299407958984,0.5994691848754883,0.5304155349731445,0.49489688873291016
201,47581256.0,8.888744354248047,-1.227065086364746,2.818060874938965,-0.025567054748535156,0.019174575805664062,0.012783050537109375,-0.33823299407958984,0.5994691848754883,0.5304155349731445,0.49489688873291016
202,47581276.0,8.90670108795166,-1.355158805847168,2.8228492736816406,-0.05539512634277344,0.014913558959960938,0.009587287902832031,-0.33823299407958984,0.5994691848754883,0.5304155349731445,0.49489688873291016
203,47581296.0,9.061132431030273,-1.3144559860229492,2.8036956787109375,-0.05646038055419922,-0.0031957626342773438,0.013848304748535156,-0.33823299407958984,0.5994691848754883,0.5304155349731445,0.49489688873291016
204,47581316.0,9.016838073730469,-1.3060760498046875,2.7617950439453125,-0.03728485107421875,0.0063915252685546875,0.022370338439941406,-0.33823299407958984,0.5994691848754883,0.5304155349731445,0.49489688873291016
205,47581336.0,8.868392944335938,-1.256993293762207,2.751021385192871,-0.03621959686279297,0.019174575805664062,0.03515434265136719,-0.33823299407958984,0.5994691848754883,0.5304155349731445,0.49489688873291016
206,47581456.0,9.089863777160645,-1.1911516189575195,2.691164016723633,-0.021305084228515625,-0.0063915252685546875,0.009587287902832031,-0.33823299407958984,0.5994691848754883,0.5304155349731445,0.49489688873291016
207,47581476.0,8.952192306518555,-1.2450227737426758,2.7713727951049805,-0.031958580017089844,0.0063915252685546875,-0.0010652542114257812,-0.33823299407958984,0.5994691848754883,0.5304155349731445,0.49489688873291016
208,47581496.0,8.894729614257812,-1.2330513000488281,2.7282752990722656,-0.05965614318847656,0.00852203369140625,-0.0031957626342773438,-0.33823299407958984,0.5994691848754883,0.5304155349731445,0.49489688873291016
209,47581516.0,8.946207046508789,-1.2474164962768555,2.7330636978149414,-0.057525634765625,-0.007456779479980469,-0.004261016845703125,-0.33823299407958984,0.5994691848754883,0.5304155349731445,0.49489688873291016
210,47581536.0,9.019232749938965,-1.2462196350097656,2.7390499114990234,-0.04687213897705078,-0.013848304748535156,-0.0031957626342773438,-0.33823299407958984,0.5994691848754883,0.5304155349731445,0.49489688873291016
211,47581656.0,8.933038711547852,-1.3036823272705078,2.725881576538086,-0.052199363708496094,0.0010652542114257812,-0.01810932159423828,-0.32683849334716797,0.6029214859008789,0.5284309387207031,0.5004205703735352
212,47581676.0,9.057540893554688,-1.2522048950195312,2.727078437805176,-0.05539512634277344,-0.022370338439941406,-0.0170440673828125,-0.32683849334716797,0.6029214859008789,0.5284309387207031,0.5004205703735352
213,47581696.0,9.033597946166992,-1.328822135925293,2.753415107727051,-0.07030868530273438,-0.01810932159423828,-0.026632308959960938,-0.32683849334716797,0.6029214859008789,0.5284309387207031,0.5004205703735352
214,47581716.0,8.97613525390625,-1.3527650833129883,2.7354583740234375,-0.07776641845703125,-0.009587287902832031,-0.03941535949707031,-0.32683849334716797,0.6029214859008789,0.5284309387207031,0.5004205703735352
215,47581736.0,8.97613525390625,-1.364736557006836,2.7366552352905273,-0.07137489318847656,-0.014913558959960938,-0.045806884765625,-0.32683849334716797,0.6029214859008789,0.5284309387207031,0.5004205703735352
216,47581756.0,8.898321151733398,-1.3743133544921875,2.77376651763916,-0.07563591003417969,-0.01597881317138672,-0.034089088439941406,-0.32683849334716797,0.6029214859008789,0.5284309387207031,0.5004205703735352
217,47581756.0,8.898321151733398,-1.3743133544921875,2.77376651763916,-0.07563591003417969,-0.01597881317138672,-0.034089088439941406,-0.32683849334716797,0.6029214859008789,0.5284309387207031,0.5004205703735352
218,47581776.0,8.943812370300293,-1.387481689453125,2.7641897201538086,-0.0745706558227539,-0.024501800537109375,-0.02769756317138672,-0.32683849334716797,0.6029214859008789,0.5284309387207031,0.5004205703735352
219,47581776.0,8.943812370300293,-1.387481689453125,2.7641897201538086,-0.0745706558227539,-0.024501800537109375,-0.02769756317138672,-0.32683849334716797,0.6029214859008789,0.5284309387207031,0.5004205703735352
220,47581796.0,9.015641212463379,-1.351567268371582,2.7869348526000977,-0.061786651611328125,-0.031958580017089844,-0.024501800537109375,-0.32683849334716797,0.6029214859008789,0.5284309387207031,0.5004205703735352
221,47581796.0,9.015641212463379,-1.351567268371582,2.7869348526000977,-0.061786651611328125,-0.031958580017089844,-0.024501800537109375,-0.32683849334716797,0.6029214859008789,0.5284309387207031,0.5004205703735352
222,47581816.0,9.068314552307129,-1.358750343322754,2.7953147888183594,-0.06817817687988281,-0.0170440673828125,-0.01810932159423828,-0.32683849334716797,0.6029214859008789,0.5284309387207031,0.5004205703735352
223,47581816.0,9.068314552307129,-1.358750343322754,2.7953147888183594,-0.06817817687988281,-0.0170440673828125,-0.01810932159423828,-0.32683849334716797,0.6029214859008789,0.5284309387207031,0.5004205703735352
224,47581836.0,9.030006408691406,-1.4042415618896484,2.7390499114990234,-0.09054946899414062,-0.013848304748535156,-0.0010652542114257812,-0.32683849334716797,0.6029214859008789,0.5284309387207031,0.5004205703735352
225,47581836.0,9.030006408691406,-1.4042415618896484,2.7390499114990234,-0.09054946899414062,-0.013848304748535156,-0.0010652542114257812,-0.32683849334716797,0.6029214859008789,0.5284309387207031,0.5004205703735352
226,47581956.0,9.022823333740234,-1.4221982955932617,2.7665843963623047,-0.04900360107421875,-0.021305084228515625,-0.0010652542114257812,-0.32683849334716797,0.6029214859008789,0.5284309387207031,0.5004205703735352
227,47581976.0,8.992895126342773,-1.3946647644042969,2.7366552352905273,-0.03835010528564453,-0.01597881317138672,-0.004261016845703125,-0.32683849334716797,0.6029214859008789,0.5284309387207031,0.5004205703735352
228,47581996.0,9.003669738769531,-1.4210014343261719,2.7941179275512695,-0.014913558959960938,-0.020239830017089844,-0.0063915252685546875,-0.32683849334716797,0.6029214859008789,0.5284309387207031,0.5004205703735352
229,47582016.0,8.97613525390625,-1.3982563018798828,2.7629928588867188,-0.014913558959960938,-0.01597881317138672,0.0063915252685546875,-0.32683849334716797,0.6029214859008789,0.5284309387207031,0.5004205703735352
230,47582032.0,9.008458137512207,-1.364736557006836,2.7426414489746094,-0.0170440673828125,-0.021305084228515625,0.012783050537109375,-0.32683849334716797,0.6029214859008789,0.5284309387207031,0.5004205703735352
231,47582056.0,9.088665962219238,-1.387481689453125,2.725881576538086,-0.031958580017089844,-0.014913558959960938,0.024501800537109375,-0.32683849334716797,0.6029214859008789,0.5284309387207031,0.5004205703735352
232,47582076.0,9.051554679870605,-1.3659334182739258,2.72109317779541,-0.02982807159423828,-0.005326271057128906,0.01810932159423828,-0.32683849334716797,0.6029214859008789,0.5284309387207031,0.5004205703735352
233,47582096.0,8.959375381469727,-1.3982563018798828,2.697150230407715,-0.026632308959960938,0.007456779479980469,0.022370338439941406,-0.32683849334716797,0.6029214859008789,0.5284309387207031,0.5004205703735352
234,47582112.0,8.978529930114746,-1.3922700881958008,2.6959524154663086,-0.020239830017089844,-0.004261016845703125,0.021305084228515625,-0.32683849334716797,0.6029214859008789,0.5284309387207031,0.5004205703735352
235,47582136.0,9.061132431030273,-1.3563566207885742,2.718698501586914,-0.0021305084228515625,-0.0170440673828125,0.01810932159423828,-0.32683849334716797,0.6029214859008789,0.5284309387207031,0.5004205703735352
236,47582152.0,9.122185707092285,-1.3144559860229492,2.729473114013672,0.0010652542114257812,-0.022370338439941406,0.009587287902832031,-0.32683849334716797,0.6029214859008789,0.5284309387207031,0.5004205703735352
237,47582176.0,8.953390121459961,-1.351567268371582,2.719895362854004,-0.012783050537109375,0.0,-0.0021305084228515625,-0.32683849334716797,0.6029214859008789,0.5284309387207031,0.5004205703735352
238,47582192.0,8.915081024169922,-1.449732780456543,2.6839818954467773,-0.02769756317138672,-0.0031957626342773438,-0.0063915252685546875,-0.32683849334716797,0.6029214859008789,0.5284309387207031,0.5004205703735352
239,47582212.0,8.99768352508545,-1.4724788665771484,2.743838310241699,-0.0063915252685546875,-0.0170440673828125,-0.005326271057128906,-0.32683849334716797,0.6029214859008789,0.5284309387207031,0.5004205703735352
240,47582232.0,9.081483840942383,-1.347975730895996,2.7139101028442383,0.030893325805664062,-0.022370338439941406,-0.0063915252685546875,-0.32683849334716797,0.6029214859008789,0.5284309387207031,0.5004205703735352
241,47582256.0,9.04437255859375,-1.3312158584594727,2.7306699752807617,0.030893325805664062,-0.022370338439941406,-0.0063915252685546875,-0.32683849334716797,0.6029214859008789,0.5284309387207031,0.5004205703735352
242,47582256.0,9.04437255859375,-1.3312158584594727,2.7306699752807617,0.030893325805664062,-0.022370338439941406,-0.0063915252685546875,-0.32683849334716797,0.6029214859008789,0.5284309387207031,0.5004205703735352
243,47582272.0,8.907898902893066,-1.355158805847168,2.688770294189453,0.030893325805664062,-0.022370338439941406,-0.0063915252685546875,-0.32683849334716797,0.6029214859008789,0.5284309387207031,0.5004205703735352
244,47582272.0,8.907898902893066,-1.355158805847168,2.688770294189453,0.030893325805664062,-0.022370338439941406,-0.0063915252685546875,-0.32683849334716797,0.6029214859008789,0.5284309387207031,0.5004205703735352
245,47582296.0,8.971346855163574,-1.4090299606323242,2.6756019592285156,0.030893325805664062,-0.022370338439941406,-0.0063915252685546875,-0.32683849334716797,0.6029214859008789,0.5284309387207031,0.5004205703735352
246,47582296.0,8.971346855163574,-1.4090299606323242,2.6756019592285156,0.030893325805664062,-0.022370338439941406,-0.0063915252685546875,-0.32683849334716797,0.6029214859008789,0.5284309387207031,0.5004205703735352
247,47582312.0,9.052752494812012,-1.3443851470947266,2.679192543029785,0.030893325805664062,-0.022370338439941406,-0.0063915252685546875,-0.32683849334716797,0.6029214859008789,0.5284309387207031,0.5004205703735352
248,47582312.0,9.052752494812012,-1.3443851470947266,2.679192543029785,0.030893325805664062,-0.022370338439941406,-0.0063915252685546875,-0.32683849334716797,0.6029214859008789,0.5284309387207031,0.5004205703735352
249,47582332.0,9.104228973388672,-1.3084707260131836,2.6660242080688477,0.030893325805664062,-0.022370338439941406,-0.0063915252685546875,-0.32683849334716797,0.6029214859008789,0.5284309387207031,0.5004205703735352
250,47582332.0,9.104228973388672,-1.3084707260131836,2.6660242080688477,0.030893325805664062,-0.022370338439941406,-0.0063915252685546875,-0.32683849334716797,0.6029214859008789,0.5284309387207031,0.5004205703735352
251,47582352.0,9.041977882385254,-1.347975730895996,2.7282752990722656,0.0287628173828125,-0.01597881317138672,-0.030893325805664062,-0.32683849334716797,0.6029214859008789,0.5284309387207031,0.5004205703735352
252,47582376.0,9.041977882385254,-1.3623418807983398,2.6815872192382812,0.00852203369140625,-0.011717796325683594,-0.042611122131347656,-0.32683849334716797,0.6029214859008789,0.5284309387207031,0.5004205703735352
253,47582392.0,9.105425834655762,-1.3443851470947266,2.6756019592285156,0.0021305084228515625,-0.022370338439941406,-0.04793834686279297,-0.32683849334716797,0.6029214859008789,0.5284309387207031,0.5004205703735352
254,47582416.0,9.013246536254883,-1.3946647644042969,2.7246837615966797,-0.014913558959960938,-0.005326271057128906,-0.040480613708496094,-0.32683849334716797,0.6029214859008789,0.5284309387207031,0.5004205703735352
255,47582432.0,8.935432434082031,-1.3994531631469727,2.6684188842773438,-0.022370338439941406,0.0021305084228515625,-0.026632308959960938,-0.32683849334716797,0.6029214859008789,0.5284309387207031,0.5004205703735352
256,47582552.0,8.99409294128418,-1.3192453384399414,2.6121530532836914,-0.03515434265136719,-0.013848304748535156,0.0,-0.32683849334716797,0.6029214859008789,0.5284309387207031,0.5004205703735352
257,47582552.0,8.99409294128418,-1.3192453384399414,2.6121530532836914,-0.03515434265136719,-0.013848304748535156,0.0,-0.32683849334716797,0.6029214859008789,0.5284309387207031,0.5004205703735352
258,47582572.0,9.124580383300781,-1.2677679061889648,2.625321388244629,-0.005326271057128906,-0.019174575805664062,-0.010652542114257812,-0.32683849334716797,0.6029214859008789,0.5284309387207031,0.5004205703735352
259,47582572.0,9.124580383300781,-1.2677679061889648,2.625321388244629,-0.005326271057128906,-0.019174575805664062,-0.010652542114257812,-0.32683849334716797,0.6029214859008789,0.5284309387207031,0.5004205703735352
260,47582592.0,9.11500358581543,-1.1923484802246094,2.6408843994140625,-0.0063915252685546875,-0.014913558959960938,-0.007456779479980469,-0.32683849334716797,0.6029214859008789,0.5284309387207031,0.5004205703735352
261,47582592.0,9.11500358581543,-1.1923484802246094,2.6408843994140625,-0.0063915252685546875,-0.014913558959960938,-0.007456779479980469,-0.32683849334716797,0.6029214859008789,0.5284309387207031,0.5004205703735352
262,47582612.0,9.015641212463379,-1.2545995712280273,2.6420812606811523,-0.030893325805664062,0.0010652542114257812,0.0031957626342773438,-0.32683849334716797,0.6029214859008789,0.5284309387207031,0.5004205703735352
263,47582612.0,9.015641212463379,-1.2545995712280273,2.6420812606811523,-0.030893325805664062,0.0010652542114257812,0.0031957626342773438,-0.32683849334716797,0.6029214859008789,0.5284309387207031,0.5004205703735352
264,47582632.0,9.09345531463623,-1.2593879699707031,2.6432790756225586,-0.05539512634277344,-0.010652542114257812,0.0170440673828125,-0.32683849334716797,0.6029214859008789,0.5284309387207031,0.5004205703735352
265,47582632.0,9.09345531463623,-1.2593879699707031,2.6432790756225586,-0.05539512634277344,-0.010652542114257812,0.0170440673828125,-0.32683849334716797,0.6029214859008789,0.5284309387207031,0.5004205703735352
266,47582752.0,9.050357818603516,-1.2210798263549805,2.5056076049804688,-0.02769756317138672,-0.022370338439941406,-0.005326271057128906,-0.32161617279052734,0.6064176559448242,0.5175981521606445,0.5108222961425781
267,47582772.0,9.012049674987793,-1.3360052108764648,2.5415220260620117,-0.02769756317138672,-0.022370338439941406,-0.005326271057128906,-0.32161617279052734,0.6064176559448242,0.5175981521606445,0.5108222961425781
268,47582792.0,8.942615509033203,-1.3671302795410156,2.5175790786743164,-0.02769756317138672,-0.022370338439941406,-0.005326271057128906,-0.32161617279052734,0.6064176559448242,0.5175981521606445,0.5108222961425781
269,47582812.0,9.091060638427734,-1.3204421997070312,2.566661834716797,-0.02769756317138672,-0.022370338439941406,-0.005326271057128906,-0.32161617279052734,0.6064176559448242,0.5175981521606445,0.5108222961425781
270,47582832.0,9.208379745483398,-1.3072738647460938,2.595393180847168,-0.02769756317138672,-0.022370338439941406,-0.005326271057128906,-0.32161617279052734,0.6064176559448242,0.5175981521606445,0.5108222961425781
271,47582852.0,8.972543716430664,-1.3383989334106445,2.656447410583496,-0.10439872741699219,-0.023435592651367188,-0.025567054748535156,-0.32161617279052734,0.6064176559448242,0.5175981521606445,0.5108222961425781
272,47582872.0,8.991698265075684,-1.5215606689453125,2.625321388244629,-0.13422679901123047,-0.02982807159423828,-0.024501800537109375,-0.32161617279052734,0.6064176559448242,0.5175981521606445,0.5108222961425781
273,47582892.0,9.032401084899902,-1.5778264999389648,2.688770294189453,-0.11398601531982422,-0.042611122131347656,-0.011717796325683594,-0.32161617279052734,0.6064176559448242,0.5175981521606445,0.5108222961425781
274,47582912.0,9.173663139343262,-1.674795150756836,2.9509429931640625,-0.07563591003417969,-0.030893325805664062,0.005326271057128906,-0.32161617279052734,0.6064176559448242,0.5175981521606445,0.5108222961425781
275,47582932.0,9.410696029663086,-1.2055168151855469,3.08382511138916,-0.10652923583984375,-0.03728485107421875,0.033023834228515625,-0.32161617279052734,0.6064176559448242,0.5175981521606445,0.5108222961425781
276,47582952.0,9.338868141174316,-0.7925043106079102,3.8200645446777344,-0.23329925537109375,0.020239830017089844,0.1097249984741211,-0.32161617279052734,0.6064176559448242,0.5175981521606445,0.5108222961425781
277,47582972.0,10.21756649017334,0.5423030853271484,4.613766670227051,-0.7457075119018555,0.1033334732055664,0.20027542114257812,-0.32161617279052734,0.6064176559448242,0.5175981521606445,0.5108222961425781
278,47582992.0,10.3372802734375,-0.12689590454101562,4.27377986907959,-1.3912773132324219,0.3984203338623047,0.40055084228515625,-0.32161617279052734,0.6064176559448242,0.5175981521606445,0.5108222961425781
279,47583012.0,10.228341102600098,-1.544306755065918,5.500845909118652,-2.6685686111450195,0.8000373840332031,0.7041606903076172,-0.32161617279052734,0.6064176559448242,0.5175981521606445,0.5108222961425781
280,47583032.0,10.920286178588867,-2.7749643325805664,5.241066932678223,-4.416720390319824,1.2719640731811523,0.9331998825073242,-0.32161617279052734,0.6064176559448242,0.5175981521606445,0.5108222961425781
281,47583152.0,11.984541893005371,-16.125438690185547,4.948965072631836,-4.028952598571777,1.4605216979980469,4.52431583404541,-0.32161617279052734,0.6064176559448242,0.5175981521606445,0.5108222961425781
282,47583168.0,11.656525611877441,-17.1585693359375,2.340402603149414,-2.042173385620117,1.2240257263183594,5.210367202758789,-0.32161617279052734,0.6064176559448242,0.5175981521606445,0.5108222961425781
283,47583192.0,11.350058555603027,-18.149799346923828,0.646453857421875,-0.6253290176391602,0.9214811325073242,5.96885871887207,-0.32161617279052734,0.6064176559448242,0.5175981521606445,0.5108222961425781
284,47583208.0,10.670084953308105,-17.016109466552734,-0.5243453979492188,-0.2940216064453125,0.5060157775878906,6.600579261779785,-0.32161617279052734,0.6064176559448242,0.5175981521606445,0.5108222961425781
285,47583232.0,8.561925888061523,-13.546805381774902,-0.6308908462524414,-0.19494915008544922,0.12250900268554688,6.934017181396484,-0.32161617279052734,0.6064176559448242,0.5175981521606445,0.5108222961425781
286,47583248.0,5.01361083984375,-11.758282661437988,-1.1540403366088867,0.25034427642822266,0.20027542114257812,7.059721946716309,-0.32161617279052734,0.6064176559448242,0.5175981521606445,0.5108222961425781
287,47583272.0,3.3567724227905273,-9.532804489135742,-1.5059986114501953,1.1185617446899414,0.12783527374267578,7.005392074584961,-0.32161617279052734,0.6064176559448242,0.5175981521606445,0.5108222961425781
288,47583272.0,3.3567724227905273,-9.532804489135742,-1.5059986114501953,1.1185617446899414,0.12783527374267578,7.005392074584961,-0.32161617279052734,0.6064176559448242,0.5175981521606445,0.5108222961425781
289,47583288.0,2.8348207473754883,-6.7075605392456055,-2.159635543823242,1.2027196884155273,-0.09694194793701172,7.016045570373535,-0.32161617279052734,0.6064176559448242,0.5175981521606445,0.5108222961425781
290,47583288.0,2.8348207473754883,-6.7075605392456055,-2.159635543823242,1.2027196884155273,-0.09694194793701172,7.016045570373535,-0.32161617279052734,0.6064176559448242,0.5175981521606445,0.5108222961425781
291,47583308.0,1.3419904708862305,-2.8623552322387695,-2.4469480514526367,0.15233707427978516,-0.29082584381103516,7.046938896179199,-0.32161617279052734,0.6064176559448242,0.5175981521606445,0.5108222961425781
292,47583308.0,1.3419904708862305,-2.8623552322387695,-2.4469480514526367,0.15233707427978516,-0.29082584381103516,7.046938896179199,-0.32161617279052734,0.6064176559448242,0.5175981521606445,0.5108222961425781
293,47583328.0,-0.9756660461425781,-4.292934417724609,-1.1911516189575195,-0.2546052932739258,-0.22584247589111328,6.671954154968262,-0.32161617279052734,0.6064176559448242,0.5175981521606445,0.5108222961425781
294,47583328.0,-0.9756660461425781,-4.292934417724609,-1.1911516189575195,-0.2546052932739258,-0.22584247589111328,6.671954154968262,-0.32161617279052734,0.6064176559448242,0.5175981521606445,0.5108222961425781
295,47583568.0,-7.2857770919799805,-4.314482688903809,0.9074296951293945,-0.9577016830444336,-0.19814491271972656,3.3961658477783203,0.5782356262207031,-0.00591278076171875,0.7791376113891602,0.24211788177490234
296,47583588.0,-8.012439727783203,-2.6432790756225586,0.9756660461425781,-0.9577016830444336,-0.19814491271972656,3.3961658477783203,0.5782356262207031,-0.00591278076171875,0.7791376113891602,0.24211788177490234
297,47583608.0,-8.369186401367188,-3.9768896102905273,2.1165380477905273,-0.9577016830444336,-0.19814491271972656,3.3961658477783203,0.5782356262207031,-0.00591278076171875,0.7791376113891602,0.24211788177490234
298,47583628.0,-9.353233337402344,-5.407468795776367,0.4920225143432617,-0.9577016830444336,-0.19814491271972656,3.3961658477783203,0.5782356262207031,-0.00591278076171875,0.7791376113891602,0.24211788177490234
299,47583648.0,-9.42625904083252,-4.647286415100098,2.4253997802734375,-0.9577016830444336,-0.19814491271972656,3.3961658477783203,0.5782356262207031,-0.00591278076171875,0.7791376113891602,0.24211788177490234
300,47583668.0,-11.737931251525879,7.7490692138671875,-32.523826599121094,-0.15127182006835938,1.0120315551757812,1.1334753036499023,0.5782356262207031,-0.00591278076171875,0.7791376113891602,0.24211788177490234
301,47583668.0,-11.737931251525879,7.7490692138671875,-32.523826599121094,-0.15127182006835938,1.0120315551757812,1.1334753036499023,0.5782356262207031,-0.00591278076171875,0.7791376113891602,0.24211788177490234
302,47583688.0,3.5100059509277344,6.810513496398926,34.37340545654297,0.9055023193359375,2.3830690383911133,2.0922422409057617,0.5782356262207031,-0.00591278076171875,0.7791376113891602,0.24211788177490234
303,47583688.0,3.5100059509277344,6.810513496398926,34.37340545654297,0.9055023193359375,2.3830690383911133,2.0922422409057617,0.5782356262207031,-0.00591278076171875,0.7791376113891602,0.24211788177490234
304,47583708.0,-0.3016777038574219,4.588626861572266,-5.984489440917969,-5.820781707763672,0.3387641906738281,-0.02769756317138672,0.5782356262207031,-0.00591278076171875,0.7791376113891602,0.24211788177490234
305,47583708.0,-0.3016777038574219,4.588626861572266,-5.984489440917969,-5.820781707763672,0.3387641906738281,-0.02769756317138672,0.5782356262207031,-0.00591278076171875,0.7791376113891602,0.24211788177490234
306,47583728.0,-16.902381896972656,-6.168848037719727,-8.947403907775879,-3.122385025024414,2.701592445373535,-0.4218568801879883,0.5782356262207031,-0.00591278076171875,0.7791376113891602,0.24211788177490234
307,47583728.0,-16.902381896972656,-6.168848037719727,-8.947403907775879,-3.122385025024414,2.701592445373535,-0.4218568801879883,0.5782356262207031,-0.00591278076171875,0.7791376113891602,0.24211788177490234
308,47583748.0,-9.811737060546875,-6.126948356628418,-3.374730110168457,-0.2130584716796875,0.28443336486816406,-0.4889707565307617,0.5782356262207031,-0.00591278076171875,0.7791376113891602,0.24211788177490234
309,47583748.0,-9.811737060546875,-6.126948356628418,-3.374730110168457,-0.2130584716796875,0.28443336486816406,-0.4889707565307617,0.5782356262207031,-0.00591278076171875,0.7791376113891602,0.24211788177490234
310,47583768.0,-5.235080718994141,-1.7921142578125,-4.019987106323242,-0.2130584716796875,0.28443336486816406,-0.4889707565307617,0.5782356262207031,-0.00591278076171875,0.7791376113891602,0.24211788177490234
311,47583788.0,-7.087052345275879,-1.8986597061157227,0.019153594970703125,-0.2130584716796875,0.28443336486816406,-0.4889707565307617,0.5782356262207031,-0.00591278076171875,0.7791376113891602,0.24211788177490234
312,47583808.0,-6.5184125900268555,-5.006427764892578,-0.43815135955810547,-0.2130584716796875,0.28443336486816406,-0.4889707565307617,0.5782356262207031,-0.00591278076171875,0.7791376113891602,0.24211788177490234
313,47583828.0,-4.629329681396484,-4.904671669006348,-2.5091991424560547,-0.2130584716796875,0.28443336486816406,-0.4889707565307617,0.5782356262207031,-0.00591278076171875,0.7791376113891602,0.24211788177490234
314,47583848.0,-5.01600456237793,-3.063473701477051,-2.449342727661133,-0.2130584716796875,0.28443336486816406,-0.4889707565307617,0.5782356262207031,-0.00591278076171875,0.7791376113891602,0.24211788177490234
315,47583868.0,-4.860377311706543,-2.3380088806152344,-1.4317760467529297,0.8927183151245117,-3.3386402130126953,-1.8024816513061523,0.5782356262207031,-0.00591278076171875,0.7791376113891602,0.24211788177490234
316,47583888.0,-3.6644372940063477,-2.212308883666992,0.48723411560058594,-0.2652587890625,-4.100327491760254,-1.9984970092773438,0.5782356262207031,-0.00591278076171875,0.7791376113891602,0.24211788177490234
317,47583908.0,-1.7969026565551758,-2.9509429931640625,0.5279369354248047,-1.5532026290893555,-4.689436912536621,-2.389460563659668,0.5782356262207031,-0.00591278076171875,0.7791376113891602,0.24211788177490234
318,47583928.0,-1.1743907928466797,-4.685595512390137,-0.07422161102294922,-1.7257804870605469,-4.536033630371094,-2.8645830154418945,0.5782356262207031,-0.00591278076171875,0.7791376113891602,0.24211788177490234
319,47583948.0,-1.2450227737426758,-4.286948204040527,-0.02154827117919922,-1.0802106857299805,-4.277166366577148,-3.330118179321289,0.5782356262207031,-0.00591278076171875,0.7791376113891602,0.24211788177490234
320,47583968.0,-0.3124523162841797,-2.409836769104004,1.661625862121582,-1.0802106857299805,-4.277166366577148,-3.330118179321289,0.5782356262207031,-0.00591278076171875,0.7791376113891602,0.24211788177490234
321,47583988.0,1.2246713638305664,-1.142068862915039,4.697566032409668,-1.0802106857299805,-4.277166366577148,-3.330118179321289,0.5782356262207031,-0.00591278076171875,0.7791376113891602,0.24211788177490234
322,47584008.0,2.440962791442871,-2.0315418243408203,5.854001045227051,-1.0802106857299805,-4.277166366577148,-3.330118179321289,0.5782356262207031,-0.00591278076171875,0.7791376113891602,0.24211788177490234
323,47584028.0,2.2649831771850586,-3.932596206665039,5.25543212890625,-1.0802106857299805,-4.277166366577148,-3.330118179321289,0.5782356262207031,-0.00591278076171875,0.7791376113891602,0.24211788177490234
324,47584048.0,2.4936370849609375,-3.1628360748291016,5.645699501037598,-1.0802106857299805,-4.277166366577148,-3.330118179321289,0.5782356262207031,-0.00591278076171875,0.7791376113891602,0.24211788177490234
325,47584068.0,3.131711006164551,-0.2897071838378906,9.360416412353516,2.983896255493164,-3.749844551086426,-5.387206077575684,0.5782356262207031,-0.00591278076171875,0.7791376113891602,0.24211788177490234
326,47584088.0,3.700350761413574,2.6432790756225586,9.88595962524414,1.1111040115356445,-4.1333513259887695,-5.064420700073242,0.5782356262207031,-0.00591278076171875,0.7791376113891602,0.24211788177490234
327,47584108.0,5.32366943359375,-1.0283403396606445,6.226310729980469,-3.343966484069824,-4.335758209228516,-5.099575996398926,0.5782356262207031,-0.00591278076171875,0.7791376113891602,0.24211788177490234
328,47584128.0,8.778607368469238,-15.426311492919922,7.042758941650391,-5.847414016723633,-3.3269214630126953,-5.154971122741699,0.5782356262207031,-0.00591278076171875,0.7791376113891602,0.24211788177490234
329,47584144.0,8.229122161865234,-14.455432891845703,8.781002044677734,-2.331934928894043,-1.6533403396606445,-5.559783935546875,0.5782356262207031,-0.00591278076171875,0.7791376113891602,0.24211788177490234
330,47584268.0,22.994613647460938,-4.174417495727539,4.556303977966309,-2.328738212585449,-2.4288768768310547,-5.56511116027832,-0.36313533782958984,0.4604988098144531,0.6806068420410156,0.43909263610839844
331,47584288.0,22.68335723876953,-5.996460914611816,6.247859001159668,-2.328738212585449,-2.4288768768310547,-5.56511116027832,-0.36313533782958984,0.4604988098144531,0.6806068420410156,0.43909263610839844
332,47584308.0,17.626649856567383,-5.043539047241211,3.2657899856567383,-2.328738212585449,-2.4288768768310547,-5.56511116027832,-0.36313533782958984,0.4604988098144531,0.6806068420410156,0.43909263610839844
333,47584328.0,13.825738906860352,-4.952556610107422,0.4513206481933594,-2.328738212585449,-2.4288768768310547,-5.56511116027832,-0.36313533782958984,0.4604988098144531,0.6806068420410156,0.43909263610839844
334,47584344.0,11.500898361206055,-6.906285285949707,2.8862972259521484,-2.328738212585449,-2.4288768768310547,-5.56511116027832,-0.36313533782958984,0.4604988098144531,0.6806068420410156,0.43909263610839844
335,47584368.0,9.440624237060547,-4.739466667175293,4.218711853027344,-2.328738212585449,-2.4288768768310547,-5.56511116027832,-0.36313533782958984,0.4604988098144531,0.6806068420410156,0.43909263610839844
336,47584368.0,9.440624237060547,-4.739466667175293,4.218711853027344,-2.328738212585449,-2.4288768768310547,-5.56511116027832,-0.36313533782958984,0.4604988098144531,0.6806068420410156,0.43909263610839844
337,47584384.0,9.02641487121582,-2.029147148132324,4.591021537780762,-2.328738212585449,-2.4288768768310547,-5.56511116027832,-0.36313533782958984,0.4604988098144531,0.6806068420410156,0.43909263610839844
338,47584384.0,9.02641487121582,-2.029147148132324,4.591021537780762,-2.328738212585449,-2.4288768768310547,-5.56511116027832,-0.36313533782958984,0.4604988098144531,0.6806068420410156,0.43909263610839844
339,47584408.0,9.845256805419922,-1.668808937072754,3.470500946044922,-2.328738212585449,-2.4288768768310547,-5.56511116027832,-0.36313533782958984,0.4604988098144531,0.6806068420410156,0.43909263610839844
340,47584408.0,9.845256805419922,-1.668808937072754,3.470500946044922,-2.328738212585449,-2.4288768768310547,-5.56511116027832,-0.36313533782958984,0.4604988098144531,0.6806068420410156,0.43909263610839844
341,47584424.0,9.440624237060547,-1.9561223983764648,3.0562915802001953,-2.328738212585449,-2.4288768768310547,-5.56511116027832,-0.36313533782958984,0.4604988098144531,0.6806068420410156,0.43909263610839844
342,47584424.0,9.440624237060547,-1.9561223983764648,3.0562915802001953,-2.328738212585449,-2.4288768768310547,-5.56511116027832,-0.36313533782958984,0.4604988098144531,0.6806068420410156,0.43909263610839844
343,47584444.0,8.652908325195312,-2.260194778442383,2.7043323516845703,-2.328738212585449,-2.4288768768310547,-5.56511116027832,-0.36313533782958984,0.4604988098144531,0.6806068420410156,0.43909263610839844
344,47584444.0,8.652908325195312,-2.260194778442383,2.7043323516845703,-2.328738212585449,-2.4288768768310547,-5.56511116027832,-0.36313533782958984,0.4604988098144531,0.6806068420410156,0.43909263610839844
345,47584568.0,9.199999809265137,-0.10055923461914062,1.9585161209106445,-2.328738212585449,-2.4288768768310547,-5.56511116027832,-0.36313533782958984,0.4604988098144531,0.6806068420410156,0.43909263610839844
346,47584584.0,9.268237113952637,-0.6548337936401367,1.6017694473266602,-2.328738212585449,-2.4288768768310547,-5.56511116027832,-0.36313533782958984,0.4604988098144531,0.6806068420410156,0.43909263610839844
347,47584608.0,9.486115455627441,-0.773350715637207,1.423396110534668,-2.328738212585449,-2.4288768768310547,-5.56511116027832,-0.36313533782958984,0.4604988098144531,0.6806068420410156,0.43909263610839844
348,47584624.0,9.463370323181152,-0.3998432159423828,1.5874032974243164,-2.328738212585449,-2.4288768768310547,-5.56511116027832,-0.36313533782958984,0.4604988098144531,0.6806068420410156,0.43909263610839844
349,47584648.0,9.489706993103027,-0.4788541793823242,2.0554847717285156,-2.328738212585449,-2.4288768768310547,-5.56511116027832,-0.36313533782958984,0.4604988098144531,0.6806068420410156,0.43909263610839844
350,47584764.0,9.219154357910156,-0.6416654586791992,2.1428756713867188,0.1661853790283203,-0.08841896057128906,0.2950868606567383,-0.37064456939697266,0.5746097564697266,0.5379257202148438,0.4930410385131836
351,47584784.0,9.053949356079102,-0.9613008499145508,2.280546188354492,0.1661853790283203,-0.08841896057128906,0.2950868606567383,-0.3705577850341797,0.5725383758544922,0.5401697158813477,0.4930410385131836
352,47584804.0,9.289785385131836,-1.073831558227539,2.5307483673095703,0.1661853790283203,-0.08841896057128906,0.2950868606567383,-0.3704719543457031,0.5707254409790039,0.5418100357055664,0.49338626861572266
353,47584824.0,9.507664680480957,-1.0055952072143555,2.284137725830078,0.1661853790283203,-0.08841896057128906,0.2950868606567383,-0.37094688415527344,0.5689992904663086,0.5431909561157227,0.4935150146484375
354,47584844.0,9.252674102783203,-0.8786983489990234,2.1021728515625,0.1661853790283203,-0.08841896057128906,0.2950868606567383,-0.37116241455078125,0.5676612854003906,0.5442695617675781,0.4937314987182617
355,47584964.0,9.070709228515625,-1.1468572616577148,2.2506179809570312,0.03621959686279297,-0.052199363708496094,-0.04687213897705078,-0.37116241455078125,0.5676612854003906,0.5442695617675781,0.4937314987182617
356,47584964.0,9.070709228515625,-1.1468572616577148,2.2506179809570312,0.03621959686279297,-0.052199363708496094,-0.04687213897705078,-0.37116241455078125,0.5676612854003906,0.5442695617675781,0.4937314987182617
357,47584964.0,9.070709228515625,-1.1468572616577148,2.2506179809570312,0.03621959686279297,-0.052199363708496094,-0.04687213897705078,-0.37116241455078125,0.5676612854003906,0.5442695617675781,0.4937314987182617
358,47584984.0,9.19640827178955,-1.0881977081298828,2.3236427307128906,0.03621959686279297,-0.052199363708496094,-0.04687213897705078,-0.37116241455078125,0.5676612854003906,0.5442695617675781,0.4937314987182617
359,47584984.0,9.19640827178955,-1.0881977081298828,2.3236427307128906,0.03621959686279297,-0.052199363708496094,-0.04687213897705078,-0.37116241455078125,0.5676612854003906,0.5442695617675781,0.4937314987182617
360,47584984.0,9.19640827178955,-1.0881977081298828,2.3236427307128906,0.03621959686279297,-0.052199363708496094,-0.04687213897705078,-0.37116241455078125,0.5676612854003906,0.5442695617675781,0.4937314987182617
361,47585004.0,9.050357818603516,-1.1372804641723633,2.1787891387939453,0.03621959686279297,-0.052199363708496094,-0.04687213897705078,-0.37116241455078125,0.5676612854003906,0.5442695617675781,0.4937314987182617
362,47585004.0,9.050357818603516,-1.1372804641723633,2.1787891387939453,0.03621959686279297,-0.052199363708496094,-0.04687213897705078,-0.37116241455078125,0.5676612854003906,0.5442695617675781,0.4937314987182617
363,47585004.0,9.050357818603516,-1.1372804641723633,2.1787891387939453,0.03621959686279297,-0.052199363708496094,-0.04687213897705078,-0.37116241455078125,0.5676612854003906,0.5442695617675781,0.4937314987182617
364,47585024.0,8.960572242736816,-1.322835922241211,2.163227081298828,0.03621959686279297,-0.052199363708496094,-0.04687213897705078,-0.37116241455078125,0.5676612854003906,0.5442695617675781,0.4937314987182617
365,47585024.0,8.960572242736816,-1.322835922241211,2.163227081298828,0.03621959686279297,-0.052199363708496094,-0.04687213897705078,-0.37116241455078125,0.5676612854003906,0.5442695617675781,0.4937314987182617
366,47585024.0,8.960572242736816,-1.322835922241211,2.163227081298828,0.03621959686279297,-0.052199363708496094,-0.04687213897705078,-0.37116241455078125,0.5676612854003906,0.5442695617675781,0.4937314987182617
367,47585044.0,9.190423011779785,-1.2150936126708984,2.317657470703125,0.03621959686279297,-0.052199363708496094,-0.04687213897705078,-0.37116241455078125,0.5676612854003906,0.5442695617675781,0.4937314987182617
368,47585044.0,9.190423011779785,-1.2150936126708984,2.317657470703125,0.03621959686279297,-0.052199363708496094,-0.04687213897705078,-0.37116241455078125,0.5676612854003906,0.5442695617675781,0.4937314987182617
369,47585044.0,9.190423011779785,-1.2150936126708984,2.317657470703125,0.03621959686279297,-0.052199363708496094,-0.04687213897705078,-0.37116241455078125,0.5676612854003906,0.5442695617675781,0.4937314987182617
370,47585164.0,9.364007949829102,-1.1109428405761719,1.9896421432495117,-0.10759449005126953,-0.007456779479980469,-0.21092796325683594,-0.37116241455078125,0.5676612854003906,0.5442695617675781,0.4937314987182617
371,47585184.0,9.270630836486816,-1.2103052139282227,2.006402015686035,-0.12037849426269531,0.0,-0.17577362060546875,-0.37116241455078125,0.5676612854003906,0.5442695617675781,0.4937314987182617
372,47585204.0,9.445413589477539,-1.204319953918457,2.150057792663574,-0.054329872131347656,-0.0287628173828125,-0.15127182006835938,-0.37116241455078125,0.5676612854003906,0.5442695617675781,0.4937314987182617
373,47585224.0,9.488510131835938,-1.0403118133544922,2.073441505432129,-0.005326271057128906,-0.033023834228515625,-0.11611652374267578,-0.37116241455078125,0.5676612854003906,0.5442695617675781,0.4937314987182617
374,47585244.0,9.249082565307617,-0.9481325149536133,1.9704875946044922,0.019174575805664062,0.013848304748535156,-0.06711292266845703,-0.37116241455078125,0.5676612854003906,0.5442695617675781,0.4937314987182617
375,47585264.0,9.228731155395508,-1.054677963256836,2.096186637878418,0.019174575805664062,0.013848304748535156,-0.06711292266845703,-0.37116241455078125,0.5676612854003906,0.5442695617675781,0.4937314987182617
376,47585264.0,9.228731155395508,-1.054677963256836,2.096186637878418,0.019174575805664062,0.013848304748535156,-0.06711292266845703,-0.37116241455078125,0.5676612854003906,0.5442695617675781,0.4937314987182617
377,47585284.0,9.276617050170898,-1.0271434783935547,2.193155288696289,0.019174575805664062,0.013848304748535156,-0.06711292266845703,-0.37116241455078125,0.5676612854003906,0.5442695617675781,0.4937314987182617
378,47585284.0,9.276617050170898,-1.0271434783935547,2.193155288696289,0.019174575805664062,0.013848304748535156,-0.06711292266845703,-0.37116241455078125,0.5676612854003906,0.5442695617675781,0.4937314987182617
379,47585304.0,9.168874740600586,-0.9577093124389648,2.130904197692871,0.019174575805664062,0.013848304748535156,-0.06711292266845703,-0.37116241455078125,0.5676612854003906,0.5442695617675781,0.4937314987182617
380,47585304.0,9.168874740600586,-0.9577093124389648,2.130904197692871,0.019174575805664062,0.013848304748535156,-0.06711292266845703,-0.37116241455078125,0.5676612854003906,0.5442695617675781,0.4937314987182617
381,47585324.0,9.055146217346191,-0.7829275131225586,2.0159788131713867,0.019174575805664062,0.013848304748535156,-0.06711292266845703,-0.37116241455078125,0.5676612854003906,0.5442695617675781,0.4937314987182617
382,47585324.0,9.055146217346191,-0.7829275131225586,2.0159788131713867,0.019174575805664062,0.013848304748535156,-0.06711292266845703,-0.37116241455078125,0.5676612854003906,0.5442695617675781,0.4937314987182617
383,47585344.0,8.962966918945312,-0.8894729614257812,2.0830183029174805,0.019174575805664062,0.013848304748535156,-0.06711292266845703,-0.37116241455078125,0.5676612854003906,0.5442695617675781,0.4937314987182617
384,47585344.0,8.962966918945312,-0.8894729614257812,2.0830183029174805,0.019174575805664062,0.013848304748535156,-0.06711292266845703,-0.37116241455078125,0.5676612854003906,0.5442695617675781,0.4937314987182617
385,47585364.0,9.136551856994629,-0.9385547637939453,2.038724899291992,-0.10865974426269531,0.033023834228515625,0.09054946899414062,-0.37116241455078125,0.5676612854003906,0.5442695617675781,0.4937314987182617
386,47585384.0,9.229928970336914,-0.8858814239501953,2.0243587493896484,-0.0862884521484375,0.00852203369140625,0.061786651611328125,-0.37116241455078125,0.5676612854003906,0.5442695617675781,0.4937314987182617
387,47585404.0,8.95578384399414,-0.8535585403442383,1.9513330459594727,-0.06391716003417969,0.04793834686279297,0.04687213897705078,-0.37116241455078125,0.5676612854003906,0.5442695617675781,0.4937314987182617
388,47585424.0,8.952192306518555,-0.9768638610839844,1.880702018737793,-0.06498241424560547,0.041545867919921875,0.02982807159423828,-0.37116241455078125,0.5676612854003906,0.5442695617675781,0.4937314987182617
389,47585444.0,8.99648666381836,-0.8487701416015625,1.9333763122558594,-0.034089088439941406,0.005326271057128906,0.024501800537109375,-0.37116241455078125,0.5676612854003906,0.5442695617675781,0.4937314987182617
390,47585464.0,8.909095764160156,-0.8284187316894531,1.8663368225097656,-0.034089088439941406,0.005326271057128906,0.024501800537109375,-0.37116241455078125,0.5676612854003906,0.5442695617675781,0.4937314987182617
391,47585464.0,8.909095764160156,-0.8284187316894531,1.8663368225097656,-0.034089088439941406,0.005326271057128906,0.024501800537109375,-0.37116241455078125,0.5676612854003906,0.5442695617675781,0.4937314987182617
392,47585484.0,8.831281661987305,-0.9170064926147461,1.886688232421875,-0.034089088439941406,0.005326271057128906,0.024501800537109375,-0.37116241455078125,0.5676612854003906,0.5442695617675781,0.4937314987182617
393,47585484.0,8.831281661987305,-0.9170064926147461,1.886688232421875,-0.034089088439941406,0.005326271057128906,0.024501800537109375,-0.37116241455078125,0.5676612854003906,0.5442695617675781,0.4937314987182617
394,47585504.0,9.016838073730469,-0.9194011688232422,1.9668960571289062,-0.034089088439941406,0.005326271057128906,0.024501800537109375,-0.37116241455078125,0.5676612854003906,0.5442695617675781,0.4937314987182617
395,47585504.0,9.016838073730469,-0.9194011688232422,1.9668960571289062,-0.034089088439941406,0.005326271057128906,0.024501800537109375,-0.37116241455078125,0.5676612854003906,0.5442695617675781,0.4937314987182617
396,47585520.0,9.252674102783203,-0.8128557205200195,2.038724899291992,-0.034089088439941406,0.005326271057128906,0.024501800537109375,-0.37116241455078125,0.5676612854003906,0.5442695617675781,0.4937314987182617
397,47585520.0,9.252674102783203,-0.8128557205200195,2.038724899291992,-0.034089088439941406,0.005326271057128906,0.024501800537109375,-0.37116241455078125,0.5676612854003906,0.5442695617675781,0.4937314987182617
398,47585544.0,9.277813911437988,-0.8200387954711914,1.9836559295654297,-0.034089088439941406,0.005326271057128906,0.024501800537109375,-0.37116241455078125,0.5676612854003906,0.5442695617675781,0.4937314987182617
399,47585544.0,9.277813911437988,-0.8200387954711914,1.9836559295654297,-0.034089088439941406,0.005326271057128906,0.024501800537109375,-0.37116241455078125,0.5676612854003906,0.5442695617675781,0.4937314987182617
400,47585560.0,9.226337432861328,-0.8691215515136719,1.9573192596435547,-0.03835010528564453,-0.007456779479980469,-0.04793834686279297,-0.37116241455078125,0.5676612854003906,0.5442695617675781,0.4937314987182617
401,47585584.0,9.465764999389648,-0.9062328338623047,2.0255556106567383,-0.08309268951416016,-0.0170440673828125,-0.030893325805664062,-0.37116241455078125,0.5676612854003906,0.5442695617675781,0.4937314987182617
402,47585600.0,9.589069366455078,-0.8631353378295898,1.9896421432495117,-0.07883167266845703,-0.03728485107421875,-0.0021305084228515625,-0.37116241455078125,0.5676612854003906,0.5442695617675781,0.4937314987182617
403,47585620.0,9.389147758483887,-0.920598030090332,1.915419578552246,-0.0745706558227539,0.0021305084228515625,0.03728485107421875,-0.37116241455078125,0.5676612854003906,0.5442695617675781,0.4937314987182617
404,47585640.0,9.308939933776855,-0.894261360168457,2.0159788131713867,-0.05539512634277344,0.0021305084228515625,0.05113410949707031,-0.37116241455078125,0.5676612854003906,0.5442695617675781,0.4937314987182617
405,47585864.0,9.088665962219238,-1.1277027130126953,2.285334587097168,-0.01597881317138672,0.020239830017089844,0.10013771057128906,-0.37319087982177734,0.5733156204223633,0.5297250747680664,0.5014562606811523
406,47585864.0,9.088665962219238,-1.1277027130126953,2.285334587097168,-0.01597881317138672,0.020239830017089844,0.10013771057128906,-0.37319087982177734,0.5733156204223633,0.5297250747680664,0.5014562606811523
407,47585880.0,9.124580383300781,-1.1217174530029297,2.29251766204834,-0.014913558959960938,0.013848304748535156,0.09374523162841797,-0.37319087982177734,0.5733156204223633,0.5297250747680664,0.5014562606811523
408,47585880.0,9.124580383300781,-1.1217174530029297,2.29251766204834,-0.014913558959960938,0.013848304748535156,0.09374523162841797,-0.37319087982177734,0.5733156204223633,0.5297250747680664,0.5014562606811523
409,47585900.0,9.041977882385254,-1.1612224578857422,2.218295097351074,0.03621959686279297,0.024501800537109375,0.08202743530273438,-0.37319087982177734,0.5733156204223633,0.5297250747680664,0.5014562606811523
410,47585900.0,9.041977882385254,-1.1612224578857422,2.218295097351074,0.03621959686279297,0.024501800537109375,0.08202743530273438,-0.37319087982177734,0.5733156204223633,0.5297250747680664,0.5014562606811523
411,47585920.0,9.141340255737305,-1.1336889266967773,2.2099151611328125,0.03621959686279297,0.023435592651367188,0.07563591003417969,-0.37319087982177734,0.5733156204223633,0.5297250747680664,0.5014562606811523
412,47585920.0,9.141340255737305,-1.1336889266967773,2.2099151611328125,0.03621959686279297,0.023435592651367188,0.07563591003417969,-0.37319087982177734,0.5733156204223633,0.5297250747680664,0.5014562606811523
413,47585940.0,9.231125831604004,-1.1265058517456055,2.2170982360839844,0.009587287902832031,0.012783050537109375,0.05113410949707031,-0.37319087982177734,0.5733156204223633,0.5297250747680664,0.5014562606811523
414,47585940.0,9.231125831604004,-1.1265058517456055,2.2170982360839844,0.009587287902832031,0.012783050537109375,0.05113410949707031,-0.37319087982177734,0.5733156204223633,0.5297250747680664,0.5014562606811523
415,47585960.0,9.160494804382324,-1.237839698791504,2.2410402297973633,-0.031958580017089844,0.030893325805664062,0.042611122131347656,-0.37319087982177734,0.5733156204223633,0.5297250747680664,0.5014562606811523
416,47585980.0,9.113805770874023,-1.3455820083618164,2.251814842224121,-0.01597881317138672,0.030893325805664062,0.01810932159423828,-0.37319087982177734,0.5733156204223633,0.5297250747680664,0.5014562606811523
417,47586000.0,9.227534294128418,-1.2426280975341797,2.22308349609375,0.0287628173828125,0.011717796325683594,0.0063915252685546875,-0.37319087982177734,0.5733156204223633,0.5297250747680664,0.5014562606811523
418,47586020.0,9.252674102783203,-1.201925277709961,2.2374496459960938,0.04687213897705078,0.022370338439941406,-0.021305084228515625,-0.37319087982177734,0.5733156204223633,0.5297250747680664,0.5014562606811523
419,47586040.0,9.171268463134766,-1.264176368713379,2.2434349060058594,-0.0063915252685546875,0.042611122131347656,-0.022370338439941406,-0.37319087982177734,0.5733156204223633,0.5297250747680664,0.5014562606811523
420,47586060.0,9.09465217590332,-1.3862848281860352,2.251814842224121,-0.03728485107421875,0.041545867919921875,-0.034089088439941406,-0.37319087982177734,0.5733156204223633,0.5297250747680664,0.5014562606811523
421,47586080.0,8.950995445251465,-1.4114246368408203,2.22308349609375,-0.01597881317138672,0.04687213897705078,-0.01810932159423828,-0.37319087982177734,0.5733156204223633,0.5297250747680664,0.5014562606811523
422,47586100.0,9.088665962219238,-1.3826932907104492,2.168015480041504,0.030893325805664062,0.026632308959960938,-0.010652542114257812,-0.37319087982177734,0.5733156204223633,0.5297250747680664,0.5014562606811523
423,47586120.0,9.21436595916748,-1.3096675872802734,2.175198554992676,0.0692434310913086,0.009587287902832031,0.012783050537109375,-0.37319087982177734,0.5733156204223633,0.5297250747680664,0.5014562606811523
424,47586140.0,9.086272239685059,-1.2725563049316406,2.150057792663574,0.053264617919921875,0.03941535949707031,0.034089088439941406,-0.37319087982177734,0.5733156204223633,0.5297250747680664,0.5014562606811523
425,47586260.0,9.250279426574707,-1.4018478393554688,2.011190414428711,-0.05113410949707031,0.009587287902832031,0.08202743530273438,-0.37319087982177734,0.5733156204223633,0.5297250747680664,0.5014562606811523
426,47586280.0,9.37597942352295,-1.4078330993652344,1.9800643920898438,-0.05113410949707031,0.009587287902832031,0.08202743530273438,-0.37319087982177734,0.5733156204223633,0.5297250747680664,0.5014562606811523
427,47586300.0,9.26584243774414,-1.3503704071044922,2.036330223083496,-0.05113410949707031,0.009587287902832031,0.08202743530273438,-0.37319087982177734,0.5733156204223633,0.5297250747680664,0.5014562606811523
428,47586320.0,9.099440574645996,-1.3695249557495117,2.0231618881225586,-0.05113410949707031,0.009587287902832031,0.08202743530273438,-0.37319087982177734,0.5733156204223633,0.5297250747680664,0.5014562606811523
429,47586340.0,9.088665962219238,-1.5155754089355469,2.096186637878418,-0.05113410949707031,0.009587287902832031,0.08202743530273438,-0.37319087982177734,0.5733156204223633,0.5297250747680664,0.5014562606811523
430,47586360.0,9.360416412353516,-1.4940271377563477,2.134495735168457,-0.04367637634277344,-0.030893325805664062,0.04793834686279297,-0.37319087982177734,0.5733156204223633,0.5297250747680664,0.5014562606811523
431,47586380.0,9.360416412353516,-1.4114246368408203,2.17160701751709,0.0021305084228515625,-0.031958580017089844,0.052199363708496094,-0.37319087982177734,0.5733156204223633,0.5297250747680664,0.5014562606811523
432,47586400.0,9.02641487121582,-1.357553482055664,2.1823806762695312,-0.01597881317138672,0.013848304748535156,0.061786651611328125,-0.37319087982177734,0.5733156204223633,0.5297250747680664,0.5014562606811523
433,47586420.0,8.930644035339355,-1.5024070739746094,2.158437728881836,-0.05113410949707031,0.021305084228515625,0.0628519058227539,-0.37319087982177734,0.5733156204223633,0.5297250747680664,0.5014562606811523
434,47586440.0,9.179648399353027,-1.478464126586914,2.1452693939208984,-0.04900360107421875,-0.0287628173828125,0.06498241424560547,-0.37319087982177734,0.5733156204223633,0.5297250747680664,0.5014562606811523
435,47586660.0,9.223942756652832,-1.701131820678711,2.286531448364258,0.0862884521484375,-0.01810932159423828,0.07670116424560547,-0.3602428436279297,0.5630435943603516,0.5438814163208008,0.5073261260986328
436,47586680.0,9.11739730834961,-1.6269092559814453,2.226675033569336,0.10439872741699219,-0.009587287902832031,0.09267997741699219,-0.3602428436279297,0.5630435943603516,0.5438814163208008,0.5073261260986328
437,47586700.0,8.99768352508545,-1.6568374633789062,2.2973060607910156,0.09054946899414062,0.0170440673828125,0.0916147232055664,-0.3602428436279297,0.5630435943603516,0.5438814163208008,0.5073261260986328
438,47586720.0,9.227534294128418,-1.4940271377563477,2.317657470703125,0.06604766845703125,-0.0021305084228515625,0.08522319793701172,-0.3602428436279297,0.5630435943603516,0.5438814163208008,0.5073261260986328
439,47586736.0,9.28499698638916,-1.4413528442382812,2.22308349609375,0.026632308959960938,-0.0010652542114257812,0.07137489318847656,-0.3602428436279297,0.5630435943603516,0.5438814163208008,0.5073261260986328
440,47586760.0,8.958178520202637,-1.4892387390136719,2.230266571044922,0.026632308959960938,-0.0010652542114257812,0.07137489318847656,-0.3602428436279297,0.5630435943603516,0.5438814163208008,0.5073261260986328
441,47586776.0,8.8767728805542,-1.6149377822875977,2.266180992126465,0.026632308959960938,-0.0010652542114257812,0.07137489318847656,-0.3602428436279297,0.5630435943603516,0.5438814163208008,0.5073261260986328
442,47586800.0,9.086272239685059,-1.5335321426391602,2.244631767272949,0.026632308959960938,-0.0010652542114257812,0.07137489318847656,-0.3602428436279297,0.5630435943603516,0.5438814163208008,0.5073261260986328
443,47586816.0,9.210774421691895,-1.4305782318115234,2.1704092025756836,0.026632308959960938,-0.0010652542114257812,0.07137489318847656,-0.3602428436279297,0.5630435943603516,0.5438814163208008,0.5073261260986328
444,47586840.0,9.195211410522461,-1.413818359375,2.225478172302246,0.026632308959960938,-0.0010652542114257812,0.07137489318847656,-0.3602428436279297,0.5630435943603516,0.5438814163208008,0.5073261260986328
445,47587056.0,9.063526153564453,-1.3886785507202148,2.218295097351074,0.05859088897705078,-0.0063915252685546875,-0.0692434310913086,-0.3574810028076172,0.560755729675293,0.5488443374633789,0.5064630508422852
446,47587056.0,9.063526153564453,-1.3886785507202148,2.218295097351074,0.05859088897705078,-0.0063915252685546875,-0.0692434310913086,-0.3574810028076172,0.560755729675293,0.5488443374633789,0.5064630508422852
447,47587076.0,9.059934616088867,-1.3994531631469727,2.1524524688720703,0.0628519058227539,0.020239830017089844,-0.052199363708496094,-0.3574810028076172,0.560755729675293,0.5488443374633789,0.5064630508422852
448,47587076.0,9.059934616088867,-1.3994531631469727,2.1524524688720703,0.0628519058227539,0.020239830017089844,-0.052199363708496094,-0.3574810028076172,0.560755729675293,0.5488443374633789,0.5064630508422852
449,47587096.0,9.168874740600586,-1.4186077117919922,2.1081581115722656,0.03941535949707031,0.0170440673828125,-0.042611122131347656,-0.3574810028076172,0.560755729675293,0.5488443374633789,0.5064630508422852
450,47587096.0,9.168874740600586,-1.4186077117919922,2.1081581115722656,0.03941535949707031,0.0170440673828125,-0.042611122131347656,-0.3574810028076172,0.560755729675293,0.5488443374633789,0.5064630508422852
451,47587116.0,9.296968460083008,-1.358750343322754,2.0866098403930664,0.01597881317138672,0.007456779479980469,-0.034089088439941406,-0.3574810028076172,0.560755729675293,0.5488443374633789,0.5064630508422852
452,47587116.0,9.296968460083008,-1.358750343322754,2.0866098403930664,0.01597881317138672,0.007456779479980469,-0.034089088439941406,-0.3574810028076172,0.560755729675293,0.5488443374633789,0.5064630508422852
453,47587136.0,9.219154357910156,-1.4245929718017578,2.066258430480957,0.007456779479980469,0.022370338439941406,-0.031958580017089844,-0.3574810028076172,0.560755729675293,0.5488443374633789,0.5064630508422852
454,47587136.0,9.219154357910156,-1.4245929718017578,2.066258430480957,0.007456779479980469,0.022370338439941406,-0.031958580017089844,-0.3574810028076172,0.560755729675293,0.5488443374633789,0.5064630508422852
455,47587256.0,9.135354995727539,-1.4102277755737305,2.2027320861816406,0.007456779479980469,0.022370338439941406,-0.031958580017089844,-0.3574810028076172,0.560755729675293,0.5488443374633789,0.5064630508422852
456,47587276.0,9.142537117004395,-1.4832525253295898,2.2685747146606445,0.007456779479980469,0.022370338439941406,-0.031958580017089844,-0.3574810028076172,0.560755729675293,0.5488443374633789,0.5064630508422852
457,47587296.0,9.11620044708252,-1.576629638671875,2.2997007369995117,0.007456779479980469,0.022370338439941406,-0.031958580017089844,-0.3574810028076172,0.560755729675293,0.5488443374633789,0.5064630508422852
458,47587316.0,9.170071601867676,-1.5658550262451172,2.347585678100586,0.007456779479980469,0.022370338439941406,-0.031958580017089844,-0.3574810028076172,0.560755729675293,0.5488443374633789,0.5064630508422852
459,47587336.0,9.177254676818848,-1.5012102127075195,2.306882858276367,0.007456779479980469,0.022370338439941406,-0.031958580017089844,-0.3574810028076172,0.560755729675293,0.5488443374633789,0.5064630508422852
460,47587356.0,9.06592082977295,-1.478464126586914,2.3715286254882812,0.007456779479980469,0.022370338439941406,-0.031958580017089844,-0.3574810028076172,0.560755729675293,0.5488443374633789,0.5064630508422852
461,47587356.0,9.06592082977295,-1.478464126586914,2.3715286254882812,0.007456779479980469,0.022370338439941406,-0.031958580017089844,-0.3574810028076172,0.560755729675293,0.5488443374633789,0.5064630508422852
462,47587376.0,9.09584903717041,-1.4712810516357422,2.3882884979248047,0.007456779479980469,0.022370338439941406,-0.031958580017089844,-0.3574810028076172,0.560755729675293,0.5488443374633789,0.5064630508422852
463,47587376.0,9.09584903717041,-1.4712810516357422,2.3882884979248047,0.007456779479980469,0.022370338439941406,-0.031958580017089844,-0.3574810028076172,0.560755729675293,0.5488443374633789,0.5064630508422852
464,47587396.0,9.301756858825684,-1.3000907897949219,2.4218082427978516,0.007456779479980469,0.022370338439941406,-0.031958580017089844,-0.3574810028076172,0.560755729675293,0.5488443374633789,0.5064630508422852
465,47587396.0,9.301756858825684,-1.3000907897949219,2.4218082427978516,0.007456779479980469,0.022370338439941406,-0.031958580017089844,-0.3574810028076172,0.560755729675293,0.5488443374633789,0.5064630508422852
466,47587416.0,9.298165321350098,-1.3395957946777344,2.318854331970215,0.007456779479980469,0.022370338439941406,-0.031958580017089844,-0.3574810028076172,0.560755729675293,0.5488443374633789,0.5064630508422852
467,47587416.0,9.298165321350098,-1.3395957946777344,2.318854331970215,0.007456779479980469,0.022370338439941406,-0.031958580017089844,-0.3574810028076172,0.560755729675293,0.5488443374633789,0.5064630508422852
468,47587436.0,8.913884162902832,-1.574234962463379,2.3080806732177734,0.007456779479980469,0.022370338439941406,-0.031958580017089844,-0.3574810028076172,0.560755729675293,0.5488443374633789,0.5064630508422852
469,47587436.0,8.913884162902832,-1.574234962463379,2.3080806732177734,0.007456779479980469,0.022370338439941406,-0.031958580017089844,-0.3574810028076172,0.560755729675293,0.5488443374633789,0.5064630508422852
470,47587456.0,8.930644035339355,-1.6771888732910156,2.3092775344848633,-0.2599315643310547,0.07776641845703125,0.020239830017089844,-0.3574810028076172,0.560755729675293,0.5488443374633789,0.5064630508422852
471,47587476.0,9.027612686157227,-1.7071170806884766,2.3092775344848633,-0.17577362060546875,0.03835010528564453,0.021305084228515625,-0.3574810028076172,0.560755729675293,0.5488443374633789,0.5064630508422852
472,47587496.0,9.067117691040039,-1.789719581604004,2.284137725830078,-0.08841896057128906,0.04900360107421875,0.02982807159423828,-0.3574810028076172,0.560755729675293,0.5488443374633789,0.5064630508422852
473,47587516.0,9.154508590698242,-1.6257123947143555,2.381105422973633,-0.030893325805664062,0.033023834228515625,0.04367637634277344,-0.3574810028076172,0.560755729675293,0.5488443374633789,0.5064630508422852
474,47587536.0,9.165283203125,-1.6819772720336914,2.3451919555664062,-0.03515434265136719,0.03835010528564453,0.057525634765625,-0.3574810028076172,0.560755729675293,0.5488443374633789,0.5064630508422852
475,47587556.0,9.131763458251953,-1.8651399612426758,2.3356142044067383,-0.07563591003417969,0.06391716003417969,0.07244014739990234,-0.3574810028076172,0.560755729675293,0.5488443374633789,0.5064630508422852
476,47587556.0,9.131763458251953,-1.8651399612426758,2.3356142044067383,-0.07563591003417969,0.06391716003417969,0.07244014739990234,-0.3574810028076172,0.560755729675293,0.5488443374633789,0.5064630508422852
477,47587576.0,9.250279426574707,-1.9908390045166016,2.572648048400879,-0.042611122131347656,0.04793834686279297,0.09587669372558594,-0.3574810028076172,0.560755729675293,0.5488443374633789,0.5064630508422852
478,47587576.0,9.250279426574707,-1.9908390045166016,2.572648048400879,-0.042611122131347656,0.04793834686279297,0.09587669372558594,-0.3574810028076172,0.560755729675293,0.5488443374633789,0.5064630508422852
479,47587596.0,9.429850578308105,-2.0530900955200195,2.72109317779541,0.009587287902832031,0.04367637634277344,0.1384878158569336,-0.3574810028076172,0.560755729675293,0.5488443374633789,0.5064630508422852
480,47587596.0,9.429850578308105,-2.0530900955200195,2.72109317779541,0.009587287902832031,0.04367637634277344,0.1384878158569336,-0.3574810028076172,0.560755729675293,0.5488443374633789,0.5064630508422852
481,47587616.0,9.61780071258545,-2.1440725326538086,2.6372928619384766,-0.04474163055419922,0.045806884765625,0.21732044219970703,-0.3574810028076172,0.560755729675293,0.5488443374633789,0.5064630508422852
482,47587616.0,9.61780071258545,-2.1440725326538086,2.6372928619384766,-0.04474163055419922,0.045806884765625,0.21732044219970703,-0.3574810028076172,0.560755729675293,0.5488443374633789,0.5064630508422852
483,47587636.0,9.851243019104004,-2.503213882446289,2.853975296020508,-0.13103103637695312,0.1033334732055664,0.3185234069824219,-0.3574810028076172,0.560755729675293,0.5488443374633789,0.5064630508422852
484,47587636.0,9.851243019104004,-2.503213882446289,2.853975296020508,-0.13103103637695312,0.1033334732055664,0.3185234069824219,-0.3574810028076172,0.560755729675293,0.5488443374633789,0.5064630508422852
485,47587756.0,14.837320327758789,-11.511672019958496,3.7901363372802734,-0.13103103637695312,0.1033334732055664,0.3185234069824219,-0.3574810028076172,0.560755729675293,0.5488443374633789,0.5064630508422852
486,47587776.0,15.202446937561035,-10.111021995544434,6.320884704589844,-0.13103103637695312,0.1033334732055664,0.3185234069824219,-0.3574810028076172,0.560755729675293,0.5488443374633789,0.5064630508422852
487,47587792.0,14.830137252807617,-9.37478256225586,7.309720039367676,-0.13103103637695312,0.1033334732055664,0.3185234069824219,-0.3574810028076172,0.560755729675293,0.5488443374633789,0.5064630508422852
488,47587816.0,14.996539115905762,-11.71757984161377,4.921431541442871,-0.13103103637695312,0.1033334732055664,0.3185234069824219,-0.3574810028076172,0.560755729675293,0.5488443374633789,0.5064630508422852
489,47587832.0,14.491347312927246,-8.849238395690918,3.174807548522949,-0.13103103637695312,0.1033334732055664,0.3185234069824219,-0.3574810028076172,0.560755729675293,0.5488443374633789,0.5064630508422852
490,47587856.0,9.71476936340332,-9.511256217956543,2.4026546478271484,-0.13103103637695312,0.1033334732055664,0.3185234069824219,-0.3574810028076172,0.560755729675293,0.5488443374633789,0.5064630508422852
491,47587856.0,9.71476936340332,-9.511256217956543,2.4026546478271484,-0.13103103637695312,0.1033334732055664,0.3185234069824219,-0.3574810028076172,0.560755729675293,0.5488443374633789,0.5064630508422852
492,47587856.0,9.71476936340332,-9.511256217956543,2.4026546478271484,-0.13103103637695312,0.1033334732055664,0.3185234069824219,-0.3574810028076172,0.560755729675293,0.5488443374633789,0.5064630508422852
493,47587872.0,6.179622650146484,-9.969758987426758,4.225893974304199,-0.13103103637695312,0.1033334732055664,0.3185234069824219,-0.3574810028076172,0.560755729675293,0.5488443374633789,0.5064630508422852
494,47587872.0,6.179622650146484,-9.969758987426758,4.225893974304199,-0.13103103637695312,0.1033334732055664,0.3185234069824219,-0.3574810028076172,0.560755729675293,0.5488443374633789,0.5064630508422852
495,47587872.0,6.179622650146484,-9.969758987426758,4.225893974304199,-0.13103103637695312,0.1033334732055664,0.3185234069824219,-0.3574810028076172,0.560755729675293,0.5488443374633789,0.5064630508422852
496,47587896.0,4.240260124206543,-8.248275756835938,5.156069755554199,-0.13103103637695312,0.1033334732055664,0.3185234069824219,-0.3574810028076172,0.560755729675293,0.5488443374633789,0.5064630508422852
497,47587896.0,4.240260124206543,-8.248275756835938,5.156069755554199,-0.13103103637695312,0.1033334732055664,0.3185234069824219,-0.3574810028076172,0.560755729675293,0.5488443374633789,0.5064630508422852
498,47587896.0,4.240260124206543,-8.248275756835938,5.156069755554199,-0.13103103637695312,0.1033334732055664,0.3185234069824219,-0.3574810028076172,0.560755729675293,0.5488443374633789,0.5064630508422852
499,47587912.0,1.635289192199707,-7.078672409057617,3.8859071731567383,-0.13103103637695312,0.1033334732055664,0.3185234069824219,-0.3574810028076172,0.560755729675293,0.5488443374633789,0.5064630508422852
500,47587912.0,1.635289192199707,-7.078672409057617,3.8859071731567383,-0.13103103637695312,0.1033334732055664,0.3185234069824219,-0.3574810028076172,0.560755729675293,0.5488443374633789,0.5064630508422852
501,47587912.0,1.635289192199707,-7.078672409057617,3.8859071731567383,-0.13103103637695312,0.1033334732055664,0.3185234069824219,-0.3574810028076172,0.560755729675293,0.5488443374633789,0.5064630508422852
502,47587936.0,0.8475723266601562,-8.053142547607422,3.5435256958007812,-0.13103103637695312,0.1033334732055664,0.3185234069824219,-0.3574810028076172,0.560755729675293,0.5488443374633789,0.5064630508422852
503,47587936.0,0.8475723266601562,-8.053142547607422,3.5435256958007812,-0.13103103637695312,0.1033334732055664,0.3185234069824219,-0.3574810028076172,0.560755729675293,0.5488443374633789,0.5064630508422852
504,47587936.0,0.8475723266601562,-8.053142547607422,3.5435256958007812,-0.13103103637695312,0.1033334732055664,0.3185234069824219,-0.3574810028076172,0.560755729675293,0.5488443374633789,0.5064630508422852
505,47588056.0,-1.2581911087036133,-3.6512680053710938,-1.4210014343261719,1.524439811706543,1.0812759399414062,5.7387542724609375,0.36960792541503906,0.04108619689941406,0.7951488494873047,0.47905731201171875
506,47588072.0,-2.9868574142456055,-2.1835784912109375,-1.5909948348999023,1.524439811706543,1.0812759399414062,5.7387542724609375,0.36960792541503906,0.04108619689941406,0.7951488494873047,0.47905731201171875
507,47588092.0,-2.906648635864258,2.3080806732177734,0.6656074523925781,1.524439811706543,1.0812759399414062,5.7387542724609375,0.36960792541503906,0.04108619689941406,0.7951488494873047,0.47905731201171875
508,47588112.0,-4.851997375488281,0.7841243743896484,1.6843719482421875,1.524439811706543,1.0812759399414062,5.7387542724609375,0.36960792541503906,0.04108619689941406,0.7951488494873047,0.47905731201171875
509,47588132.0,-6.167651176452637,-2.0614700317382812,0.28731250762939453,1.524439811706543,1.0812759399414062,5.7387542724609375,0.36960792541503906,0.04108619689941406,0.7951488494873047,0.47905731201171875
510,47588152.0,-6.884736061096191,0.2106952667236328,0.8763036727905273,2.5556468963623047,1.3028573989868164,2.575887680053711,0.36960792541503906,0.04108619689941406,0.7951488494873047,0.47905731201171875
511,47588152.0,-6.884736061096191,0.2106952667236328,0.8763036727905273,2.5556468963623047,1.3028573989868164,2.575887680053711,0.36960792541503906,0.04108619689941406,0.7951488494873047,0.47905731201171875
512,47588172.0,-7.1086015701293945,4.149277687072754,1.3635387420654297,3.1628665924072266,1.3614492416381836,1.8834447860717773,0.36960792541503906,0.04108619689941406,0.7951488494873047,0.47905731201171875
513,47588172.0,-7.1086015701293945,4.149277687072754,1.3635387420654297,3.1628665924072266,1.3614492416381836,1.8834447860717773,0.36960792541503906,0.04108619689941406,0.7951488494873047,0.47905731201171875
514,47588192.0,-7.433025360107422,2.3056859970092773,1.9621076583862305,1.7321720123291016,1.3507957458496094,1.3369474411010742,0.36960792541503906,0.04108619689941406,0.7951488494873047,0.47905731201171875
515,47588192.0,-7.433025360107422,2.3056859970092773,1.9621076583862305,1.7321720123291016,1.3507957458496094,1.3369474411010742,0.36960792541503906,0.04108619689941406,0.7951488494873047,0.47905731201171875
516,47588212.0,-7.368379592895508,-1.3683271408081055,1.6640205383300781,0.16405487060546875,1.3827552795410156,0.9672889709472656,0.36960792541503906,0.04108619689941406,0.7951488494873047,0.47905731201171875
517,47588212.0,-7.368379592895508,-1.3683271408081055,1.6640205383300781,0.16405487060546875,1.3827552795410156,0.9672889709472656,0.36960792541503906,0.04108619689941406,0.7951488494873047,0.47905731201171875
518,47588232.0,-7.585062026977539,-2.1428756713867188,0.1783733367919922,0.540104866027832,1.4328241348266602,0.7520990371704102,0.36960792541503906,0.04108619689941406,0.7951488494873047,0.47905731201171875
519,47588232.0,-7.585062026977539,-2.1428756713867188,0.1783733367919922,0.540104866027832,1.4328241348266602,0.7520990371704102,0.36960792541503906,0.04108619689941406,0.7951488494873047,0.47905731201171875
520,47588252.0,-8.688822746276855,-0.5518798828125,-0.8775014877319336,1.954819679260254,1.5595941543579102,0.5795211791992188,0.36960792541503906,0.04108619689941406,0.7951488494873047,0.47905731201171875
521,47588272.0,-9.154508590698242,0.06703948974609375,2.044710159301758,1.9143381118774414,1.3848857879638672,0.38350677490234375,0.36960792541503906,0.04108619689941406,0.7951488494873047,0.47905731201171875
522,47588292.0,-8.560729026794434,-2.6133499145507812,0.98284912109375,0.5688676834106445,1.2581148147583008,0.16512012481689453,0.36960792541503906,0.04108619689941406,0.7951488494873047,0.47905731201171875
523,47588312.0,-9.482524871826172,-4.640104293823242,0.3938579559326172,-0.18109989166259766,1.4967412948608398,0.08415794372558594,0.36960792541503906,0.04108619689941406,0.7951488494873047,0.47905731201171875
524,47588332.0,-8.221939086914062,-3.284944534301758,1.7154970169067383,-0.9140243530273438,1.3848857879638672,0.22371196746826172,0.36960792541503906,0.04108619689941406,0.7951488494873047,0.47905731201171875
525,47588452.0,-4.830449104309082,-2.6624326705932617,-3.9756927490234375,3.6347923278808594,-2.596128463745117,-1.3444042205810547,0.6569995880126953,-0.0895538330078125,0.6969642639160156,0.2731485366821289
526,47588472.0,-6.763825416564941,-1.200728416442871,0.9720754623413086,1.543614387512207,-2.554581642150879,-1.368906021118164,0.6364126205444336,-0.07388782501220703,0.720916748046875,0.26421546936035156
527,47588492.0,-6.20356559753418,-4.313285827636719,1.9202079772949219,-0.19494915008544922,-3.07977294921875,-1.6139240264892578,0.611424446105957,-0.06896781921386719,0.7401657104492188,0.27124977111816406
528,47588512.0,-4.666440963745117,-5.713935852050781,-2.072244644165039,0.053264617919921875,-3.5719404220581055,-1.5617246627807617,0.5805654525756836,-0.06775951385498047,0.7619171142578125,0.2789754867553711
529,47588532.0,-5.7151336669921875,-4.156460762023926,-3.958932876586914,1.2272214889526367,-3.1575393676757812,-1.8727912902832031,0.5509157180786133,-0.05778980255126953,0.7840576171875,0.27996826171875
530,47588552.0,-5.389512062072754,-0.9074296951293945,0.9457378387451172,1.2272214889526367,-3.1575393676757812,-1.8727912902832031,0.5509157180786133,-0.05778980255126953,0.7840576171875,0.27996826171875
531,47588572.0,-2.590604782104492,0.025139808654785156,2.0758352279663086,1.2272214889526367,-3.1575393676757812,-1.8727912902832031,0.5509157180786133,-0.05778980255126953,0.7840576171875,0.27996826171875
532,47588592.0,-1.3012876510620117,-1.5538835525512695,-0.6093425750732422,1.2272214889526367,-3.1575393676757812,-1.8727912902832031,0.5509157180786133,-0.05778980255126953,0.7840576171875,0.27996826171875
533,47588612.0,-1.4581127166748047,-3.035940170288086,-0.6943387985229492,1.2272214889526367,-3.1575393676757812,-1.8727912902832031,0.5509157180786133,-0.05778980255126953,0.7840576171875,0.27996826171875
534,47588632.0,0.28731250762939453,-4.34201717376709,4.854391098022461,1.2272214889526367,-3.1575393676757812,-1.8727912902832031,0.5509157180786133,-0.05778980255126953,0.7840576171875,0.27996826171875
535,47588652.0,2.3451919555664062,-4.289342880249023,5.892309188842773,1.2272214889526367,-3.1575393676757812,-1.8727912902832031,0.5509157180786133,-0.05778980255126953,0.7840576171875,0.27996826171875
536,47588672.0,1.1528425216674805,-1.2294597625732422,3.9493560791015625,1.2272214889526367,-3.1575393676757812,-1.8727912902832031,0.5509157180786133,-0.05778980255126953,0.7840576171875,0.27996826171875
537,47588692.0,0.9636955261230469,0.07781314849853516,3.766193389892578,1.2272214889526367,-3.1575393676757812,-1.8727912902832031,0.5509157180786133,-0.05778980255126953,0.7840576171875,0.27996826171875
538,47588712.0,4.265399932861328,-1.7992973327636719,9.554352760314941,1.2272214889526367,-3.1575393676757812,-1.8727912902832031,0.5509157180786133,-0.05778980255126953,0.7840576171875,0.27996826171875
539,47588732.0,7.034379005432129,-9.663291931152344,11.674483299255371,1.2272214889526367,-3.1575393676757812,-1.8727912902832031,0.5509157180786133,-0.05778980255126953,0.7840576171875,0.27996826171875
540,47588852.0,7.859206199645996,-4.70474910736084,1.423396110534668,-2.0485658645629883,-3.126646041870117,-4.766138076782227,-0.1919260025024414,0.26650238037109375,0.8836669921875,0.3334846496582031
541,47588852.0,7.859206199645996,-4.70474910736084,1.423396110534668,-2.0485658645629883,-3.126646041870117,-4.766138076782227,-0.1919260025024414,0.26650238037109375,0.8836669921875,0.3334846496582031
542,47588872.0,13.12661075592041,-10.283409118652344,2.189563751220703,-2.0485658645629883,-3.126646041870117,-4.766138076782227,-0.1919260025024414,0.26650238037109375,0.8836669921875,0.3334846496582031
543,47588872.0,13.12661075592041,-10.283409118652344,2.189563751220703,-2.0485658645629883,-3.126646041870117,-4.766138076782227,-0.1919260025024414,0.26650238037109375,0.8836669921875,0.3334846496582031
544,47588892.0,17.588340759277344,-8.540377616882324,6.859596252441406,-2.0485658645629883,-3.126646041870117,-4.766138076782227,-0.1919260025024414,0.26650238037109375,0.8836669921875,0.3334846496582031
545,47588892.0,17.588340759277344,-8.540377616882324,6.859596252441406,-2.0485658645629883,-3.126646041870117,-4.766138076782227,-0.1919260025024414,0.26650238037109375,0.8836669921875,0.3334846496582031
546,47588912.0,16.194873809814453,-4.5958099365234375,8.949798583984375,-2.0485658645629883,-3.126646041870117,-4.766138076782227,-0.1919260025024414,0.26650238037109375,0.8836669921875,0.3334846496582031
547,47588912.0,16.194873809814453,-4.5958099365234375,8.949798583984375,-2.0485658645629883,-3.126646041870117,-4.766138076782227,-0.1919260025024414,0.26650238037109375,0.8836669921875,0.3334846496582031
548,47588928.0,11.621809005737305,-3.7961225509643555,7.067898750305176,-2.0485658645629883,-3.126646041870117,-4.766138076782227,-0.1919260025024414,0.26650238037109375,0.8836669921875,0.3334846496582031
549,47588928.0,11.621809005737305,-3.7961225509643555,7.067898750305176,-2.0485658645629883,-3.126646041870117,-4.766138076782227,-0.1919260025024414,0.26650238037109375,0.8836669921875,0.3334846496582031
550,47588952.0,13.552791595458984,-3.857175827026367,5.637319564819336,-2.0485658645629883,-3.126646041870117,-4.766138076782227,-0.1919260025024414,0.26650238037109375,0.8836669921875,0.3334846496582031
551,47588968.0,17.8900203704834,-3.0048141479492188,3.6512680053710938,-2.0485658645629883,-3.126646041870117,-4.766138076782227,-0.1919260025024414,0.26650238037109375,0.8836669921875,0.3334846496582031
552,47588992.0,18.603513717651367,-5.087833404541016,3.6608457565307617,-2.0485658645629883,-3.126646041870117,-4.766138076782227,-0.1919260025024414,0.26650238037109375,0.8836669921875,0.3334846496582031
553,47589008.0,16.85090446472168,-7.302536964416504,4.70474910736084,-2.0485658645629883,-3.126646041870117,-4.766138076782227,-0.1919260025024414,0.26650238037109375,0.8836669921875,0.3334846496582031
554,47589028.0,14.023266792297363,-5.451763153076172,4.478490829467773,-2.0485658645629883,-3.126646041870117,-4.766138076782227,-0.1919260025024414,0.26650238037109375,0.8836669921875,0.3334846496582031
555,47589152.0,9.364007949829102,-1.6233177185058594,2.7067270278930664,-2.203033447265625,0.26206302642822266,1.290074348449707,-0.3864402770996094,0.6355066299438477,0.4620962142944336,0.48302745819091797
556,47589168.0,8.582277297973633,-1.699934959411621,2.6420812606811523,-2.203033447265625,0.26206302642822266,1.290074348449707,-0.3717670440673828,0.6346435546875,0.4673614501953125,0.4905376434326172
557,47589192.0,8.530799865722656,-1.6867656707763672,2.218295097351074,-2.203033447265625,0.26206302642822266,1.290074348449707,-0.3617534637451172,0.6324853897094727,0.47400760650634766,0.49442195892333984
558,47589208.0,8.764242172241211,-1.2976961135864258,2.215900421142578,-2.203033447265625,0.26206302642822266,1.290074348449707,-0.3567476272583008,0.628514289855957,0.4814310073852539,0.49588871002197266
559,47589228.0,9.020429611206055,-0.6440591812133789,2.197943687438965,-2.203033447265625,0.26206302642822266,1.290074348449707,-0.3549776077270508,0.6239833831787109,0.48906993865966797,0.49541473388671875
560,47589448.0,8.78579044342041,-1.142068862915039,2.0818214416503906,0.010652542114257812,-0.034089088439941406,0.2950868606567383,-0.3549776077270508,0.6239833831787109,0.48906993865966797,0.49541473388671875
561,47589468.0,9.251477241516113,-1.6005725860595703,2.443356513977051,0.1033334732055664,-0.10759449005126953,0.2705850601196289,-0.3549776077270508,0.6239833831787109,0.48906993865966797,0.49541473388671875
562,47589488.0,9.37597942352295,-1.0846061706542969,2.4122314453125,0.38031005859375,-0.12463951110839844,0.2471485137939453,-0.3549776077270508,0.6239833831787109,0.48906993865966797,0.49541473388671875
563,47589508.0,8.917475700378418,-0.6979303359985352,2.3679370880126953,0.4090738296508789,-0.07776641845703125,0.2066669464111328,-0.3549776077270508,0.6239833831787109,0.48906993865966797,0.49541473388671875
564,47589528.0,8.706779479980469,-1.015172004699707,2.4026546478271484,0.2183856964111328,-0.07563591003417969,0.14701080322265625,-0.3549776077270508,0.6239833831787109,0.48906993865966797,0.49541473388671875
565,47589548.0,9.179648399353027,-1.3862848281860352,2.649264335632324,0.10865974426269531,-0.18536090850830078,0.10120296478271484,-0.3549776077270508,0.6239833831787109,0.48906993865966797,0.49541473388671875
566,47589568.0,9.532804489135742,-1.1277027130126953,2.460116386413574,0.10865974426269531,-0.18536090850830078,0.10120296478271484,-0.3791036605834961,0.5776739120483398,0.5105199813842773,0.5117712020874023
567,47589568.0,9.532804489135742,-1.1277027130126953,2.460116386413574,0.10865974426269531,-0.18536090850830078,0.10120296478271484,-0.3791036605834961,0.5776739120483398,0.5105199813842773,0.5117712020874023
568,47589588.0,9.300559997558594,-1.047494888305664,2.4230051040649414,0.10865974426269531,-0.18536090850830078,0.10120296478271484,-0.3808727264404297,0.5757322311401367,0.5112533569335938,0.5119009017944336
569,47589588.0,9.300559997558594,-1.047494888305664,2.4230051040649414,0.10865974426269531,-0.18536090850830078,0.10120296478271484,-0.3808727264404297,0.5757322311401367,0.5112533569335938,0.5119009017944336
