,timestamp,accel_x,accel_y,accel_z,gyro_x,gyro_y,gyro_z,ori_scalar,ori_x,ori_y,ori_z
0,48546656.0,9.941027641296387,-1.7154970169067383,3.2657899856567383,-0.03835010528564453,-0.08309268951416016,0.033023834228515625,-0.29062843322753906,0.6567401885986328,0.47530269622802734,0.5082321166992188
1,48546672.0,9.692023277282715,-1.7669744491577148,2.7306699752807617,-0.26738929748535156,-0.009587287902832031,0.09694194793701172,-0.29062843322753906,0.6567401885986328,0.47530269622802734,0.5082321166992188
2,48546696.0,9.352036476135254,-2.194352149963379,2.7031354904174805,-0.25673580169677734,-0.0287628173828125,0.15340232849121094,-0.29062843322753906,0.6567401885986328,0.47530269622802734,0.5082321166992188
3,48546712.0,9.295770645141602,-2.128509521484375,3.0167856216430664,0.0021305084228515625,-0.04900360107421875,0.17044734954833984,-0.29062843322753906,0.6567401885986328,0.47530269622802734,0.5082321166992188
4,48546736.0,9.170071601867676,-1.9070396423339844,2.8575668334960938,0.2013406753540039,-0.033023834228515625,0.25034427642822266,-0.29062843322753906,0.6567401885986328,0.47530269622802734,0.5082321166992188
5,48546752.0,8.825296401977539,-1.6484575271606445,2.7019386291503906,0.3057394027709961,-0.007456779479980469,0.31532764434814453,-0.29062843322753906,0.6567401885986328,0.47530269622802734,0.5082321166992188
6,48546844.0,9.310136795043945,-1.1253089904785156,2.1524524688720703,0.44742393493652344,-0.034089088439941406,0.3696575164794922,-0.2917509078979492,0.650568962097168,0.48345947265625,0.5078010559082031
7,48546864.0,9.358022689819336,-1.143265724182129,2.41103458404541,0.3622007369995117,-0.04474163055419922,0.3590049743652344,-0.2917509078979492,0.650568962097168,0.48345947265625,0.5078010559082031
8,48546884.0,9.4537935256958,-1.3443851470947266,2.5415220260620117,0.27484607696533203,-0.0809621810913086,0.3622007369995117,-0.2917509078979492,0.650568962097168,0.48345947265625,0.5078010559082031
9,48546904.0,9.656109809875488,-1.2414312362670898,2.3846969604492188,0.33237171173095703,-0.11505126953125,0.36007022857666016,-0.2917509078979492,0.650568962097168,0.48345947265625,0.5078010559082031
10,48546924.0,9.669278144836426,-1.2354450225830078,2.3583602905273438,0.41226959228515625,-0.12890052795410156,0.3451557159423828,-0.2917509078979492,0.650568962097168,0.48345947265625,0.5078010559082031
11,48546944.0,9.47773551940918,-1.2402334213256836,2.3954715728759766,0.4729909896850586,-0.1374225616455078,0.2940216064453125,-0.2917509078979492,0.650568962097168,0.48345947265625,0.5078010559082031
12,48547072.0,9.592660903930664,-1.5275468826293945,2.667222023010254,0.3685922622680664,-0.2812376022338867,0.005326271057128906,-0.31557464599609375,0.6134090423583984,0.5189790725708008,0.5047798156738281
13,48547092.0,9.681249618530273,-1.4712810516357422,2.4242029190063477,0.4080085754394531,-0.26099681854248047,0.019174575805664062,-0.31557464599609375,0.6134090423583984,0.5189790725708008,0.5047798156738281
14,48547112.0,9.548367500305176,-1.6041631698608398,2.7103185653686523,0.4080085754394531,-0.24608325958251953,0.033023834228515625,-0.31557464599609375,0.6134090423583984,0.5189790725708008,0.5047798156738281
15,48547252.0,9.352036476135254,-1.9321794509887695,2.5678586959838867,0.09481048583984375,-0.10759449005126953,0.04900360107421875,-0.3378009796142578,0.5945062637329102,0.5253658294677734,0.5063762664794922
16,48547272.0,9.322108268737793,-2.018373489379883,2.5451135635375977,0.1555328369140625,-0.09374523162841797,0.04687213897705078,-0.3378009796142578,0.5945062637329102,0.5253658294677734,0.5063762664794922
17,48547292.0,9.40590763092041,-1.8998565673828125,2.8013010025024414,0.1896219253540039,-0.08841896057128906,0.021305084228515625,-0.3378009796142578,0.5945062637329102,0.5253658294677734,0.5063762664794922
18,48547312.0,9.529212951660156,-1.5814180374145508,2.784541130065918,0.18855667114257812,-0.05646038055419922,0.019174575805664062,-0.3378009796142578,0.5945062637329102,0.5253658294677734,0.5063762664794922
19,48547332.0,9.417879104614258,-1.5167722702026367,2.576239585876465,0.09907245635986328,-0.01597881317138672,0.06711292266845703,-0.3378009796142578,0.5945062637329102,0.5253658294677734,0.5063762664794922
20,48547352.0,9.259857177734375,-1.5921926498413086,2.559478759765625,-0.005326271057128906,0.0021305084228515625,0.08735370635986328,-0.3378009796142578,0.5945062637329102,0.5253658294677734,0.5063762664794922
21,48547472.0,9.732726097106934,-1.6640205383300781,2.620532989501953,-0.009587287902832031,0.009587287902832031,0.06391716003417969,-0.3386211395263672,0.5854425430297852,0.5341701507568359,0.5071964263916016
22,48547492.0,9.821314811706543,-1.5718412399291992,2.469694137573242,-0.025567054748535156,0.03621959686279297,0.08948421478271484,-0.3381462097167969,0.5850973129272461,0.5346879959106445,0.5074119567871094
23,48547512.0,9.760260581970215,-1.697540283203125,2.383500099182129,-0.0862884521484375,0.04474163055419922,0.1033334732055664,-0.33719635009765625,0.5849246978759766,0.5351200103759766,0.5077571868896484
24,48547528.0,9.680051803588867,-1.8028879165649414,2.449342727661133,-0.1033334732055664,0.04900360107421875,0.09374523162841797,-0.3358592987060547,0.5848817825317383,0.5354223251342773,0.5083189010620117
25,48547552.0,9.636955261230469,-1.824437141418457,2.6097593307495117,-0.053264617919921875,0.040480613708496094,0.05965614318847656,-0.3345212936401367,0.5848388671875,0.5356378555297852,0.5090522766113281
26,48547572.0,9.464567184448242,-1.7310600280761719,2.606167793273926,-0.053264617919921875,0.040480613708496094,0.05965614318847656,-0.3345212936401367,0.5848388671875,0.5356378555297852,0.5090522766113281
27,48547592.0,9.176057815551758,-1.701131820678711,2.4613142013549805,-0.053264617919921875,0.040480613708496094,0.05965614318847656,-0.3345212936401367,0.5848388671875,0.5356378555297852,0.5090522766113281
28,48547612.0,9.040781021118164,-1.8328170776367188,2.468496322631836,-0.053264617919921875,0.040480613708496094,0.05965614318847656,-0.3345212936401367,0.5848388671875,0.5356378555297852,0.5090522766113281
29,48547632.0,9.124580383300781,-1.9249963760375977,2.444554328918457,-0.053264617919921875,0.040480613708496094,0.05965614318847656,-0.3345212936401367,0.5848388671875,0.5356378555297852,0.5090522766113281
30,48547648.0,9.128171920776367,-1.9513330459594727,2.438568115234375,-0.053264617919921875,0.040480613708496094,0.05965614318847656,-0.3345212936401367,0.5848388671875,0.5356378555297852,0.5090522766113281
31,48547872.0,9.4071044921875,-1.91302490234375,2.317657470703125,0.06391716003417969,-0.031958580017089844,-0.009587287902832031,-0.3267526626586914,0.5890684127807617,0.5311498641967773,0.5138864517211914
32,48547888.0,9.314925193786621,-1.9285879135131836,2.3032913208007812,0.045806884765625,-0.042611122131347656,0.0,-0.32709789276123047,0.5883769989013672,0.5314083099365234,0.5142316818237305
33,48547912.0,9.331685066223145,-2.036330223083496,2.401456832885742,0.057525634765625,-0.05646038055419922,0.007456779479980469,-0.32740020751953125,0.5876436233520508,0.5316238403320312,0.5146198272705078
34,48547928.0,9.444215774536133,-1.8639421463012695,2.4361743927001953,0.10013771057128906,-0.053264617919921875,0.014913558959960938,-0.32787418365478516,0.5868673324584961,0.5319690704345703,0.5149221420288086
35,48547952.0,9.312531471252441,-1.7980995178222656,2.4469480514526367,0.0980072021484375,-0.024501800537109375,0.025567054748535156,-0.32843589782714844,0.5860471725463867,0.5325307846069336,0.5148792266845703
36,48547968.0,9.158100128173828,-1.8064794540405273,2.5606765747070312,0.0980072021484375,-0.024501800537109375,0.025567054748535156,-0.32843589782714844,0.5860471725463867,0.5325307846069336,0.5148792266845703
37,48547988.0,9.301756858825684,-1.9070396423339844,2.5175790786743164,0.0980072021484375,-0.024501800537109375,0.025567054748535156,-0.32843589782714844,0.5860471725463867,0.5325307846069336,0.5148792266845703
38,48548008.0,9.429850578308105,-1.8795051574707031,2.511593818664551,0.0980072021484375,-0.024501800537109375,0.025567054748535156,-0.32843589782714844,0.5860471725463867,0.5325307846069336,0.5148792266845703
39,48548028.0,9.410696029663086,-1.9537277221679688,2.4625110626220703,0.0980072021484375,-0.024501800537109375,0.025567054748535156,-0.32843589782714844,0.5860471725463867,0.5325307846069336,0.5148792266845703
40,48548048.0,9.444215774536133,-1.9597129821777344,2.5091991424560547,0.0980072021484375,-0.024501800537109375,0.025567054748535156,-0.32843589782714844,0.5860471725463867,0.5325307846069336,0.5148792266845703
41,48548160.0,9.359219551086426,-1.850773811340332,2.6360960006713867,0.011717796325683594,-0.024501800537109375,0.05006885528564453,-0.3308525085449219,0.580479621887207,0.5354223251342773,0.5166053771972656
42,48548180.0,9.367599487304688,-1.7119054794311523,2.6408843994140625,0.040480613708496094,-0.025567054748535156,0.052199363708496094,-0.3308525085449219,0.580479621887207,0.5354223251342773,0.5166053771972656
43,48548200.0,9.256265640258789,-1.7825374603271484,2.53194522857666,0.040480613708496094,0.0010652542114257812,0.07137489318847656,-0.3308525085449219,0.580479621887207,0.5354223251342773,0.5166053771972656
44,48548220.0,9.316122055053711,-1.8519706726074219,2.566661834716797,0.019174575805664062,0.004261016845703125,0.07989692687988281,-0.3308525085449219,0.580479621887207,0.5354223251342773,0.5166053771972656
45,48548240.0,9.510058403015137,-1.8735198974609375,2.5774364471435547,0.014913558959960938,-0.007456779479980469,0.07776641845703125,-0.3308525085449219,0.580479621887207,0.5354223251342773,0.5166053771972656
46,48548260.0,9.475341796875,-1.8974618911743164,2.5271568298339844,0.014913558959960938,-0.007456779479980469,0.07776641845703125,-0.3308525085449219,0.580479621887207,0.5354223251342773,0.5166053771972656
47,48548280.0,9.202394485473633,-1.8986597061157227,2.443356513977051,0.014913558959960938,-0.007456779479980469,0.07776641845703125,-0.3308525085449219,0.580479621887207,0.5354223251342773,0.5166053771972656
48,48548296.0,9.168874740600586,-1.9178133010864258,2.376317024230957,0.014913558959960938,-0.007456779479980469,0.07776641845703125,-0.3308525085449219,0.580479621887207,0.5354223251342773,0.5166053771972656
49,48548320.0,9.40351390838623,-1.8675336837768555,2.4553279876708984,0.014913558959960938,-0.007456779479980469,0.07776641845703125,-0.3308525085449219,0.580479621887207,0.5354223251342773,0.5166053771972656
50,48548336.0,9.310136795043945,-1.7837343215942383,2.3894853591918945,0.014913558959960938,-0.007456779479980469,0.07776641845703125,-0.3308525085449219,0.580479621887207,0.5354223251342773,0.5166053771972656
51,48548456.0,9.318516731262207,-1.8986597061157227,2.29251766204834,0.040480613708496094,-0.022370338439941406,-0.021305084228515625,-0.328521728515625,0.5737037658691406,0.5435791015625,0.5171232223510742
52,48548480.0,9.437033653259277,-1.9465446472167969,2.3739233016967773,0.040480613708496094,-0.022370338439941406,-0.021305084228515625,-0.328521728515625,0.5737037658691406,0.5435791015625,0.5171232223510742
53,48548496.0,9.622589111328125,-1.9405593872070312,2.445751190185547,0.040480613708496094,-0.022370338439941406,-0.021305084228515625,-0.328521728515625,0.5737037658691406,0.5435791015625,0.5171232223510742
54,48548516.0,9.563929557800293,-1.850773811340332,2.4301881790161133,0.040480613708496094,-0.022370338439941406,-0.021305084228515625,-0.328521728515625,0.5737037658691406,0.5435791015625,0.5171232223510742
55,48548536.0,9.439427375793457,-1.8340139389038086,2.4661026000976562,0.040480613708496094,-0.022370338439941406,-0.021305084228515625,-0.328521728515625,0.5737037658691406,0.5435791015625,0.5171232223510742
56,48548556.0,9.639349937438965,-1.8040857315063477,2.576239585876465,0.040480613708496094,-0.022370338439941406,-0.021305084228515625,-0.328521728515625,0.5737037658691406,0.5435791015625,0.5171232223510742
57,48548556.0,9.639349937438965,-1.8040857315063477,2.576239585876465,0.040480613708496094,-0.022370338439941406,-0.021305084228515625,-0.328521728515625,0.5737037658691406,0.5435791015625,0.5171232223510742
58,48548576.0,9.871594429016113,-1.7023286819458008,2.5738449096679688,0.040480613708496094,-0.022370338439941406,-0.021305084228515625,-0.328521728515625,0.5737037658691406,0.5435791015625,0.5171232223510742
59,48548576.0,9.871594429016113,-1.7023286819458008,2.5738449096679688,0.040480613708496094,-0.022370338439941406,-0.021305084228515625,-0.328521728515625,0.5737037658691406,0.5435791015625,0.5171232223510742
60,48548596.0,9.409499168395996,-1.573038101196289,2.4625110626220703,0.040480613708496094,-0.022370338439941406,-0.021305084228515625,-0.328521728515625,0.5737037658691406,0.5435791015625,0.5171232223510742
61,48548596.0,9.409499168395996,-1.573038101196289,2.4625110626220703,0.040480613708496094,-0.022370338439941406,-0.021305084228515625,-0.328521728515625,0.5737037658691406,0.5435791015625,0.5171232223510742
62,48548616.0,9.177254676818848,-1.7849311828613281,2.3918800354003906,0.040480613708496094,-0.022370338439941406,-0.021305084228515625,-0.328521728515625,0.5737037658691406,0.5435791015625,0.5171232223510742
63,48548616.0,9.177254676818848,-1.7849311828613281,2.3918800354003906,0.040480613708496094,-0.022370338439941406,-0.021305084228515625,-0.328521728515625,0.5737037658691406,0.5435791015625,0.5171232223510742
64,48548636.0,9.391542434692383,-1.8268308639526367,2.4804677963256836,0.040480613708496094,-0.022370338439941406,-0.021305084228515625,-0.328521728515625,0.5737037658691406,0.5435791015625,0.5171232223510742
65,48548636.0,9.391542434692383,-1.8268308639526367,2.4804677963256836,0.040480613708496094,-0.022370338439941406,-0.021305084228515625,-0.328521728515625,0.5737037658691406,0.5435791015625,0.5171232223510742
66,48548656.0,9.35562801361084,-1.7394399642944336,2.5187768936157227,0.040480613708496094,-0.022370338439941406,-0.021305084228515625,-0.328521728515625,0.5737037658691406,0.5435791015625,0.5171232223510742
67,48548676.0,8.998881340026855,-1.8818998336791992,2.468496322631836,0.040480613708496094,-0.022370338439941406,-0.021305084228515625,-0.328521728515625,0.5737037658691406,0.5435791015625,0.5171232223510742
68,48548696.0,8.991698265075684,-1.9142217636108398,2.4864540100097656,0.040480613708496094,-0.022370338439941406,-0.021305084228515625,-0.328521728515625,0.5737037658691406,0.5435791015625,0.5171232223510742
69,48548716.0,9.228731155395508,-1.8926734924316406,2.5475082397460938,0.040480613708496094,-0.022370338439941406,-0.021305084228515625,-0.328521728515625,0.5737037658691406,0.5435791015625,0.5171232223510742
70,48548736.0,9.271828651428223,-1.98126220703125,2.4613142013549805,0.040480613708496094,-0.022370338439941406,-0.021305084228515625,-0.328521728515625,0.5737037658691406,0.5435791015625,0.5171232223510742
71,48548864.0,9.274222373962402,-2.018373489379883,2.3739233016967773,0.054329872131347656,-0.0170440673828125,-0.03835010528564453,-0.33823299407958984,0.5696897506713867,0.5483694076538086,0.5102605819702148
72,48548888.0,9.223942756652832,-2.037527084350586,2.4589195251464844,0.054329872131347656,-0.0170440673828125,-0.03835010528564453,-0.33823299407958984,0.5696897506713867,0.5483694076538086,0.5102605819702148
73,48548904.0,9.156903266906738,-1.890279769897461,2.5091991424560547,0.054329872131347656,-0.0170440673828125,-0.03835010528564453,-0.33823299407958984,0.5696897506713867,0.5483694076538086,0.5102605819702148
74,48548928.0,9.14493179321289,-1.756199836730957,2.473285675048828,0.054329872131347656,-0.0170440673828125,-0.03835010528564453,-0.33823299407958984,0.5696897506713867,0.5483694076538086,0.5102605819702148
75,48548944.0,9.041977882385254,-1.7418346405029297,2.3380088806152344,0.054329872131347656,-0.0170440673828125,-0.03835010528564453,-0.33823299407958984,0.5696897506713867,0.5483694076538086,0.5102605819702148
76,48548956.0,9.000078201293945,-1.733454704284668,2.3380088806152344,-0.07244014739990234,0.010652542114257812,0.07989692687988281,-0.33823299407958984,0.5696897506713867,0.5483694076538086,0.5102605819702148
77,48548968.0,9.043174743652344,-1.7322568893432617,2.3559656143188477,-0.0809621810913086,-0.0031957626342773438,0.06604766845703125,-0.33823299407958984,0.5696897506713867,0.5483694076538086,0.5102605819702148
78,48548976.0,9.172466278076172,-1.7358484268188477,2.3595571517944336,-0.08309268951416016,-0.020239830017089844,0.054329872131347656,-0.33823299407958984,0.5696897506713867,0.5483694076538086,0.5102605819702148
79,48548984.0,9.312531471252441,-1.7107086181640625,2.3332204818725586,-0.08202743530273438,-0.0287628173828125,0.04367637634277344,-0.33823299407958984,0.5696897506713867,0.5483694076538086,0.5102605819702148
80,48548996.0,9.360416412353516,-1.6592321395874023,2.266180992126465,-0.0809621810913086,-0.024501800537109375,0.03515434265136719,-0.33823299407958984,0.5696897506713867,0.5483694076538086,0.5102605819702148
81,48549008.0,9.391542434692383,-1.6759920120239258,2.2386465072631836,-0.07883167266845703,-0.025567054748535156,0.02982807159423828,-0.33823299407958984,0.5696897506713867,0.5483694076538086,0.5102605819702148
82,48549016.0,9.421470642089844,-1.699934959411621,2.2697715759277344,-0.07350540161132812,-0.03621959686279297,0.02769756317138672,-0.33823299407958984,0.5696897506713867,0.5483694076538086,0.5102605819702148
83,48549024.0,9.45618724822998,-1.7382431030273438,2.3116722106933594,-0.05965614318847656,-0.05006885528564453,0.024501800537109375,-0.33823299407958984,0.5696897506713867,0.5483694076538086,0.5102605819702148
84,48549036.0,9.49569320678711,-1.8028879165649414,2.2769546508789062,-0.033023834228515625,-0.060721397399902344,0.01810932159423828,-0.33823299407958984,0.5696897506713867,0.5483694076538086,0.5102605819702148
85,48549156.0,9.630970001220703,-1.9261932373046875,2.5798301696777344,0.31426239013671875,-0.1672515869140625,-0.0021305084228515625,-0.33823299407958984,0.5696897506713867,0.5483694076538086,0.5102605819702148
86,48549156.0,9.630970001220703,-1.9261932373046875,2.5798301696777344,0.31426239013671875,-0.1672515869140625,-0.0021305084228515625,-0.33823299407958984,0.5696897506713867,0.5483694076538086,0.5102605819702148
87,48549176.0,9.592660903930664,-2.0782299041748047,2.5499019622802734,0.3110666275024414,-0.19388389587402344,0.02982807159423828,-0.33823299407958984,0.5696897506713867,0.5483694076538086,0.5102605819702148
88,48549176.0,9.592660903930664,-2.0782299041748047,2.5499019622802734,0.3110666275024414,-0.19388389587402344,0.02982807159423828,-0.33823299407958984,0.5696897506713867,0.5483694076538086,0.5102605819702148
89,48549196.0,9.768640518188477,-2.1883668899536133,2.4792709350585938,0.3504819869995117,-0.22264671325683594,0.0628519058227539,-0.33823299407958984,0.5696897506713867,0.5483694076538086,0.5102605819702148
90,48549196.0,9.768640518188477,-2.1883668899536133,2.4792709350585938,0.3504819869995117,-0.22264671325683594,0.0628519058227539,-0.33823299407958984,0.5696897506713867,0.5483694076538086,0.5102605819702148
91,48549216.0,9.800963401794434,-2.3260374069213867,2.328432083129883,0.4506196975708008,-0.24395275115966797,0.10013771057128906,-0.33823299407958984,0.5696897506713867,0.5483694076538086,0.5102605819702148
92,48549216.0,9.800963401794434,-2.3260374069213867,2.328432083129883,0.4506196975708008,-0.24395275115966797,0.10013771057128906,-0.33823299407958984,0.5696897506713867,0.5483694076538086,0.5102605819702148
93,48549236.0,9.762654304504395,-2.2362518310546875,2.2398433685302734,0.609349250793457,-0.28656482696533203,0.14168357849121094,-0.33823299407958984,0.5696897506713867,0.5483694076538086,0.5102605819702148
94,48549236.0,9.762654304504395,-2.2362518310546875,2.2398433685302734,0.609349250793457,-0.28656482696533203,0.14168357849121094,-0.33823299407958984,0.5696897506713867,0.5483694076538086,0.5102605819702148
95,48549356.0,9.233519554138184,-1.6867656707763672,2.7103185653686523,0.609349250793457,-0.28656482696533203,0.14168357849121094,-0.33823299407958984,0.5696897506713867,0.5483694076538086,0.5102605819702148
96,48549376.0,9.09345531463623,-1.727468490600586,2.415822982788086,0.609349250793457,-0.28656482696533203,0.14168357849121094,-0.33823299407958984,0.5696897506713867,0.5483694076538086,0.5102605819702148
97,48549396.0,8.970149993896484,-1.6891603469848633,1.9704875946044922,0.609349250793457,-0.28656482696533203,0.14168357849121094,-0.33823299407958984,0.5696897506713867,0.5483694076538086,0.5102605819702148
98,48549416.0,8.931840896606445,-1.5359268188476562,2.0842161178588867,0.609349250793457,-0.28656482696533203,0.14168357849121094,-0.33823299407958984,0.5696897506713867,0.5483694076538086,0.5102605819702148
99,48549436.0,9.52442455291748,-1.574234962463379,1.952530860900879,0.609349250793457,-0.28656482696533203,0.14168357849121094,-0.33823299407958984,0.5696897506713867,0.5483694076538086,0.5102605819702148
100,48549456.0,10.33488655090332,-1.6508522033691406,1.5239553451538086,-0.15233707427978516,-0.2641935348510742,-0.10120296478271484,-0.33823299407958984,0.5696897506713867,0.5483694076538086,0.5102605819702148
101,48549456.0,10.33488655090332,-1.6508522033691406,1.5239553451538086,-0.15233707427978516,-0.2641935348510742,-0.10120296478271484,-0.33823299407958984,0.5696897506713867,0.5483694076538086,0.5102605819702148
102,48549456.0,10.33488655090332,-1.6508522033691406,1.5239553451538086,-0.15233707427978516,-0.2641935348510742,-0.10120296478271484,-0.33823299407958984,0.5696897506713867,0.5483694076538086,0.5102605819702148
103,48549476.0,10.564736366271973,-1.6340923309326172,1.3683271408081055,-0.14594554901123047,-0.23862648010253906,-0.14807605743408203,-0.33823299407958984,0.5696897506713867,0.5483694076538086,0.5102605819702148
104,48549476.0,10.564736366271973,-1.6340923309326172,1.3683271408081055,-0.14594554901123047,-0.23862648010253906,-0.14807605743408203,-0.33823299407958984,0.5696897506713867,0.5483694076538086,0.5102605819702148
105,48549476.0,10.564736366271973,-1.6340923309326172,1.3683271408081055,-0.14594554901123047,-0.23862648010253906,-0.14807605743408203,-0.33823299407958984,0.5696897506713867,0.5483694076538086,0.5102605819702148
106,48549496.0,10.417489051818848,-1.6664142608642578,1.5431098937988281,-0.021305084228515625,-0.2024059295654297,-0.2024059295654297,-0.33823299407958984,0.5696897506713867,0.5483694076538086,0.5102605819702148
107,48549496.0,10.417489051818848,-1.6664142608642578,1.5431098937988281,-0.021305084228515625,-0.2024059295654297,-0.2024059295654297,-0.33823299407958984,0.5696897506713867,0.5483694076538086,0.5102605819702148
108,48549512.0,11.030423164367676,-1.546701431274414,1.136082649230957,0.08415794372558594,-0.26312828063964844,-0.26845455169677734,-0.33823299407958984,0.5696897506713867,0.5483694076538086,0.5102605819702148
109,48549512.0,11.030423164367676,-1.546701431274414,1.136082649230957,0.08415794372558594,-0.26312828063964844,-0.26845455169677734,-0.33823299407958984,0.5696897506713867,0.5483694076538086,0.5102605819702148
110,48549536.0,11.809759140014648,-1.0319318771362305,0.7374362945556641,0.019174575805664062,-0.25567054748535156,-0.34835147857666016,-0.33823299407958984,0.5696897506713867,0.5483694076538086,0.5102605819702148
111,48549536.0,11.809759140014648,-1.0319318771362305,0.7374362945556641,0.019174575805664062,-0.25567054748535156,-0.34835147857666016,-0.33823299407958984,0.5696897506713867,0.5483694076538086,0.5102605819702148
112,48549656.0,6.684814453125,-1.7980995178222656,1.9800643920898438,0.019174575805664062,-0.25567054748535156,-0.34835147857666016,-0.33823299407958984,0.5696897506713867,0.5483694076538086,0.5102605819702148
113,48549656.0,6.684814453125,-1.7980995178222656,1.9800643920898438,0.019174575805664062,-0.25567054748535156,-0.34835147857666016,-0.33823299407958984,0.5696897506713867,0.5483694076538086,0.5102605819702148
114,48549672.0,6.73509407043457,-1.455718994140625,1.606557846069336,0.019174575805664062,-0.25567054748535156,-0.34835147857666016,-0.33823299407958984,0.5696897506713867,0.5483694076538086,0.5102605819702148
115,48549672.0,6.73509407043457,-1.455718994140625,1.606557846069336,0.019174575805664062,-0.25567054748535156,-0.34835147857666016,-0.33823299407958984,0.5696897506713867,0.5483694076538086,0.5102605819702148
116,48549696.0,6.462146759033203,-0.9996089935302734,1.4976186752319336,0.019174575805664062,-0.25567054748535156,-0.34835147857666016,-0.33823299407958984,0.5696897506713867,0.5483694076538086,0.5102605819702148
117,48549696.0,6.462146759033203,-0.9996089935302734,1.4976186752319336,0.019174575805664062,-0.25567054748535156,-0.34835147857666016,-0.33823299407958984,0.5696897506713867,0.5483694076538086,0.5102605819702148
118,48549712.0,5.936603546142578,-0.6919450759887695,1.7980995178222656,0.019174575805664062,-0.25567054748535156,-0.34835147857666016,-0.33823299407958984,0.5696897506713867,0.5483694076538086,0.5102605819702148
119,48549712.0,5.936603546142578,-0.6919450759887695,1.7980995178222656,0.019174575805664062,-0.25567054748535156,-0.34835147857666016,-0.33823299407958984,0.5696897506713867,0.5483694076538086,0.5102605819702148
120,48549732.0,6.0874433517456055,-0.7063102722167969,1.786128044128418,0.019174575805664062,-0.25567054748535156,-0.34835147857666016,-0.33823299407958984,0.5696897506713867,0.5483694076538086,0.5102605819702148
121,48549732.0,6.0874433517456055,-0.7063102722167969,1.786128044128418,0.019174575805664062,-0.25567054748535156,-0.34835147857666016,-0.33823299407958984,0.5696897506713867,0.5483694076538086,0.5102605819702148
122,48549952.0,11.283019065856934,-2.5127906799316406,1.5215606689453125,-0.08948421478271484,-0.034089088439941406,0.7030954360961914,-0.3514823913574219,0.5121593475341797,0.5547142028808594,0.5535488128662109
123,48549972.0,10.516851425170898,-3.0467138290405273,1.8663368225097656,-0.08948421478271484,-0.034089088439941406,0.7030954360961914,-0.3514823913574219,0.5121593475341797,0.5547142028808594,0.5535488128662109
124,48549992.0,9.739909172058105,-3.1772022247314453,1.7825374603271484,-0.08948421478271484,-0.034089088439941406,0.7030954360961914,-0.3514823913574219,0.5121593475341797,0.5547142028808594,0.5535488128662109
125,48550012.0,9.18563461303711,-3.0347423553466797,1.6628236770629883,-0.08948421478271484,-0.034089088439941406,0.7030954360961914,-0.3514823913574219,0.5121593475341797,0.5547142028808594,0.5535488128662109
126,48550032.0,9.02521800994873,-2.905451774597168,1.8914766311645508,-0.08948421478271484,-0.034089088439941406,0.7030954360961914,-0.3514823913574219,0.5121593475341797,0.5547142028808594,0.5535488128662109
127,48550052.0,9.171268463134766,-2.874326705932617,1.8783082962036133,-0.08948421478271484,-0.034089088439941406,0.7030954360961914,-0.3370237350463867,0.5294227600097656,0.5452194213867188,0.5557498931884766
128,48550072.0,9.457385063171387,-2.72109317779541,1.6855688095092773,-0.3590049743652344,0.27271556854248047,0.0,-0.3333120346069336,0.5320987701416016,0.544011116027832,0.5566129684448242
129,48550092.0,9.59385871887207,-2.6660242080688477,1.5263500213623047,-0.5294523239135742,0.25567054748535156,0.0916147232055664,-0.3283061981201172,0.5348176956176758,0.542241096496582,0.5586843490600586
130,48550112.0,9.470553398132324,-2.8563690185546875,1.417409896850586,-0.6540918350219727,0.25673580169677734,0.14168357849121094,-0.32265281677246094,0.5375804901123047,0.5401697158813477,0.5613174438476562
131,48550132.0,9.489706993103027,-3.0203771591186523,1.6125431060791016,-0.5795211791992188,0.2183856964111328,0.1448802947998047,-0.3179054260253906,0.5396947860717773,0.5386590957641602,0.5634746551513672
132,48550252.0,9.397527694702148,-2.810877799987793,1.479660987854004,-0.5795211791992188,0.2183856964111328,0.1448802947998047,-0.3179054260253906,0.5396947860717773,0.5386590957641602,0.5634746551513672
133,48550252.0,9.397527694702148,-2.810877799987793,1.479660987854004,-0.5795211791992188,0.2183856964111328,0.1448802947998047,-0.3179054260253906,0.5396947860717773,0.5386590957641602,0.5634746551513672
134,48550272.0,9.30534839630127,-2.6803903579711914,1.5814180374145508,-0.5795211791992188,0.2183856964111328,0.1448802947998047,-0.3179054260253906,0.5396947860717773,0.5386590957641602,0.5634746551513672
135,48550272.0,9.30534839630127,-2.6803903579711914,1.5814180374145508,-0.5795211791992188,0.2183856964111328,0.1448802947998047,-0.3179054260253906,0.5396947860717773,0.5386590957641602,0.5634746551513672
136,48550292.0,9.239505767822266,-2.845595359802246,1.824437141418457,-0.5795211791992188,0.2183856964111328,0.1448802947998047,-0.3179054260253906,0.5396947860717773,0.5386590957641602,0.5634746551513672
137,48550292.0,9.239505767822266,-2.845595359802246,1.824437141418457,-0.5795211791992188,0.2183856964111328,0.1448802947998047,-0.3179054260253906,0.5396947860717773,0.5386590957641602,0.5634746551513672
138,48550312.0,9.580689430236816,-2.84439754486084,1.8723220825195312,-0.5795211791992188,0.2183856964111328,0.1448802947998047,-0.3179054260253906,0.5396947860717773,0.5386590957641602,0.5634746551513672
139,48550312.0,9.580689430236816,-2.84439754486084,1.8723220825195312,-0.5795211791992188,0.2183856964111328,0.1448802947998047,-0.3179054260253906,0.5396947860717773,0.5386590957641602,0.5634746551513672
140,48550332.0,9.700403213500977,-2.751021385192871,1.5502920150756836,-0.5795211791992188,0.2183856964111328,0.1448802947998047,-0.3179054260253906,0.5396947860717773,0.5386590957641602,0.5634746551513672
141,48550332.0,9.700403213500977,-2.751021385192871,1.5502920150756836,-0.5795211791992188,0.2183856964111328,0.1448802947998047,-0.3179054260253906,0.5396947860717773,0.5386590957641602,0.5634746551513672
142,48550352.0,9.528016090393066,-2.6779956817626953,1.6233177185058594,0.23223400115966797,0.15979385375976562,-0.1672515869140625,-0.3179054260253906,0.5396947860717773,0.5386590957641602,0.5634746551513672
143,48550372.0,9.379570960998535,-2.634899139404297,1.9261932373046875,0.1619243621826172,0.1502065658569336,-0.17151260375976562,-0.3179054260253906,0.5396947860717773,0.5386590957641602,0.5634746551513672
144,48550392.0,9.353233337402344,-2.8587636947631836,2.124917984008789,0.04793834686279297,0.09374523162841797,-0.2013406753540039,-0.3179054260253906,0.5396947860717773,0.5386590957641602,0.5634746551513672
145,48550412.0,9.364007949829102,-2.7306699752807617,1.9202079772949219,0.0809621810913086,0.05539512634277344,-0.18216514587402344,-0.3179054260253906,0.5396947860717773,0.5386590957641602,0.5634746551513672
146,48550432.0,9.18443775177002,-2.8024978637695312,1.8076772689819336,0.20347118377685547,0.054329872131347656,-0.1448802947998047,-0.3179054260253906,0.5396947860717773,0.5386590957641602,0.5634746551513672
147,48550552.0,9.028809547424316,-2.2769546508789062,2.218295097351074,0.25140953063964844,0.013848304748535156,-0.023435592651367188,-0.33465003967285156,0.5481538772583008,0.5541963577270508,0.5295524597167969
148,48550552.0,9.028809547424316,-2.2769546508789062,2.218295097351074,0.25140953063964844,0.013848304748535156,-0.023435592651367188,-0.33465003967285156,0.5481538772583008,0.5541963577270508,0.5295524597167969
149,48550552.0,9.028809547424316,-2.2769546508789062,2.218295097351074,0.25140953063964844,0.013848304748535156,-0.023435592651367188,-0.33465003967285156,0.5481538772583008,0.5541963577270508,0.5295524597167969
150,48550572.0,9.159296989440918,-2.318854331970215,2.0782299041748047,0.20986270904541016,-0.0010652542114257812,-0.022370338439941406,-0.33465003967285156,0.5481538772583008,0.5541963577270508,0.5295524597167969
151,48550572.0,9.159296989440918,-2.318854331970215,2.0782299041748047,0.20986270904541016,-0.0010652542114257812,-0.022370338439941406,-0.33465003967285156,0.5481538772583008,0.5541963577270508,0.5295524597167969
152,48550572.0,9.159296989440918,-2.318854331970215,2.0782299041748047,0.20986270904541016,-0.0010652542114257812,-0.022370338439941406,-0.33465003967285156,0.5481538772583008,0.5541963577270508,0.5295524597167969
153,48550592.0,9.122185707092285,-2.3056859970092773,2.1021728515625,0.2428874969482422,-0.00852203369140625,-0.013848304748535156,-0.33465003967285156,0.5481538772583008,0.5541963577270508,0.5295524597167969
154,48550592.0,9.122185707092285,-2.3056859970092773,2.1021728515625,0.2428874969482422,-0.00852203369140625,-0.013848304748535156,-0.33465003967285156,0.5481538772583008,0.5541963577270508,0.5295524597167969
155,48550592.0,9.122185707092285,-2.3056859970092773,2.1021728515625,0.2428874969482422,-0.00852203369140625,-0.013848304748535156,-0.33465003967285156,0.5481538772583008,0.5541963577270508,0.5295524597167969
156,48550608.0,9.156903266906738,-2.193155288696289,2.378711700439453,0.26845455169677734,0.0,0.0,-0.33465003967285156,0.5481538772583008,0.5541963577270508,0.5295524597167969
157,48550608.0,9.156903266906738,-2.193155288696289,2.378711700439453,0.26845455169677734,0.0,0.0,-0.33465003967285156,0.5481538772583008,0.5541963577270508,0.5295524597167969
158,48550608.0,9.156903266906738,-2.193155288696289,2.378711700439453,0.26845455169677734,0.0,0.0,-0.33465003967285156,0.5481538772583008,0.5541963577270508,0.5295524597167969
159,48550632.0,9.498086929321289,-2.194352149963379,2.467299461364746,0.22903823852539062,-0.03515434265136719,0.004261016845703125,-0.33465003967285156,0.5481538772583008,0.5541963577270508,0.5295524597167969
160,48550632.0,9.498086929321289,-2.194352149963379,2.467299461364746,0.22903823852539062,-0.03515434265136719,0.004261016845703125,-0.33465003967285156,0.5481538772583008,0.5541963577270508,0.5295524597167969
161,48550632.0,9.498086929321289,-2.194352149963379,2.467299461364746,0.22903823852539062,-0.03515434265136719,0.004261016845703125,-0.33465003967285156,0.5481538772583008,0.5541963577270508,0.5295524597167969
162,48550752.0,9.245491027832031,-2.194352149963379,2.0159788131713867,0.22903823852539062,-0.03515434265136719,0.004261016845703125,-0.33465003967285156,0.5481538772583008,0.5541963577270508,0.5295524597167969
163,48550768.0,9.274222373962402,-2.2398433685302734,2.194352149963379,0.22903823852539062,-0.03515434265136719,0.004261016845703125,-0.33465003967285156,0.5481538772583008,0.5541963577270508,0.5295524597167969
164,48550792.0,9.413090705871582,-2.0530900955200195,2.165620803833008,0.22903823852539062,-0.03515434265136719,0.004261016845703125,-0.33465003967285156,0.5481538772583008,0.5541963577270508,0.5295524597167969
165,48550808.0,9.341261863708496,-1.9764728546142578,2.002810478210449,0.22903823852539062,-0.03515434265136719,0.004261016845703125,-0.33465003967285156,0.5481538772583008,0.5541963577270508,0.5295524597167969
166,48550828.0,9.290982246398926,-1.9872474670410156,1.9896421432495117,0.22903823852539062,-0.03515434265136719,0.004261016845703125,-0.33465003967285156,0.5481538772583008,0.5541963577270508,0.5295524597167969
167,48550848.0,9.343656539916992,-2.0902013778686523,1.9908390045166016,-0.1779041290283203,0.012783050537109375,0.03941535949707031,-0.3375415802001953,0.5437088012695312,0.5611448287963867,0.5249347686767578
168,48550848.0,9.343656539916992,-2.0902013778686523,1.9908390045166016,-0.1779041290283203,0.012783050537109375,0.03941535949707031,-0.3375415802001953,0.5437088012695312,0.5611448287963867,0.5249347686767578
169,48550868.0,9.220351219177246,-2.2027320861816406,1.948939323425293,-0.20879745483398438,0.007456779479980469,0.04474163055419922,-0.3362903594970703,0.544011116027832,0.5603246688842773,0.5262727737426758
170,48550868.0,9.220351219177246,-2.2027320861816406,1.948939323425293,-0.20879745483398438,0.007456779479980469,0.04474163055419922,-0.3362903594970703,0.544011116027832,0.5603246688842773,0.5262727737426758
171,48550888.0,9.276617050170898,-2.1189327239990234,2.0219640731811523,-0.12463951110839844,-0.0031957626342773438,0.06817817687988281,-0.3355131149291992,0.5438385009765625,0.5601520538330078,0.5271358489990234
172,48550888.0,9.276617050170898,-2.1189327239990234,2.0219640731811523,-0.12463951110839844,-0.0031957626342773438,0.06817817687988281,-0.3355131149291992,0.5438385009765625,0.5601520538330078,0.5271358489990234
173,48550908.0,9.4537935256958,-2.080624580383301,1.9668960571289062,-0.0063915252685546875,-0.03941535949707031,0.08841896057128906,-0.33542728424072266,0.5430612564086914,0.5604972839355469,0.527653694152832
174,48550908.0,9.4537935256958,-2.080624580383301,1.9668960571289062,-0.0063915252685546875,-0.03941535949707031,0.08841896057128906,-0.33542728424072266,0.5430612564086914,0.5604972839355469,0.527653694152832
175,48550928.0,9.569915771484375,-1.9273910522460938,1.9908390045166016,0.03835010528564453,-0.05006885528564453,0.0916147232055664,-0.3357725143432617,0.5421981811523438,0.5608425140380859,0.5279989242553711
176,48550928.0,9.569915771484375,-1.9273910522460938,1.9908390045166016,0.03835010528564453,-0.05006885528564453,0.0916147232055664,-0.3357725143432617,0.5421981811523438,0.5608425140380859,0.5279989242553711
177,48550948.0,9.68484115600586,-1.968092918395996,2.0937929153442383,0.03835010528564453,-0.05006885528564453,0.0916147232055664,-0.3357725143432617,0.5421981811523438,0.5608425140380859,0.5279989242553711
178,48550968.0,9.561535835266113,-2.0171756744384766,2.0602731704711914,0.03835010528564453,-0.05006885528564453,0.0916147232055664,-0.3357725143432617,0.5421981811523438,0.5608425140380859,0.5279989242553711
179,48550988.0,9.439427375793457,-1.9896421432495117,2.197943687438965,0.03835010528564453,-0.05006885528564453,0.0916147232055664,-0.3357725143432617,0.5421981811523438,0.5608425140380859,0.5279989242553711
180,48551008.0,9.492101669311523,-1.9764728546142578,2.1225242614746094,0.03835010528564453,-0.05006885528564453,0.0916147232055664,-0.3357725143432617,0.5421981811523438,0.5608425140380859,0.5279989242553711
181,48551028.0,9.359219551086426,-1.9597129821777344,2.1775922775268555,0.03835010528564453,-0.05006885528564453,0.0916147232055664,-0.3357725143432617,0.5421981811523438,0.5608425140380859,0.5279989242553711
182,48551148.0,9.669278144836426,-2.2673778533935547,2.22308349609375,-0.13103103637695312,-0.026632308959960938,-0.0628519058227539,-0.3357725143432617,0.5421981811523438,0.5608425140380859,0.5279989242553711
183,48551168.0,9.459778785705566,-2.219491958618164,2.3056859970092773,-0.0692434310913086,-0.0063915252685546875,-0.08202743530273438,-0.3357725143432617,0.5421981811523438,0.5608425140380859,0.5279989242553711
184,48551188.0,9.33647346496582,-2.162029266357422,2.218295097351074,-0.020239830017089844,-0.0010652542114257812,-0.0692434310913086,-0.3357725143432617,0.5421981811523438,0.5608425140380859,0.5279989242553711
185,48551208.0,9.299362182617188,-2.2973060607910156,2.193155288696289,-0.033023834228515625,-0.0010652542114257812,-0.04474163055419922,-0.3357725143432617,0.5421981811523438,0.5608425140380859,0.5279989242553711
186,48551228.0,9.323305130004883,-2.320052146911621,2.158437728881836,-0.04367637634277344,0.007456779479980469,-0.012783050537109375,-0.3357725143432617,0.5421981811523438,0.5608425140380859,0.5279989242553711
187,48551248.0,9.380767822265625,-2.34279727935791,2.2362518310546875,-0.04367637634277344,0.007456779479980469,-0.012783050537109375,-0.3357725143432617,0.5421981811523438,0.5608425140380859,0.5279989242553711
188,48551268.0,9.331685066223145,-2.17160701751709,2.1763954162597656,-0.04367637634277344,0.007456779479980469,-0.012783050537109375,-0.3357725143432617,0.5421981811523438,0.5608425140380859,0.5279989242553711
189,48551288.0,9.498086929321289,-2.189563751220703,2.077033042907715,-0.04367637634277344,0.007456779479980469,-0.012783050537109375,-0.3357725143432617,0.5421981811523438,0.5608425140380859,0.5279989242553711
190,48551308.0,9.731529235839844,-2.2578001022338867,2.0878067016601562,-0.04367637634277344,0.007456779479980469,-0.012783050537109375,-0.3357725143432617,0.5421981811523438,0.5608425140380859,0.5279989242553711
191,48551328.0,9.785400390625,-2.2697715759277344,2.22308349609375,-0.04367637634277344,0.007456779479980469,-0.012783050537109375,-0.3357725143432617,0.5421981811523438,0.5608425140380859,0.5279989242553711
192,48551348.0,9.81652545928955,-2.1955490112304688,2.10097599029541,0.019174575805664062,0.0,0.10226821899414062,-0.3357725143432617,0.5421981811523438,0.5608425140380859,0.5279989242553711
193,48551368.0,9.481327056884766,-2.1728038787841797,2.1081581115722656,0.013848304748535156,0.019174575805664062,0.08522319793701172,-0.3357725143432617,0.5421981811523438,0.5608425140380859,0.5279989242553711
194,48551388.0,9.125777244567871,-2.248223304748535,2.175198554992676,-0.0031957626342773438,0.024501800537109375,0.06711292266845703,-0.3357725143432617,0.5421981811523438,0.5608425140380859,0.5279989242553711
195,48551408.0,9.009654998779297,-2.215900421142578,2.2613916397094727,0.041545867919921875,0.005326271057128906,0.031958580017089844,-0.3357725143432617,0.5421981811523438,0.5608425140380859,0.5279989242553711
196,48551428.0,8.988106727600098,-2.03273868560791,2.1787891387939453,0.10013771057128906,0.0010652542114257812,0.00852203369140625,-0.3357725143432617,0.5421981811523438,0.5608425140380859,0.5279989242553711
197,48551448.0,8.90550422668457,-2.009993553161621,2.1189327239990234,0.10013771057128906,0.0010652542114257812,0.00852203369140625,-0.33775806427001953,0.5361557006835938,0.5647268295288086,0.5286893844604492
198,48551468.0,8.861209869384766,-2.130904197692871,2.069849967956543,0.10013771057128906,0.0010652542114257812,0.00852203369140625,-0.3376283645629883,0.5367164611816406,0.5645971298217773,0.5283870697021484
199,48551488.0,9.23591423034668,-2.249420166015625,2.1404809951782227,0.10013771057128906,0.0010652542114257812,0.00852203369140625,-0.33741283416748047,0.5373210906982422,0.5639066696166992,0.5286035537719727
200,48551508.0,9.549564361572266,-2.2829408645629883,1.9728822708129883,0.10013771057128906,0.0010652542114257812,0.00852203369140625,-0.3372831344604492,0.5378389358520508,0.5633888244628906,0.5287322998046875
201,48551528.0,9.59625244140625,-2.3332204818725586,1.9285879135131836,0.10013771057128906,0.0010652542114257812,0.00852203369140625,-0.3372831344604492,0.5381412506103516,0.5631732940673828,0.5286464691162109
202,48551548.0,9.481327056884766,-2.348782539367676,2.0016136169433594,0.10013771057128906,0.0010652542114257812,0.00852203369140625,-0.3372831344604492,0.5381412506103516,0.5631732940673828,0.5286464691162109
203,48551548.0,9.481327056884766,-2.348782539367676,2.0016136169433594,0.10013771057128906,0.0010652542114257812,0.00852203369140625,-0.3372831344604492,0.5381412506103516,0.5631732940673828,0.5286464691162109
204,48551568.0,9.413090705871582,-2.2997007369995117,2.124917984008789,0.10013771057128906,0.0010652542114257812,0.00852203369140625,-0.3372831344604492,0.5381412506103516,0.5631732940673828,0.5286464691162109
205,48551568.0,9.413090705871582,-2.2997007369995117,2.124917984008789,0.10013771057128906,0.0010652542114257812,0.00852203369140625,-0.3372831344604492,0.5381412506103516,0.5631732940673828,0.5286464691162109
206,48551588.0,9.422667503356934,-2.2374496459960938,2.0566816329956055,0.10013771057128906,0.0010652542114257812,0.00852203369140625,-0.3372831344604492,0.5381412506103516,0.5631732940673828,0.5286464691162109
207,48551588.0,9.422667503356934,-2.2374496459960938,2.0566816329956055,0.10013771057128906,0.0010652542114257812,0.00852203369140625,-0.3372831344604492,0.5381412506103516,0.5631732940673828,0.5286464691162109
208,48551608.0,9.410696029663086,-2.2087182998657227,2.005204200744629,0.10013771057128906,0.0010652542114257812,0.00852203369140625,-0.3372831344604492,0.5381412506103516,0.5631732940673828,0.5286464691162109
209,48551608.0,9.410696029663086,-2.2087182998657227,2.005204200744629,0.10013771057128906,0.0010652542114257812,0.00852203369140625,-0.3372831344604492,0.5381412506103516,0.5631732940673828,0.5286464691162109
210,48551628.0,9.226337432861328,-2.185972213745117,2.0602731704711914,0.10013771057128906,0.0010652542114257812,0.00852203369140625,-0.3372831344604492,0.5381412506103516,0.5631732940673828,0.5286464691162109
211,48551628.0,9.226337432861328,-2.185972213745117,2.0602731704711914,0.10013771057128906,0.0010652542114257812,0.00852203369140625,-0.3372831344604492,0.5381412506103516,0.5631732940673828,0.5286464691162109
212,48551748.0,9.396330833435059,-2.48166561126709,2.097384452819824,-0.07670116424560547,0.005326271057128906,-0.05859088897705078,-0.33870697021484375,0.5394363403320312,0.5623102188110352,0.5273942947387695
213,48551768.0,9.4537935256958,-2.3703317642211914,2.0866098403930664,-0.07670116424560547,0.005326271057128906,-0.05859088897705078,-0.33870697021484375,0.5394363403320312,0.5623102188110352,0.5273942947387695
214,48551788.0,9.369993209838867,-2.321249008178711,2.069849967956543,-0.07670116424560547,0.005326271057128906,-0.05859088897705078,-0.33870697021484375,0.5394363403320312,0.5623102188110352,0.5273942947387695
215,48551808.0,9.252674102783203,-2.320052146911621,2.0902013778686523,-0.07670116424560547,0.005326271057128906,-0.05859088897705078,-0.33870697021484375,0.5394363403320312,0.5623102188110352,0.5273942947387695
216,48551824.0,9.310136795043945,-2.353571891784668,2.1476640701293945,-0.07670116424560547,0.005326271057128906,-0.05859088897705078,-0.33870697021484375,0.5394363403320312,0.5623102188110352,0.5273942947387695
217,48551848.0,9.398724555969238,-2.3272342681884766,2.029147148132324,-0.010652542114257812,-0.02982807159423828,-0.010652542114257812,-0.33870697021484375,0.5394363403320312,0.5623102188110352,0.5273942947387695
218,48551864.0,9.368796348571777,-2.347585678100586,2.004007339477539,0.0170440673828125,-0.020239830017089844,-0.007456779479980469,-0.33870697021484375,0.5394363403320312,0.5623102188110352,0.5273942947387695
219,48551888.0,9.366402626037598,-2.3272342681884766,2.073441505432129,0.033023834228515625,-0.025567054748535156,-0.004261016845703125,-0.33870697021484375,0.5394363403320312,0.5623102188110352,0.5273942947387695
220,48551904.0,9.463370323181152,-2.3344173431396484,2.1512556076049805,0.054329872131347656,-0.03621959686279297,-0.012783050537109375,-0.33870697021484375,0.5394363403320312,0.5623102188110352,0.5273942947387695
221,48551924.0,9.441822052001953,-2.2362518310546875,2.077033042907715,0.07030868530273438,-0.040480613708496094,-0.013848304748535156,-0.33870697021484375,0.5394363403320312,0.5623102188110352,0.5273942947387695
222,48551944.0,9.271828651428223,-2.284137725830078,2.068653106689453,0.060721397399902344,-0.010652542114257812,-0.0031957626342773438,-0.33870697021484375,0.5394363403320312,0.5623102188110352,0.5273942947387695
223,48551964.0,9.313728332519531,-2.3044891357421875,2.0818214416503906,0.04793834686279297,-0.019174575805664062,0.007456779479980469,-0.33870697021484375,0.5394363403320312,0.5623102188110352,0.5273942947387695
224,48551984.0,9.478933334350586,-2.280546188354492,2.1464672088623047,0.03621959686279297,-0.034089088439941406,0.014913558959960938,-0.33870697021484375,0.5394363403320312,0.5623102188110352,0.5273942947387695
225,48552004.0,9.460975646972656,-2.254209518432617,2.1368894577026367,0.04687213897705078,-0.031958580017089844,0.011717796325683594,-0.33870697021484375,0.5394363403320312,0.5623102188110352,0.5273942947387695
226,48552024.0,9.319713592529297,-2.258997917175293,2.123721122741699,0.05646038055419922,-0.019174575805664062,0.012783050537109375,-0.33870697021484375,0.5394363403320312,0.5623102188110352,0.5273942947387695
227,48552048.0,9.329291343688965,-2.219491958618164,2.135692596435547,0.05646038055419922,-0.019174575805664062,0.012783050537109375,-0.33870697021484375,0.5394363403320312,0.5623102188110352,0.5273942947387695
228,48552064.0,9.452595710754395,-2.278151512145996,2.175198554992676,0.05646038055419922,-0.019174575805664062,0.012783050537109375,-0.33870697021484375,0.5394363403320312,0.5623102188110352,0.5273942947387695
229,48552088.0,9.482524871826172,-2.340402603149414,2.197943687438965,0.05646038055419922,-0.019174575805664062,0.012783050537109375,-0.33870697021484375,0.5394363403320312,0.5623102188110352,0.5273942947387695
230,48552104.0,9.445413589477539,-2.2757577896118164,2.187169075012207,0.05646038055419922,-0.019174575805664062,0.012783050537109375,-0.33870697021484375,0.5394363403320312,0.5623102188110352,0.5273942947387695
231,48552124.0,9.372387886047363,-2.226675033569336,2.1141443252563477,0.05646038055419922,-0.019174575805664062,0.012783050537109375,-0.33870697021484375,0.5394363403320312,0.5623102188110352,0.5273942947387695
232,48552144.0,9.434638977050781,-2.2135066986083984,2.158437728881836,0.16298961639404297,-0.0063915252685546875,0.040480613708496094,-0.33870697021484375,0.5394363403320312,0.5623102188110352,0.5273942947387695
233,48552164.0,9.362811088562012,-2.1189327239990234,2.1799869537353516,0.14807605743408203,-0.0010652542114257812,0.04793834686279297,-0.33870697021484375,0.5394363403320312,0.5623102188110352,0.5273942947387695
234,48552184.0,9.275420188903809,-2.096186637878418,2.2470264434814453,0.10546398162841797,0.0063915252685546875,0.05965614318847656,-0.33870697021484375,0.5394363403320312,0.5623102188110352,0.5273942947387695
235,48552204.0,9.328093528747559,-2.135692596435547,2.124917984008789,0.06391716003417969,0.0010652542114257812,0.061786651611328125,-0.33870697021484375,0.5394363403320312,0.5623102188110352,0.5273942947387695
236,48552224.0,9.402316093444824,-2.0459070205688477,2.1165380477905273,0.03515434265136719,0.0063915252685546875,0.06391716003417969,-0.33870697021484375,0.5394363403320312,0.5623102188110352,0.5273942947387695
237,48552244.0,9.329291343688965,-2.069849967956543,2.1261157989501953,-0.010652542114257812,0.02982807159423828,0.060721397399902344,-0.33870697021484375,0.5394363403320312,0.5623102188110352,0.5273942947387695
238,48552264.0,9.310136795043945,-2.1955490112304688,2.073441505432129,-0.045806884765625,0.020239830017089844,0.054329872131347656,-0.33870697021484375,0.5394363403320312,0.5623102188110352,0.5273942947387695
239,48552284.0,9.33647346496582,-2.1452693939208984,2.0866098403930664,-0.045806884765625,0.020239830017089844,0.054329872131347656,-0.34630298614501953,0.5305881500244141,0.5705528259277344,0.5224742889404297
240,48552304.0,9.37597942352295,-2.10097599029541,2.0255556106567383,-0.045806884765625,0.020239830017089844,0.054329872131347656,-0.34604454040527344,0.530242919921875,0.571070671081543,0.5224742889404297
241,48552324.0,9.422667503356934,-2.10097599029541,2.059075355529785,-0.045806884765625,0.020239830017089844,0.054329872131347656,-0.34604454040527344,0.5298118591308594,0.5715885162353516,0.5223016738891602
242,48552344.0,9.422667503356934,-2.139284133911133,2.094989776611328,-0.045806884765625,0.020239830017089844,0.054329872131347656,-0.34621715545654297,0.5294666290283203,0.5721063613891602,0.5219564437866211
243,48552364.0,9.409499168395996,-2.106961250305176,2.1524524688720703,0.0862884521484375,0.011717796325683594,0.022370338439941406,-0.34621715545654297,0.5294666290283203,0.5721063613891602,0.5219564437866211
244,48552384.0,9.391542434692383,-2.0315418243408203,2.099778175354004,0.10226821899414062,0.007456779479980469,0.012783050537109375,-0.34621715545654297,0.5294666290283203,0.5721063613891602,0.5219564437866211
245,48552404.0,9.429850578308105,-2.0171756744384766,2.127312660217285,0.07137489318847656,0.00852203369140625,0.005326271057128906,-0.34621715545654297,0.5294666290283203,0.5721063613891602,0.5219564437866211
246,48552424.0,9.429850578308105,-2.0602731704711914,2.2027320861816406,0.00852203369140625,0.0021305084228515625,-0.007456779479980469,-0.34621715545654297,0.5294666290283203,0.5721063613891602,0.5219564437866211
247,48552444.0,9.329291343688965,-2.1428756713867188,2.1847753524780273,-0.04687213897705078,0.009587287902832031,-0.019174575805664062,-0.34621715545654297,0.5294666290283203,0.5721063613891602,0.5219564437866211
248,48552564.0,9.250279426574707,-2.197943687438965,2.1740007400512695,-0.0692434310913086,0.025567054748535156,0.010652542114257812,-0.34621715545654297,0.5294666290283203,0.5721063613891602,0.5219564437866211
249,48552584.0,9.311333656311035,-2.218295097351074,2.193155288696289,-0.0692434310913086,0.025567054748535156,0.010652542114257812,-0.34621715545654297,0.5294666290283203,0.5721063613891602,0.5219564437866211
250,48552604.0,9.329291343688965,-2.233858108520508,2.1763954162597656,-0.0692434310913086,0.025567054748535156,0.010652542114257812,-0.34621715545654297,0.5294666290283203,0.5721063613891602,0.5219564437866211
251,48552624.0,9.324501991271973,-2.248223304748535,2.105764389038086,-0.0692434310913086,0.025567054748535156,0.010652542114257812,-0.34621715545654297,0.5294666290283203,0.5721063613891602,0.5219564437866211
252,48552644.0,9.413090705871582,-2.2709693908691406,2.1740007400512695,-0.0692434310913086,0.025567054748535156,0.010652542114257812,-0.34621715545654297,0.5294666290283203,0.5721063613891602,0.5219564437866211
253,48552664.0,9.438230514526367,-2.2997007369995117,2.1991405487060547,-0.0692434310913086,0.025567054748535156,0.010652542114257812,-0.34621715545654297,0.5294666290283203,0.5721063613891602,0.5219564437866211
254,48552664.0,9.438230514526367,-2.2997007369995117,2.1991405487060547,-0.0692434310913086,0.025567054748535156,0.010652542114257812,-0.34621715545654297,0.5294666290283203,0.5721063613891602,0.5219564437866211
255,48552680.0,9.475341796875,-2.2673778533935547,2.197943687438965,-0.0692434310913086,0.025567054748535156,0.010652542114257812,-0.34621715545654297,0.5294666290283203,0.5721063613891602,0.5219564437866211
256,48552680.0,9.475341796875,-2.2673778533935547,2.197943687438965,-0.0692434310913086,0.025567054748535156,0.010652542114257812,-0.34621715545654297,0.5294666290283203,0.5721063613891602,0.5219564437866211
257,48552704.0,9.362811088562012,-2.22428035736084,2.190760612487793,-0.0692434310913086,0.025567054748535156,0.010652542114257812,-0.34621715545654297,0.5294666290283203,0.5721063613891602,0.5219564437866211
258,48552704.0,9.362811088562012,-2.22428035736084,2.190760612487793,-0.0692434310913086,0.025567054748535156,0.010652542114257812,-0.34621715545654297,0.5294666290283203,0.5721063613891602,0.5219564437866211
259,48552720.0,9.21675968170166,-2.2685747146606445,2.2386465072631836,-0.0692434310913086,0.025567054748535156,0.010652542114257812,-0.34621715545654297,0.5294666290283203,0.5721063613891602,0.5219564437866211
260,48552720.0,9.21675968170166,-2.2685747146606445,2.2386465072631836,-0.0692434310913086,0.025567054748535156,0.010652542114257812,-0.34621715545654297,0.5294666290283203,0.5721063613891602,0.5219564437866211
261,48552744.0,9.271828651428223,-2.3116722106933594,2.2649831771850586,-0.0692434310913086,0.025567054748535156,0.010652542114257812,-0.34621715545654297,0.5294666290283203,0.5721063613891602,0.5219564437866211
262,48552744.0,9.271828651428223,-2.3116722106933594,2.2649831771850586,-0.0692434310913086,0.025567054748535156,0.010652542114257812,-0.34621715545654297,0.5294666290283203,0.5721063613891602,0.5219564437866211
263,48552764.0,9.414287567138672,-2.369133949279785,2.244631767272949,-0.0692434310913086,0.025567054748535156,0.010652542114257812,-0.34621715545654297,0.5294666290283203,0.5721063613891602,0.5219564437866211
264,48552784.0,9.348444938659668,-2.266180992126465,2.1668176651000977,-0.024501800537109375,0.0063915252685546875,-0.00852203369140625,-0.34621715545654297,0.5294666290283203,0.5721063613891602,0.5219564437866211
265,48552800.0,9.251477241516113,-2.218295097351074,2.218295097351074,-0.0063915252685546875,0.023435592651367188,-0.004261016845703125,-0.34621715545654297,0.5294666290283203,0.5721063613891602,0.5219564437866211
266,48552824.0,9.325699806213379,-2.260194778442383,2.194352149963379,-0.02769756317138672,0.010652542114257812,0.005326271057128906,-0.34621715545654297,0.5294666290283203,0.5721063613891602,0.5219564437866211
267,48552840.0,9.401119232177734,-2.229069709777832,2.158437728881836,-0.034089088439941406,0.0063915252685546875,0.0010652542114257812,-0.34621715545654297,0.5294666290283203,0.5721063613891602,0.5219564437866211
268,48552864.0,9.40351390838623,-2.251814842224121,2.109355926513672,-0.031958580017089844,0.009587287902832031,0.014913558959960938,-0.34621715545654297,0.5294666290283203,0.5721063613891602,0.5219564437866211
269,48552884.0,9.377176284790039,-2.310474395751953,2.1452693939208984,-0.04687213897705078,0.00852203369140625,0.02982807159423828,-0.34621715545654297,0.5294666290283203,0.5721063613891602,0.5219564437866211
270,48552904.0,9.393936157226562,-2.3655433654785156,2.1045665740966797,-0.04793834686279297,0.007456779479980469,0.02982807159423828,-0.34621715545654297,0.5294666290283203,0.5721063613891602,0.5219564437866211
271,48552924.0,9.432244300842285,-2.53194522857666,2.160832405090332,-0.011717796325683594,0.009587287902832031,0.03621959686279297,-0.34621715545654297,0.5294666290283203,0.5721063613891602,0.5219564437866211
272,48552944.0,9.840468406677246,-2.9473514556884766,2.4206113815307617,0.09374523162841797,-0.01597881317138672,0.05859088897705078,-0.34621715545654297,0.5294666290283203,0.5721063613891602,0.5219564437866211
273,48552964.0,10.860429763793945,-3.9613265991210938,2.784541130065918,0.39948558807373047,-0.11505126953125,0.11079025268554688,-0.34621715545654297,0.5294666290283203,0.5721063613891602,0.5219564437866211
274,48552984.0,11.413507461547852,-3.8775272369384766,2.0171756744384766,0.39948558807373047,-0.11505126953125,0.11079025268554688,-0.34621715545654297,0.5294666290283203,0.5721063613891602,0.5219564437866211
275,48553000.0,11.789407730102539,-3.401066780090332,2.8300323486328125,0.39948558807373047,-0.11505126953125,0.11079025268554688,-0.34621715545654297,0.5294666290283203,0.5721063613891602,0.5219564437866211
276,48553024.0,13.601874351501465,-6.751853942871094,4.692777633666992,0.39948558807373047,-0.11505126953125,0.11079025268554688,-0.34621715545654297,0.5294666290283203,0.5721063613891602,0.5219564437866211
277,48553040.0,15.220403671264648,-6.629746437072754,5.151281356811523,0.39948558807373047,-0.11505126953125,0.11079025268554688,-0.34621715545654297,0.5294666290283203,0.5721063613891602,0.5219564437866211
278,48553064.0,16.69168472290039,-4.529967308044434,4.568275451660156,0.39948558807373047,-0.11505126953125,0.11079025268554688,-0.34621715545654297,0.5294666290283203,0.5721063613891602,0.5219564437866211
279,48553080.0,16.79224395751953,-6.262225151062012,5.320077896118164,2.810253143310547,-0.2578010559082031,3.51547908782959,-0.34621715545654297,0.5294666290283203,0.5721063613891602,0.5219564437866211
280,48553100.0,17.301029205322266,-10.996903419494629,6.658477783203125,2.219013214111328,0.1491413116455078,4.194073677062988,-0.34621715545654297,0.5294666290283203,0.5721063613891602,0.5219564437866211
281,48553120.0,16.25113868713379,-10.394742965698242,5.974911689758301,2.9125213623046875,0.8042984008789062,4.697958946228027,-0.34621715545654297,0.5294666290283203,0.5721063613891602,0.5219564437866211
282,48553140.0,12.36523151397705,-8.493688583374023,6.068288803100586,2.8219709396362305,1.6075325012207031,4.879059791564941,-0.34621715545654297,0.5294666290283203,0.5721063613891602,0.5219564437866211
283,48553160.0,9.738712310791016,-7.3767595291137695,8.2135591506958,1.3795595169067383,2.1572256088256836,4.941911697387695,-0.34621715545654297,0.5294666290283203,0.5721063613891602,0.5219564437866211
284,48553184.0,7.777800559997559,-8.21595287322998,8.460168838500977,-0.11398601531982422,2.693070411682129,4.950434684753418,-0.34621715545654297,0.5294666290283203,0.5721063613891602,0.5219564437866211
285,48553200.0,5.050722122192383,-8.323695182800293,7.680832862854004,-0.8288002014160156,3.366337776184082,5.013286590576172,-0.34621715545654297,0.5294666290283203,0.5721063613891602,0.5219564437866211
286,48553220.0,3.547117233276367,-7.860403060913086,7.148106575012207,-0.5283870697021484,3.7945871353149414,4.946173667907715,-0.34621715545654297,0.5294666290283203,0.5721063613891602,0.5219564437866211
287,48553240.0,3.4094467163085938,-7.095432281494141,6.477709770202637,0.0809621810913086,4.017233848571777,5.085726737976074,-0.34621715545654297,0.5294666290283203,0.5721063613891602,0.5219564437866211
288,48553260.0,3.872738838195801,-3.925413131713867,5.766610145568848,0.2418222427368164,4.099262237548828,5.328615188598633,-0.34621715545654297,0.5294666290283203,0.5721063613891602,0.5219564437866211
289,48553280.0,2.727078437805176,-2.4361743927001953,3.553103446960449,-0.7915153503417969,4.154657363891602,5.474560737609863,-0.34621715545654297,0.5294666290283203,0.5721063613891602,0.5219564437866211
290,48553300.0,0.5446968078613281,-4.295328140258789,2.0135841369628906,-1.7769145965576172,4.0449323654174805,5.729166030883789,-0.34621715545654297,0.5294666290283203,0.5721063613891602,0.5219564437866211
291,48553320.0,0.5818080902099609,-5.856395721435547,1.699934959411621,-1.3880815505981445,3.446234703063965,5.947552680969238,-0.34621715545654297,0.5294666290283203,0.5721063613891602,0.5219564437866211
292,48553340.0,1.1995315551757812,-5.314092636108398,1.2462196350097656,-0.040480613708496094,2.99668025970459,5.983772277832031,-0.34621715545654297,0.5294666290283203,0.5721063613891602,0.5219564437866211
293,48553360.0,-0.33519840240478516,-3.337618827819824,-0.40104007720947266,0.6998996734619141,2.974308967590332,5.689750671386719,-0.34621715545654297,0.5294666290283203,0.5721063613891602,0.5219564437866211
294,48553380.0,-1.8818998336791992,-3.4800777435302734,0.5399084091186523,1.182478904724121,2.918912887573242,5.102771759033203,-0.34621715545654297,0.5294666290283203,0.5721063613891602,0.5219564437866211
295,48553400.0,-2.41103458404541,-3.900273323059082,0.6775789260864258,1.47650146484375,2.734617233276367,4.679848670959473,-0.34621715545654297,0.5294666290283203,0.5721063613891602,0.5219564437866211
296,48553420.0,-2.60137939453125,-1.2414312362670898,0.9624977111816406,1.141998291015625,2.475749969482422,4.074760437011719,-0.34621715545654297,0.5294666290283203,0.5721063613891602,0.5219564437866211
297,48553440.0,-4.046323776245117,-0.5662450790405273,1.1348857879638672,0.3867025375366211,2.468292236328125,3.4227981567382812,-0.34621715545654297,0.5294666290283203,0.5721063613891602,0.5219564437866211
298,48553460.0,-5.2781782150268555,-2.406245231628418,-0.07302474975585938,-0.5433006286621094,2.3862648010253906,3.037160873413086,-0.34621715545654297,0.5294666290283203,0.5721063613891602,0.5219564437866211
299,48553480.0,-5.569082260131836,-2.2039289474487305,0.7458162307739258,-0.5433006286621094,2.3862648010253906,3.037160873413086,-0.34621715545654297,0.5294666290283203,0.5721063613891602,0.5219564437866211
300,48553500.0,-5.8001298904418945,-0.9397525787353516,1.5981779098510742,-0.5433006286621094,2.3862648010253906,3.037160873413086,-0.34621715545654297,0.5294666290283203,0.5721063613891602,0.5219564437866211
301,48553520.0,-5.749850273132324,-1.5909948348999023,2.8036956787109375,-0.5433006286621094,2.3862648010253906,3.037160873413086,-0.34621715545654297,0.5294666290283203,0.5721063613891602,0.5219564437866211
302,48553540.0,-6.217930793762207,-3.3603639602661133,-0.06105327606201172,-0.5433006286621094,2.3862648010253906,3.037160873413086,-0.34621715545654297,0.5294666290283203,0.5721063613891602,0.5219564437866211
303,48553560.0,-7.612595558166504,-4.405465126037598,-2.6959524154663086,-0.5433006286621094,2.3862648010253906,3.037160873413086,-0.34621715545654297,0.5294666290283203,0.5721063613891602,0.5219564437866211
304,48553580.0,-8.624176979064941,-4.447364807128906,1.1779823303222656,1.141998291015625,1.6064672470092773,1.19952392578125,-0.34621715545654297,0.5294666290283203,0.5721063613891602,0.5219564437866211
305,48553600.0,-8.020819664001465,-1.0271434783935547,4.470109939575195,1.4104528427124023,1.3774280548095703,0.912959098815918,-0.34621715545654297,0.5294666290283203,0.5721063613891602,0.5219564437866211
306,48553620.0,-8.360806465148926,-2.8934803009033203,1.4353675842285156,0.18109989166259766,1.4637174606323242,0.7851238250732422,-0.34621715545654297,0.5294666290283203,0.5721063613891602,0.5219564437866211
307,48553640.0,-9.340065002441406,-5.901886940002441,1.8004941940307617,-0.8202781677246094,1.789698600769043,1.0748844146728516,-0.34621715545654297,0.5294666290283203,0.5721063613891602,0.5219564437866211
308,48553660.0,-6.56390380859375,5.284163475036621,-23.035316467285156,-0.9949865341186523,1.5404186248779297,1.220829963684082,-0.34621715545654297,0.5294666290283203,0.5721063613891602,0.5219564437866211
309,48553680.0,-7.607807159423828,-1.9261932373046875,38.87464141845703,1.2591800689697266,4.139743804931641,2.8560609817504883,-0.34621715545654297,0.5294666290283203,0.5721063613891602,0.5219564437866211
310,48553700.0,0.7577877044677734,5.667247772216797,-2.692361831665039,-8.417976379394531,-1.4807624816894531,-0.29721736907958984,-0.34621715545654297,0.5294666290283203,0.5721063613891602,0.5219564437866211
311,48553720.0,-14.111854553222656,-5.820481300354004,-10.88556957244873,-1.9921045303344727,2.4224843978881836,-0.93426513671875,-0.34621715545654297,0.5294666290283203,0.5721063613891602,0.5219564437866211
312,48553740.0,-9.739909172058105,-4.539544105529785,-5.843227386474609,0.9513101577758789,0.530517578125,-0.5571498870849609,-0.34621715545654297,0.5294666290283203,0.5721063613891602,0.5219564437866211
313,48553760.0,-3.82485294342041,-0.7134933471679688,-4.872348785400391,4.5275115966796875,-2.1614866256713867,-1.5201778411865234,-0.34621715545654297,0.5294666290283203,0.5721063613891602,0.5219564437866211
314,48553780.0,-5.334444046020508,0.6380739212036133,-0.9349641799926758,4.5275115966796875,-2.1614866256713867,-1.5201778411865234,-0.34621715545654297,0.5294666290283203,0.5721063613891602,0.5219564437866211
315,48553800.0,-4.607781410217285,-3.685985565185547,-0.16999340057373047,4.5275115966796875,-2.1614866256713867,-1.5201778411865234,-0.34621715545654297,0.5294666290283203,0.5721063613891602,0.5219564437866211
316,48553816.0,-2.598984718322754,-6.068288803100586,-1.7059202194213867,4.5275115966796875,-2.1614866256713867,-1.5201778411865234,-0.34621715545654297,0.5294666290283203,0.5721063613891602,0.5219564437866211
317,48553840.0,-3.158047676086426,-4.562290191650391,-0.2597780227661133,4.5275115966796875,-2.1614866256713867,-1.5201778411865234,-0.34621715545654297,0.5294666290283203,0.5721063613891602,0.5219564437866211
318,48553860.0,-3.618946075439453,-3.7302799224853516,0.8092641830444336,4.5275115966796875,-2.1614866256713867,-1.5201778411865234,-0.34621715545654297,0.5294666290283203,0.5721063613891602,0.5219564437866211
319,48553860.0,-3.618946075439453,-3.7302799224853516,0.8092641830444336,4.5275115966796875,-2.1614866256713867,-1.5201778411865234,-0.34621715545654297,0.5294666290283203,0.5721063613891602,0.5219564437866211
320,48553880.0,-2.970097541809082,-2.434976577758789,0.5243453979492188,1.2772903442382812,-3.747714042663574,-2.554581642150879,-0.34621715545654297,0.5294666290283203,0.5721063613891602,0.5219564437866211
321,48553880.0,-2.970097541809082,-2.434976577758789,0.5243453979492188,1.2772903442382812,-3.747714042663574,-2.554581642150879,-0.34621715545654297,0.5294666290283203,0.5721063613891602,0.5219564437866211
322,48553900.0,-2.3056859970092773,-1.169602394104004,-0.22745609283447266,-0.033023834228515625,-3.9586429595947266,-2.7378129959106445,-0.34621715545654297,0.5294666290283203,0.5721063613891602,0.5219564437866211
323,48553900.0,-2.3056859970092773,-1.169602394104004,-0.22745609283447266,-0.033023834228515625,-3.9586429595947266,-2.7378129959106445,-0.34621715545654297,0.5294666290283203,0.5721063613891602,0.5219564437866211
324,48553920.0,-0.4908256530761719,-3.7290821075439453,0.44772911071777344,-1.3710365295410156,-4.122698783874512,-3.2001514434814453,-0.34621715545654297,0.5294666290283203,0.5721063613891602,0.5219564437866211
325,48553920.0,-0.4908256530761719,-3.7290821075439453,0.44772911071777344,-1.3710365295410156,-4.122698783874512,-3.2001514434814453,-0.34621715545654297,0.5294666290283203,0.5721063613891602,0.5219564437866211
326,48553936.0,0.7242679595947266,-5.571476936340332,0.7817306518554688,-1.1142997741699219,-3.9969940185546875,-3.627335548400879,-0.34621715545654297,0.5294666290283203,0.5721063613891602,0.5219564437866211
327,48553936.0,0.7242679595947266,-5.571476936340332,0.7817306518554688,-1.1142997741699219,-3.9969940185546875,-3.627335548400879,-0.34621715545654297,0.5294666290283203,0.5721063613891602,0.5219564437866211
328,48554056.0,3.8871049880981445,-0.7781391143798828,8.652908325195312,0.04367637634277344,-3.669947624206543,-4.092870712280273,-0.34621715545654297,0.5294666290283203,0.5721063613891602,0.5219564437866211
329,48554080.0,7.340846061706543,-5.70435905456543,11.177671432495117,-3.349292755126953,-4.010842323303223,-5.226346015930176,-0.34621715545654297,0.5294666290283203,0.5721063613891602,0.5219564437866211
330,48554096.0,6.283773422241211,-10.776630401611328,9.006063461303711,-3.669947624206543,-2.6003894805908203,-5.752602577209473,-0.34621715545654297,0.5294666290283203,0.5721063613891602,0.5219564437866211
331,48554120.0,5.1536760330200195,-10.26425552368164,8.948601722717285,-1.347599983215332,-1.5212430953979492,-6.303361892700195,-0.34621715545654297,0.5294666290283203,0.5721063613891602,0.5219564437866211
332,48554136.0,7.452179908752441,-8.206376075744629,7.369577407836914,-1.1483898162841797,-1.7193889617919922,-6.070061683654785,-0.34621715545654297,0.5294666290283203,0.5721063613891602,0.5219564437866211
333,48554156.0,11.284215927124023,-9.222745895385742,6.652491569519043,-3.31307315826416,-2.1135482788085938,-5.763256072998047,-0.34621715545654297,0.5294666290283203,0.5721063613891602,0.5219564437866211
334,48554176.0,12.814157485961914,-12.864437103271484,6.507637977600098,-3.956512451171875,-2.022998809814453,-5.641812324523926,-0.34621715545654297,0.5294666290283203,0.5721063613891602,0.5219564437866211
335,48554196.0,12.033624649047852,-11.12739086151123,7.4749250411987305,-1.1547813415527344,-1.378493309020996,-5.809063911437988,-0.34621715545654297,0.5294666290283203,0.5721063613891602,0.5219564437866211
336,48554216.0,11.990527153015137,-6.721925735473633,7.180429458618164,1.5414838790893555,-1.687429428100586,-5.787757873535156,-0.34621715545654297,0.5294666290283203,0.5721063613891602,0.5219564437866211
337,48554236.0,13.787430763244629,-3.7554197311401367,4.32286262512207,2.00701904296875,-2.3063669204711914,-5.435144424438477,-0.34621715545654297,0.5294666290283203,0.5721063613891602,0.5219564437866211
338,48554356.0,9.174860000610352,-5.13212776184082,2.974885940551758,1.5404186248779297,-2.670699119567871,-5.475625991821289,-0.34621715545654297,0.5294666290283203,0.5721063613891602,0.5219564437866211
339,48554376.0,8.218347549438477,-2.847989082336426,3.770981788635254,-3.330118179321289,0.28443336486816406,0.32598018646240234,-0.34621715545654297,0.5294666290283203,0.5721063613891602,0.5219564437866211
340,48554396.0,9.888354301452637,-1.9740791320800781,3.867950439453125,-3.1820411682128906,-0.05646038055419922,1.3103151321411133,-0.34621715545654297,0.5294666290283203,0.5721063613891602,0.5219564437866211
341,48554416.0,10.868809700012207,-1.8088741302490234,2.807286262512207,-2.698396682739258,-0.1779041290283203,1.8355064392089844,-0.34621715545654297,0.5294666290283203,0.5721063613891602,0.5219564437866211
342,48554436.0,9.706389427185059,-2.106961250305176,2.280546188354492,-1.4392156600952148,0.07776641845703125,1.7481517791748047,-0.34621715545654297,0.5294666290283203,0.5721063613891602,0.5219564437866211
343,48554456.0,8.498477935791016,-2.2901229858398438,2.193155288696289,-0.057525634765625,0.2663240432739258,1.438150405883789,-0.34621715545654297,0.5294666290283203,0.5721063613891602,0.5219564437866211
344,48554476.0,8.919870376586914,-1.9202079772949219,2.030344009399414,0.8980445861816406,0.20347118377685547,1.0290765762329102,-0.34621715545654297,0.5294666290283203,0.5721063613891602,0.5219564437866211
345,48554496.0,9.37478256225586,-0.17717552185058594,1.975275993347168,1.1590423583984375,0.0862884521484375,0.6338510513305664,-0.34621715545654297,0.5294666290283203,0.5721063613891602,0.5219564437866211
346,48554516.0,9.172466278076172,0.5291337966918945,2.3930768966674805,0.9108285903930664,0.1448802947998047,0.2535400390625,-0.34621715545654297,0.5294666290283203,0.5721063613891602,0.5219564437866211
347,48554536.0,9.14493179321289,-0.3280153274536133,2.460116386413574,0.2130584716796875,0.10759449005126953,0.15340232849121094,-0.34621715545654297,0.5294666290283203,0.5721063613891602,0.5219564437866211
348,48554556.0,9.520833015441895,-1.1672086715698242,2.014781951904297,-0.2301034927368164,0.033023834228515625,0.1374225616455078,-0.34621715545654297,0.5294666290283203,0.5721063613891602,0.5219564437866211
349,48554556.0,9.520833015441895,-1.1672086715698242,2.014781951904297,-0.2301034927368164,0.033023834228515625,0.1374225616455078,-0.34621715545654297,0.5294666290283203,0.5721063613891602,0.5219564437866211
350,48554576.0,9.742302894592285,-1.1588287353515625,1.4317760467529297,-0.2301034927368164,0.033023834228515625,0.1374225616455078,-0.34621715545654297,0.5294666290283203,0.5721063613891602,0.5219564437866211
351,48554576.0,9.742302894592285,-1.1588287353515625,1.4317760467529297,-0.2301034927368164,0.033023834228515625,0.1374225616455078,-0.34621715545654297,0.5294666290283203,0.5721063613891602,0.5219564437866211
352,48554596.0,9.73512077331543,-1.0534801483154297,1.479660987854004,-0.2301034927368164,0.033023834228515625,0.1374225616455078,-0.34621715545654297,0.5294666290283203,0.5721063613891602,0.5219564437866211
353,48554596.0,9.73512077331543,-1.0534801483154297,1.479660987854004,-0.2301034927368164,0.033023834228515625,0.1374225616455078,-0.34621715545654297,0.5294666290283203,0.5721063613891602,0.5219564437866211
354,48554616.0,9.749485969543457,-1.1384773254394531,1.7107086181640625,-0.2301034927368164,0.033023834228515625,0.1374225616455078,-0.34621715545654297,0.5294666290283203,0.5721063613891602,0.5219564437866211
355,48554616.0,9.749485969543457,-1.1384773254394531,1.7107086181640625,-0.2301034927368164,0.033023834228515625,0.1374225616455078,-0.34621715545654297,0.5294666290283203,0.5721063613891602,0.5219564437866211
356,48554636.0,9.738712310791016,-1.0163688659667969,1.6640205383300781,-0.2301034927368164,0.033023834228515625,0.1374225616455078,-0.34621715545654297,0.5294666290283203,0.5721063613891602,0.5219564437866211
357,48554636.0,9.738712310791016,-1.0163688659667969,1.6640205383300781,-0.2301034927368164,0.033023834228515625,0.1374225616455078,-0.34621715545654297,0.5294666290283203,0.5721063613891602,0.5219564437866211
358,48554656.0,9.535198211669922,-0.9852437973022461,1.658034324645996,-0.2301034927368164,0.033023834228515625,0.1374225616455078,-0.34621715545654297,0.5294666290283203,0.5721063613891602,0.5219564437866211
359,48554676.0,9.323305130004883,-1.0654516220092773,1.756199836730957,-0.05539512634277344,0.09481048583984375,0.37817955017089844,-0.34621715545654297,0.5294666290283203,0.5721063613891602,0.5219564437866211
360,48554696.0,9.437033653259277,-1.1648139953613281,2.0578784942626953,-0.013848304748535156,0.02982807159423828,0.37178802490234375,-0.34621715545654297,0.5294666290283203,0.5721063613891602,0.5219564437866211
361,48554716.0,9.632166862487793,-0.9804553985595703,1.786128044128418,0.09907245635986328,-0.030893325805664062,0.3739185333251953,-0.34621715545654297,0.5294666290283203,0.5721063613891602,0.5219564437866211
362,48554736.0,9.555549621582031,-1.113337516784668,1.608952522277832,0.14701080322265625,-0.030893325805664062,0.36007022857666016,-0.34621715545654297,0.5294666290283203,0.5721063613891602,0.5219564437866211
363,48554856.0,9.364007949829102,-1.6604290008544922,2.3523740768432617,0.17470836639404297,-0.005326271057128906,0.3238496780395508,-0.42545604705810547,0.4877748489379883,0.5889387130737305,0.4839773178100586
364,48554876.0,9.410696029663086,-1.6281061172485352,2.3619518280029297,0.17470836639404297,-0.005326271057128906,0.3238496780395508,-0.42545604705810547,0.4877748489379883,0.5889387130737305,0.4839773178100586
365,48554896.0,9.302953720092773,-1.5886011123657227,2.3020944595336914,0.17470836639404297,-0.005326271057128906,0.3238496780395508,-0.42545604705810547,0.4877748489379883,0.5889387130737305,0.4839773178100586
366,48554916.0,9.191619873046875,-1.504800796508789,2.225478172302246,0.17470836639404297,-0.005326271057128906,0.3238496780395508,-0.42545604705810547,0.4877748489379883,0.5889387130737305,0.4839773178100586
367,48554936.0,9.171268463134766,-1.7119054794311523,2.3320226669311523,0.17470836639404297,-0.005326271057128906,0.3238496780395508,-0.42545604705810547,0.4877748489379883,0.5889387130737305,0.4839773178100586
368,48555156.0,9.431047439575195,-1.7813396453857422,2.2206897735595703,-0.15340232849121094,-0.00852203369140625,0.11611652374267578,-0.4203624725341797,0.4741802215576172,0.6042594909667969,0.48302745819091797
369,48555176.0,9.4537935256958,-1.818450927734375,2.2374496459960938,-0.15340232849121094,-0.00852203369140625,0.11611652374267578,-0.4203624725341797,0.4741802215576172,0.6042594909667969,0.48302745819091797
370,48555192.0,9.395133018493652,-1.9573192596435547,2.1799869537353516,-0.15340232849121094,-0.00852203369140625,0.11611652374267578,-0.4203624725341797,0.4741802215576172,0.6042594909667969,0.48302745819091797
371,48555216.0,9.295770645141602,-2.0842161178588867,2.2170982360839844,-0.15340232849121094,-0.00852203369140625,0.11611652374267578,-0.4203624725341797,0.4741802215576172,0.6042594909667969,0.48302745819091797
372,48555232.0,9.288588523864746,-2.0854129791259766,2.2685747146606445,-0.15340232849121094,-0.00852203369140625,0.11611652374267578,-0.4203624725341797,0.4741802215576172,0.6042594909667969,0.48302745819091797
373,48555256.0,9.440624237060547,-2.0171756744384766,2.062666893005371,-0.15340232849121094,-0.00852203369140625,0.11611652374267578,-0.4203624725341797,0.4741802215576172,0.6042594909667969,0.48302745819091797
374,48555276.0,9.434638977050781,-2.0207672119140625,2.1189327239990234,0.09267997741699219,-0.0010652542114257812,0.10759449005126953,-0.4203624725341797,0.4741802215576172,0.6042594909667969,0.48302745819091797
375,48555296.0,9.326896667480469,-2.105764389038086,2.165620803833008,0.060721397399902344,0.013848304748535156,0.09374523162841797,-0.4203624725341797,0.4741802215576172,0.6042594909667969,0.48302745819091797
376,48555312.0,9.398724555969238,-2.164423942565918,2.2697715759277344,0.04687213897705078,-0.012783050537109375,0.06817817687988281,-0.4203624725341797,0.4741802215576172,0.6042594909667969,0.48302745819091797
377,48555336.0,9.438230514526367,-1.9824590682983398,2.2829408645629883,0.0692434310913086,-0.014913558959960938,0.061786651611328125,-0.4203624725341797,0.4741802215576172,0.6042594909667969,0.48302745819091797
378,48555456.0,9.23471736907959,-2.1524524688720703,2.2326602935791016,0.0170440673828125,-0.0063915252685546875,0.0287628173828125,-0.4203624725341797,0.4741802215576172,0.6042594909667969,0.48302745819091797
379,48555456.0,9.23471736907959,-2.1524524688720703,2.2326602935791016,0.0170440673828125,-0.0063915252685546875,0.0287628173828125,-0.4203624725341797,0.4741802215576172,0.6042594909667969,0.48302745819091797
380,48555472.0,9.294573783874512,-2.1548471450805664,2.254209518432617,0.03941535949707031,-0.02769756317138672,0.009587287902832031,-0.4203624725341797,0.4741802215576172,0.6042594909667969,0.48302745819091797
381,48555472.0,9.294573783874512,-2.1548471450805664,2.254209518432617,0.03941535949707031,-0.02769756317138672,0.009587287902832031,-0.4203624725341797,0.4741802215576172,0.6042594909667969,0.48302745819091797
382,48555492.0,9.393936157226562,-2.105764389038086,2.3559656143188477,0.06391716003417969,-0.03941535949707031,-0.007456779479980469,-0.4203624725341797,0.4741802215576172,0.6042594909667969,0.48302745819091797
383,48555492.0,9.393936157226562,-2.105764389038086,2.3559656143188477,0.06391716003417969,-0.03941535949707031,-0.007456779479980469,-0.4203624725341797,0.4741802215576172,0.6042594909667969,0.48302745819091797
384,48555512.0,9.520833015441895,-2.109355926513672,2.226675033569336,0.08309268951416016,-0.034089088439941406,-0.0031957626342773438,-0.4203624725341797,0.4741802215576172,0.6042594909667969,0.48302745819091797
385,48555512.0,9.520833015441895,-2.109355926513672,2.226675033569336,0.08309268951416016,-0.034089088439941406,-0.0031957626342773438,-0.4203624725341797,0.4741802215576172,0.6042594909667969,0.48302745819091797
386,48555532.0,9.531606674194336,-2.0351333618164062,2.2410402297973633,0.05006885528564453,-0.030893325805664062,0.0063915252685546875,-0.4203624725341797,0.4741802215576172,0.6042594909667969,0.48302745819091797
387,48555532.0,9.531606674194336,-2.0351333618164062,2.2410402297973633,0.05006885528564453,-0.030893325805664062,0.0063915252685546875,-0.4203624725341797,0.4741802215576172,0.6042594909667969,0.48302745819091797
388,48555652.0,9.342459678649902,-2.1177358627319336,2.2326602935791016,0.045806884765625,-0.009587287902832031,0.022370338439941406,-0.41337108612060547,0.4643402099609375,0.6207466125488281,0.4776763916015625
389,48555672.0,9.331685066223145,-2.2350549697875977,2.287729263305664,0.045806884765625,-0.009587287902832031,0.022370338439941406,-0.41337108612060547,0.4643402099609375,0.6207466125488281,0.4776763916015625
390,48555692.0,9.369993209838867,-2.150057792663574,2.258997917175293,0.045806884765625,-0.009587287902832031,0.022370338439941406,-0.41337108612060547,0.4643402099609375,0.6207466125488281,0.4776763916015625
391,48555712.0,9.366402626037598,-2.138087272644043,2.2087182998657227,0.045806884765625,-0.009587287902832031,0.022370338439941406,-0.41337108612060547,0.4643402099609375,0.6207466125488281,0.4776763916015625
392,48555732.0,9.420273780822754,-2.134495735168457,2.244631767272949,0.045806884765625,-0.009587287902832031,0.022370338439941406,-0.41337108612060547,0.4643402099609375,0.6207466125488281,0.4776763916015625
393,48555852.0,9.514846801757812,-2.018373489379883,2.157240867614746,0.05646038055419922,-0.012783050537109375,0.04474163055419922,-0.41337108612060547,0.4643402099609375,0.6207466125488281,0.4776763916015625
394,48555852.0,9.514846801757812,-2.018373489379883,2.157240867614746,0.05646038055419922,-0.012783050537109375,0.04474163055419922,-0.41337108612060547,0.4643402099609375,0.6207466125488281,0.4776763916015625
395,48555872.0,9.330488204956055,-2.0866098403930664,2.1811838150024414,0.05646038055419922,-0.012783050537109375,0.04474163055419922,-0.41337108612060547,0.4643402099609375,0.6207466125488281,0.4776763916015625
396,48555872.0,9.330488204956055,-2.0866098403930664,2.1811838150024414,0.05646038055419922,-0.012783050537109375,0.04474163055419922,-0.41337108612060547,0.4643402099609375,0.6207466125488281,0.4776763916015625
397,48555892.0,9.19640827178955,-2.135692596435547,2.2027320861816406,0.05646038055419922,-0.012783050537109375,0.04474163055419922,-0.41337108612060547,0.4643402099609375,0.6207466125488281,0.4776763916015625
398,48555892.0,9.19640827178955,-2.135692596435547,2.2027320861816406,0.05646038055419922,-0.012783050537109375,0.04474163055419922,-0.41337108612060547,0.4643402099609375,0.6207466125488281,0.4776763916015625
399,48555912.0,9.348444938659668,-2.2745609283447266,2.2350549697875977,0.05646038055419922,-0.012783050537109375,0.04474163055419922,-0.41337108612060547,0.4643402099609375,0.6207466125488281,0.4776763916015625
400,48555912.0,9.348444938659668,-2.2745609283447266,2.2350549697875977,0.05646038055419922,-0.012783050537109375,0.04474163055419922,-0.41337108612060547,0.4643402099609375,0.6207466125488281,0.4776763916015625
401,48555932.0,9.413090705871582,-2.1201295852661133,2.22428035736084,0.05646038055419922,-0.012783050537109375,0.04474163055419922,-0.41337108612060547,0.4643402099609375,0.6207466125488281,0.4776763916015625
402,48555932.0,9.413090705871582,-2.1201295852661133,2.22428035736084,0.05646038055419922,-0.012783050537109375,0.04474163055419922,-0.41337108612060547,0.4643402099609375,0.6207466125488281,0.4776763916015625
403,48555952.0,9.387950897216797,-2.0614700317382812,2.185972213745117,0.05646038055419922,-0.012783050537109375,0.04474163055419922,-0.41337108612060547,0.4643402099609375,0.6207466125488281,0.4776763916015625
404,48555952.0,9.387950897216797,-2.0614700317382812,2.185972213745117,0.05646038055419922,-0.012783050537109375,0.04474163055419922,-0.41337108612060547,0.4643402099609375,0.6207466125488281,0.4776763916015625
405,48555972.0,9.294573783874512,-2.041118621826172,2.2350549697875977,0.05646038055419922,-0.012783050537109375,0.04474163055419922,-0.41337108612060547,0.4643402099609375,0.6207466125488281,0.4776763916015625
406,48555972.0,9.294573783874512,-2.041118621826172,2.2350549697875977,0.05646038055419922,-0.012783050537109375,0.04474163055419922,-0.41337108612060547,0.4643402099609375,0.6207466125488281,0.4776763916015625
407,48555992.0,9.228731155395508,-2.1476640701293945,2.254209518432617,0.05646038055419922,-0.012783050537109375,0.04474163055419922,-0.41337108612060547,0.4643402099609375,0.6207466125488281,0.4776763916015625
408,48555992.0,9.228731155395508,-2.1476640701293945,2.254209518432617,0.05646038055419922,-0.012783050537109375,0.04474163055419922,-0.41337108612060547,0.4643402099609375,0.6207466125488281,0.4776763916015625
409,48556012.0,9.262250900268555,-2.3044891357421875,2.248223304748535,0.05646038055419922,-0.012783050537109375,0.04474163055419922,-0.41337108612060547,0.4643402099609375,0.6207466125488281,0.4776763916015625
410,48556012.0,9.262250900268555,-2.3044891357421875,2.248223304748535,0.05646038055419922,-0.012783050537109375,0.04474163055419922,-0.41337108612060547,0.4643402099609375,0.6207466125488281,0.4776763916015625
411,48556032.0,9.344853401184082,-2.2135066986083984,2.278151512145996,0.05646038055419922,-0.012783050537109375,0.04474163055419922,-0.41337108612060547,0.4643402099609375,0.6207466125488281,0.4776763916015625
412,48556032.0,9.344853401184082,-2.2135066986083984,2.278151512145996,0.05646038055419922,-0.012783050537109375,0.04474163055419922,-0.41337108612060547,0.4643402099609375,0.6207466125488281,0.4776763916015625
413,48556052.0,9.317319869995117,-2.17160701751709,2.2949113845825195,0.05646038055419922,-0.012783050537109375,0.04474163055419922,-0.41337108612060547,0.4643402099609375,0.6207466125488281,0.4776763916015625
414,48556052.0,9.317319869995117,-2.17160701751709,2.2949113845825195,0.05646038055419922,-0.012783050537109375,0.04474163055419922,-0.41337108612060547,0.4643402099609375,0.6207466125488281,0.4776763916015625
415,48556072.0,9.292180061340332,-2.219491958618164,2.2075204849243164,0.05646038055419922,-0.012783050537109375,0.04474163055419922,-0.41337108612060547,0.4643402099609375,0.6207466125488281,0.4776763916015625
416,48556072.0,9.292180061340332,-2.219491958618164,2.2075204849243164,0.05646038055419922,-0.012783050537109375,0.04474163055419922,-0.41337108612060547,0.4643402099609375,0.6207466125488281,0.4776763916015625
417,48556092.0,9.329291343688965,-2.260194778442383,2.22308349609375,0.05646038055419922,-0.012783050537109375,0.04474163055419922,-0.41337108612060547,0.4643402099609375,0.6207466125488281,0.4776763916015625
418,48556092.0,9.329291343688965,-2.260194778442383,2.22308349609375,0.05646038055419922,-0.012783050537109375,0.04474163055419922,-0.41337108612060547,0.4643402099609375,0.6207466125488281,0.4776763916015625
419,48556112.0,9.308939933776855,-2.2757577896118164,2.3008975982666016,0.05646038055419922,-0.012783050537109375,0.04474163055419922,-0.41337108612060547,0.4643402099609375,0.6207466125488281,0.4776763916015625
420,48556112.0,9.308939933776855,-2.2757577896118164,2.3008975982666016,0.05646038055419922,-0.012783050537109375,0.04474163055419922,-0.41337108612060547,0.4643402099609375,0.6207466125488281,0.4776763916015625
421,48556128.0,9.381964683532715,-2.164423942565918,2.2362518310546875,0.05646038055419922,-0.012783050537109375,0.04474163055419922,-0.41337108612060547,0.4643402099609375,0.6207466125488281,0.4776763916015625
422,48556128.0,9.381964683532715,-2.164423942565918,2.2362518310546875,0.05646038055419922,-0.012783050537109375,0.04474163055419922,-0.41337108612060547,0.4643402099609375,0.6207466125488281,0.4776763916015625
423,48556252.0,9.324501991271973,-2.1117496490478516,2.175198554992676,-0.0287628173828125,-0.013848304748535156,-0.013848304748535156,-0.41337108612060547,0.4643402099609375,0.6207466125488281,0.4776763916015625
424,48556252.0,9.324501991271973,-2.1117496490478516,2.175198554992676,-0.0287628173828125,-0.013848304748535156,-0.013848304748535156,-0.41337108612060547,0.4643402099609375,0.6207466125488281,0.4776763916015625
425,48556272.0,9.322108268737793,-2.2422380447387695,2.201535224914551,-0.0287628173828125,-0.013848304748535156,-0.013848304748535156,-0.41337108612060547,0.4643402099609375,0.6207466125488281,0.4776763916015625
426,48556272.0,9.322108268737793,-2.2422380447387695,2.201535224914551,-0.0287628173828125,-0.013848304748535156,-0.013848304748535156,-0.41337108612060547,0.4643402099609375,0.6207466125488281,0.4776763916015625
427,48556292.0,9.319713592529297,-2.2769546508789062,2.160832405090332,-0.0287628173828125,-0.013848304748535156,-0.013848304748535156,-0.41337108612060547,0.4643402099609375,0.6207466125488281,0.4776763916015625
428,48556292.0,9.319713592529297,-2.2769546508789062,2.160832405090332,-0.0287628173828125,-0.013848304748535156,-0.013848304748535156,-0.41337108612060547,0.4643402099609375,0.6207466125488281,0.4776763916015625
429,48556312.0,9.380767822265625,-2.258997917175293,2.1991405487060547,-0.0287628173828125,-0.013848304748535156,-0.013848304748535156,-0.41337108612060547,0.4643402099609375,0.6207466125488281,0.4776763916015625
430,48556312.0,9.380767822265625,-2.258997917175293,2.1991405487060547,-0.0287628173828125,-0.013848304748535156,-0.013848304748535156,-0.41337108612060547,0.4643402099609375,0.6207466125488281,0.4776763916015625
431,48556328.0,9.435835838317871,-2.1404809951782227,2.1488609313964844,-0.0287628173828125,-0.013848304748535156,-0.013848304748535156,-0.41337108612060547,0.4643402099609375,0.6207466125488281,0.4776763916015625
432,48556328.0,9.435835838317871,-2.1404809951782227,2.1488609313964844,-0.0287628173828125,-0.013848304748535156,-0.013848304748535156,-0.41337108612060547,0.4643402099609375,0.6207466125488281,0.4776763916015625
433,48556552.0,9.280208587646484,-2.1787891387939453,2.1165380477905273,0.0,-0.01810932159423828,-0.013848304748535156,-0.41294002532958984,0.4620532989501953,0.623896598815918,0.4762086868286133
434,48556552.0,9.280208587646484,-2.1787891387939453,2.1165380477905273,0.0,-0.01810932159423828,-0.013848304748535156,-0.41294002532958984,0.4620532989501953,0.623896598815918,0.4762086868286133
435,48556568.0,9.446610450744629,-2.2135066986083984,2.1668176651000977,0.019174575805664062,-0.033023834228515625,-0.009587287902832031,-0.41294002532958984,0.4620532989501953,0.623896598815918,0.4762086868286133
436,48556568.0,9.446610450744629,-2.2135066986083984,2.1668176651000977,0.019174575805664062,-0.033023834228515625,-0.009587287902832031,-0.41294002532958984,0.4620532989501953,0.623896598815918,0.4762086868286133
437,48556592.0,9.505270004272461,-2.037527084350586,2.127312660217285,0.061786651611328125,-0.03728485107421875,-0.0063915252685546875,-0.41294002532958984,0.4620532989501953,0.623896598815918,0.4762086868286133
438,48556592.0,9.505270004272461,-2.037527084350586,2.127312660217285,0.061786651611328125,-0.03728485107421875,-0.0063915252685546875,-0.41294002532958984,0.4620532989501953,0.623896598815918,0.4762086868286133
439,48556608.0,9.435835838317871,-2.0483016967773438,2.094989776611328,0.03728485107421875,-0.026632308959960938,-0.004261016845703125,-0.41294002532958984,0.4620532989501953,0.623896598815918,0.4762086868286133
440,48556608.0,9.435835838317871,-2.0483016967773438,2.094989776611328,0.03728485107421875,-0.026632308959960938,-0.004261016845703125,-0.41294002532958984,0.4620532989501953,0.623896598815918,0.4762086868286133
441,48556632.0,9.353233337402344,-2.10097599029541,2.1464672088623047,-0.01810932159423828,-0.01597881317138672,-0.0063915252685546875,-0.41294002532958984,0.4620532989501953,0.623896598815918,0.4762086868286133
442,48556632.0,9.353233337402344,-2.10097599029541,2.1464672088623047,-0.01810932159423828,-0.01597881317138672,-0.0063915252685546875,-0.41294002532958984,0.4620532989501953,0.623896598815918,0.4762086868286133
443,48556648.0,9.361613273620605,-2.196746826171875,2.133297920227051,-0.030893325805664062,-0.019174575805664062,-0.01810932159423828,-0.41294002532958984,0.4620532989501953,0.623896598815918,0.4762086868286133
444,48556668.0,9.320911407470703,-2.1823806762695312,2.164423942565918,-0.030893325805664062,-0.019174575805664062,-0.01810932159423828,-0.41294002532958984,0.4620532989501953,0.623896598815918,0.4762086868286133
445,48556688.0,9.399922370910645,-2.0746383666992188,2.158437728881836,-0.030893325805664062,-0.019174575805664062,-0.01810932159423828,-0.41294002532958984,0.4620532989501953,0.623896598815918,0.4762086868286133
446,48556708.0,9.441822052001953,-2.0937929153442383,2.1189327239990234,-0.030893325805664062,-0.019174575805664062,-0.01810932159423828,-0.41294002532958984,0.4620532989501953,0.623896598815918,0.4762086868286133
447,48556728.0,9.438230514526367,-2.1153411865234375,2.1297073364257812,-0.030893325805664062,-0.019174575805664062,-0.01810932159423828,-0.41294002532958984,0.4620532989501953,0.623896598815918,0.4762086868286133
448,48556748.0,9.460975646972656,-2.185972213745117,2.0925960540771484,-0.030893325805664062,-0.019174575805664062,-0.01810932159423828,-0.41294002532958984,0.4620532989501953,0.623896598815918,0.4762086868286133
449,48556768.0,9.439427375793457,-2.10097599029541,2.1524524688720703,0.01810932159423828,-0.01810932159423828,0.0031957626342773438,-0.41294002532958984,0.4620532989501953,0.623896598815918,0.4762086868286133
450,48556788.0,9.463370323181152,-2.077033042907715,2.1201295852661133,0.023435592651367188,-0.023435592651367188,0.011717796325683594,-0.41294002532958984,0.4620532989501953,0.623896598815918,0.4762086868286133
451,48556808.0,9.443018913269043,-2.0902013778686523,2.132101058959961,0.004261016845703125,-0.020239830017089844,0.013848304748535156,-0.41294002532958984,0.4620532989501953,0.623896598815918,0.4762086868286133
452,48556828.0,9.368796348571777,-2.10336971282959,2.132101058959961,0.0063915252685546875,-0.009587287902832031,0.005326271057128906,-0.41294002532958984,0.4620532989501953,0.623896598815918,0.4762086868286133
453,48556848.0,9.392739295959473,-2.1189327239990234,2.163227081298828,0.020239830017089844,-0.013848304748535156,-0.0063915252685546875,-0.41294002532958984,0.4620532989501953,0.623896598815918,0.4762086868286133
454,48556868.0,9.417879104614258,-2.0602731704711914,2.1488609313964844,0.040480613708496094,-0.014913558959960938,-0.007456779479980469,-0.41294002532958984,0.4620532989501953,0.623896598815918,0.4762086868286133
455,48556888.0,9.431047439575195,-2.0794267654418945,2.071046829223633,0.023435592651367188,-0.0170440673828125,-0.005326271057128906,-0.41294002532958984,0.4620532989501953,0.623896598815918,0.4762086868286133
456,48556908.0,9.359219551086426,-2.1021728515625,2.0890045166015625,0.004261016845703125,-0.0021305084228515625,-0.0010652542114257812,-0.41294002532958984,0.4620532989501953,0.623896598815918,0.4762086868286133
457,48556928.0,9.364007949829102,-2.159635543823242,2.0351333618164062,0.0031957626342773438,-0.004261016845703125,0.0,-0.41294002532958984,0.4620532989501953,0.623896598815918,0.4762086868286133
458,48556948.0,9.410696029663086,-2.098581314086914,2.124917984008789,0.03728485107421875,-0.011717796325683594,0.0,-0.41294002532958984,0.4620532989501953,0.623896598815918,0.4762086868286133
459,48556968.0,9.440624237060547,-2.004007339477539,2.065061569213867,0.0628519058227539,-0.01810932159423828,0.005326271057128906,-0.41294002532958984,0.4620532989501953,0.623896598815918,0.4762086868286133
460,48556988.0,9.439427375793457,-2.0159788131713867,2.043513298034668,0.025567054748535156,-0.011717796325683594,0.0063915252685546875,-0.41294002532958984,0.4620532989501953,0.623896598815918,0.4762086868286133
461,48557008.0,9.429850578308105,-2.0758352279663086,2.0890045166015625,-0.01597881317138672,-0.0021305084228515625,-0.005326271057128906,-0.41294002532958984,0.4620532989501953,0.623896598815918,0.4762086868286133
462,48557028.0,9.465764999389648,-2.0902013778686523,2.0794267654418945,-0.023435592651367188,-0.0010652542114257812,-0.010652542114257812,-0.41294002532958984,0.4620532989501953,0.623896598815918,0.4762086868286133
463,48557048.0,9.452595710754395,-2.030344009399414,2.0614700317382812,-0.014913558959960938,-0.009587287902832031,-0.007456779479980469,-0.41294002532958984,0.4620532989501953,0.623896598815918,0.4762086868286133
464,48557048.0,9.452595710754395,-2.030344009399414,2.0614700317382812,-0.014913558959960938,-0.009587287902832031,-0.007456779479980469,-0.41294002532958984,0.4620532989501953,0.623896598815918,0.4762086868286133
465,48557068.0,9.410696029663086,-2.080624580383301,2.0842161178588867,-0.014913558959960938,-0.009587287902832031,-0.007456779479980469,-0.41294002532958984,0.4620532989501953,0.623896598815918,0.4762086868286133
466,48557068.0,9.410696029663086,-2.080624580383301,2.0842161178588867,-0.014913558959960938,-0.009587287902832031,-0.007456779479980469,-0.41294002532958984,0.4620532989501953,0.623896598815918,0.4762086868286133
467,48557088.0,9.390344619750977,-2.073441505432129,2.068653106689453,-0.014913558959960938,-0.009587287902832031,-0.007456779479980469,-0.41294002532958984,0.4620532989501953,0.623896598815918,0.4762086868286133
468,48557088.0,9.390344619750977,-2.073441505432129,2.068653106689453,-0.014913558959960938,-0.009587287902832031,-0.007456779479980469,-0.41294002532958984,0.4620532989501953,0.623896598815918,0.4762086868286133
469,48557108.0,9.352036476135254,-2.080624580383301,2.0746383666992188,-0.014913558959960938,-0.009587287902832031,-0.007456779479980469,-0.41294002532958984,0.4620532989501953,0.623896598815918,0.4762086868286133
470,48557108.0,9.352036476135254,-2.080624580383301,2.0746383666992188,-0.014913558959960938,-0.009587287902832031,-0.007456779479980469,-0.41294002532958984,0.4620532989501953,0.623896598815918,0.4762086868286133
471,48557128.0,9.37597942352295,-2.1021728515625,2.0902013778686523,-0.014913558959960938,-0.009587287902832031,-0.007456779479980469,-0.41294002532958984,0.4620532989501953,0.623896598815918,0.4762086868286133
472,48557128.0,9.37597942352295,-2.1021728515625,2.0902013778686523,-0.014913558959960938,-0.009587287902832031,-0.007456779479980469,-0.41294002532958984,0.4620532989501953,0.623896598815918,0.4762086868286133
473,48557248.0,9.481327056884766,-2.068653106689453,2.0842161178588867,0.01597881317138672,-0.023435592651367188,-0.01597881317138672,-0.41294002532958984,0.4620532989501953,0.623896598815918,0.4762086868286133
474,48557248.0,9.481327056884766,-2.068653106689453,2.0842161178588867,0.01597881317138672,-0.023435592651367188,-0.01597881317138672,-0.41294002532958984,0.4620532989501953,0.623896598815918,0.4762086868286133
475,48557248.0,9.481327056884766,-2.068653106689453,2.0842161178588867,0.01597881317138672,-0.023435592651367188,-0.01597881317138672,-0.41294002532958984,0.4620532989501953,0.623896598815918,0.4762086868286133
476,48557268.0,9.395133018493652,-2.071046829223633,2.077033042907715,0.0021305084228515625,-0.011717796325683594,-0.012783050537109375,-0.41294002532958984,0.4620532989501953,0.623896598815918,0.4762086868286133
477,48557268.0,9.395133018493652,-2.071046829223633,2.077033042907715,0.0021305084228515625,-0.011717796325683594,-0.012783050537109375,-0.41294002532958984,0.4620532989501953,0.623896598815918,0.4762086868286133
478,48557268.0,9.395133018493652,-2.071046829223633,2.077033042907715,0.0021305084228515625,-0.011717796325683594,-0.012783050537109375,-0.41294002532958984,0.4620532989501953,0.623896598815918,0.4762086868286133
479,48557288.0,9.42745590209961,-2.099778175354004,2.1021728515625,-0.023435592651367188,-0.012783050537109375,-0.012783050537109375,-0.41294002532958984,0.4620532989501953,0.623896598815918,0.4762086868286133
480,48557288.0,9.42745590209961,-2.099778175354004,2.1021728515625,-0.023435592651367188,-0.012783050537109375,-0.012783050537109375,-0.41294002532958984,0.4620532989501953,0.623896598815918,0.4762086868286133
481,48557288.0,9.42745590209961,-2.099778175354004,2.1021728515625,-0.023435592651367188,-0.012783050537109375,-0.012783050537109375,-0.41294002532958984,0.4620532989501953,0.623896598815918,0.4762086868286133
482,48557308.0,9.433442115783691,-2.1488609313964844,2.0937929153442383,-0.030893325805664062,-0.012783050537109375,-0.013848304748535156,-0.41294002532958984,0.4620532989501953,0.623896598815918,0.4762086868286133
483,48557308.0,9.433442115783691,-2.1488609313964844,2.0937929153442383,-0.030893325805664062,-0.012783050537109375,-0.013848304748535156,-0.41294002532958984,0.4620532989501953,0.623896598815918,0.4762086868286133
484,48557308.0,9.433442115783691,-2.1488609313964844,2.0937929153442383,-0.030893325805664062,-0.012783050537109375,-0.013848304748535156,-0.41294002532958984,0.4620532989501953,0.623896598815918,0.4762086868286133
485,48557328.0,9.37597942352295,-2.123721122741699,2.1153411865234375,-0.014913558959960938,-0.007456779479980469,-0.011717796325683594,-0.41294002532958984,0.4620532989501953,0.623896598815918,0.4762086868286133
486,48557328.0,9.37597942352295,-2.123721122741699,2.1153411865234375,-0.014913558959960938,-0.007456779479980469,-0.011717796325683594,-0.41294002532958984,0.4620532989501953,0.623896598815918,0.4762086868286133
487,48557328.0,9.37597942352295,-2.123721122741699,2.1153411865234375,-0.014913558959960938,-0.007456779479980469,-0.011717796325683594,-0.41294002532958984,0.4620532989501953,0.623896598815918,0.4762086868286133
488,48557448.0,9.391542434692383,-2.094989776611328,2.0602731704711914,0.004261016845703125,-0.011717796325683594,-0.0010652542114257812,-0.41294002532958984,0.4620532989501953,0.623896598815918,0.4762086868286133
489,48557468.0,9.431047439575195,-2.0818214416503906,2.0494985580444336,0.004261016845703125,-0.011717796325683594,-0.0010652542114257812,-0.4158744812011719,0.4608011245727539,0.6223859786987305,0.47681331634521484
490,48557488.0,9.47773551940918,-2.0782299041748047,2.041118621826172,0.004261016845703125,-0.011717796325683594,-0.0010652542114257812,-0.4156150817871094,0.4608440399169922,0.6223430633544922,0.47707176208496094
491,48557508.0,9.505270004272461,-2.0758352279663086,2.0782299041748047,0.004261016845703125,-0.011717796325683594,-0.0010652542114257812,-0.41544246673583984,0.4608011245727539,0.6223001480102539,0.47724437713623047
492,48557528.0,9.47653865814209,-2.0351333618164062,2.065061569213867,0.004261016845703125,-0.011717796325683594,-0.0010652542114257812,-0.415313720703125,0.4607582092285156,0.6223430633544922,0.4773740768432617
493,48557548.0,9.361613273620605,-2.0530900955200195,2.0423154830932617,0.004261016845703125,-0.011717796325683594,-0.0010652542114257812,-0.4150972366333008,0.4607582092285156,0.6223430633544922,0.47758960723876953
494,48557548.0,9.361613273620605,-2.0530900955200195,2.0423154830932617,0.004261016845703125,-0.011717796325683594,-0.0010652542114257812,-0.4150972366333008,0.4607582092285156,0.6223430633544922,0.47758960723876953
495,48557568.0,9.364007949829102,-2.0925960540771484,2.043513298034668,0.004261016845703125,-0.011717796325683594,-0.0010652542114257812,-0.4150972366333008,0.4607582092285156,0.6223430633544922,0.47758960723876953
496,48557568.0,9.364007949829102,-2.0925960540771484,2.043513298034668,0.004261016845703125,-0.011717796325683594,-0.0010652542114257812,-0.4150972366333008,0.4607582092285156,0.6223430633544922,0.47758960723876953
497,48557584.0,9.380767822265625,-2.1201295852661133,2.072244644165039,0.004261016845703125,-0.011717796325683594,-0.0010652542114257812,-0.4150972366333008,0.4607582092285156,0.6223430633544922,0.47758960723876953
498,48557584.0,9.380767822265625,-2.1201295852661133,2.072244644165039,0.004261016845703125,-0.011717796325683594,-0.0010652542114257812,-0.4150972366333008,0.4607582092285156,0.6223430633544922,0.47758960723876953
499,48557608.0,9.40471076965332,-2.0638647079467773,2.0794267654418945,0.004261016845703125,-0.011717796325683594,-0.0010652542114257812,-0.4150972366333008,0.4607582092285156,0.6223430633544922,0.47758960723876953
500,48557608.0,9.40471076965332,-2.0638647079467773,2.0794267654418945,0.004261016845703125,-0.011717796325683594,-0.0010652542114257812,-0.4150972366333008,0.4607582092285156,0.6223430633544922,0.47758960723876953
501,48557624.0,9.438230514526367,-2.0255556106567383,2.0483016967773438,0.004261016845703125,-0.011717796325683594,-0.0010652542114257812,-0.4150972366333008,0.4607582092285156,0.6223430633544922,0.47758960723876953
502,48557624.0,9.438230514526367,-2.0255556106567383,2.0483016967773438,0.004261016845703125,-0.011717796325683594,-0.0010652542114257812,-0.4150972366333008,0.4607582092285156,0.6223430633544922,0.47758960723876953
503,48557744.0,9.383162498474121,-2.073441505432129,2.072244644165039,-0.04367637634277344,0.005326271057128906,0.0,-0.4150972366333008,0.4607582092285156,0.6223430633544922,0.47758960723876953
504,48557768.0,9.371191024780273,-2.128509521484375,2.0459070205688477,-0.04900360107421875,0.0021305084228515625,-0.007456779479980469,-0.4150972366333008,0.4607582092285156,0.6223430633544922,0.47758960723876953
505,48557784.0,9.408302307128906,-2.1225242614746094,2.0542869567871094,-0.0287628173828125,-0.0021305084228515625,-0.012783050537109375,-0.4150972366333008,0.4607582092285156,0.6223430633544922,0.47758960723876953
506,48557804.0,9.42506217956543,-2.0878067016601562,2.062666893005371,-0.00852203369140625,-0.0063915252685546875,-0.007456779479980469,-0.4150972366333008,0.4607582092285156,0.6223430633544922,0.47758960723876953
507,48557824.0,9.409499168395996,-2.0902013778686523,2.080624580383301,-0.004261016845703125,-0.00852203369140625,-0.00852203369140625,-0.4150972366333008,0.4607582092285156,0.6223430633544922,0.47758960723876953
508,48557848.0,9.37597942352295,-2.10336971282959,2.059075355529785,-0.010652542114257812,0.0,-0.010652542114257812,-0.4150972366333008,0.4607582092285156,0.6223430633544922,0.47758960723876953
509,48557864.0,9.343656539916992,-2.1129465103149414,2.0578784942626953,-0.0170440673828125,0.00852203369140625,-0.012783050537109375,-0.4150972366333008,0.4607582092285156,0.6223430633544922,0.47758960723876953
510,48557884.0,9.468158721923828,-2.0854129791259766,2.029147148132324,-0.020239830017089844,-0.0031957626342773438,-0.009587287902832031,-0.4150972366333008,0.4607582092285156,0.6223430633544922,0.47758960723876953
511,48557904.0,9.499284744262695,-2.1045665740966797,2.033935546875,-0.025567054748535156,-0.00852203369140625,-0.010652542114257812,-0.4150972366333008,0.4607582092285156,0.6223430633544922,0.47758960723876953
512,48557924.0,9.428653717041016,-2.1261157989501953,2.0423154830932617,-0.033023834228515625,0.0063915252685546875,-0.019174575805664062,-0.4150972366333008,0.4607582092285156,0.6223430633544922,0.47758960723876953
513,48557944.0,9.399922370910645,-2.15364933013916,1.9836559295654297,-0.022370338439941406,0.0021305084228515625,-0.024501800537109375,-0.4150972366333008,0.4607582092285156,0.6223430633544922,0.47758960723876953
514,48557944.0,9.399922370910645,-2.15364933013916,1.9836559295654297,-0.022370338439941406,0.0021305084228515625,-0.024501800537109375,-0.4150972366333008,0.4607582092285156,0.6223430633544922,0.47758960723876953
515,48557968.0,9.450201988220215,-2.106961250305176,2.062666893005371,-0.022370338439941406,0.0021305084228515625,-0.024501800537109375,-0.4150972366333008,0.4607582092285156,0.6223430633544922,0.47758960723876953
516,48557968.0,9.450201988220215,-2.106961250305176,2.062666893005371,-0.022370338439941406,0.0021305084228515625,-0.024501800537109375,-0.4150972366333008,0.4607582092285156,0.6223430633544922,0.47758960723876953
517,48557984.0,9.422667503356934,-2.109355926513672,2.037527084350586,-0.022370338439941406,0.0021305084228515625,-0.024501800537109375,-0.4150972366333008,0.4607582092285156,0.6223430633544922,0.47758960723876953
518,48557984.0,9.422667503356934,-2.109355926513672,2.037527084350586,-0.022370338439941406,0.0021305084228515625,-0.024501800537109375,-0.4150972366333008,0.4607582092285156,0.6223430633544922,0.47758960723876953
519,48558004.0,9.390344619750977,-2.1261157989501953,2.0530900955200195,-0.022370338439941406,0.0021305084228515625,-0.024501800537109375,-0.4150972366333008,0.4607582092285156,0.6223430633544922,0.47758960723876953
520,48558004.0,9.390344619750977,-2.1261157989501953,2.0530900955200195,-0.022370338439941406,0.0021305084228515625,-0.024501800537109375,-0.4150972366333008,0.4607582092285156,0.6223430633544922,0.47758960723876953
521,48558024.0,9.40471076965332,-2.1488609313964844,2.0566816329956055,-0.022370338439941406,0.0021305084228515625,-0.024501800537109375,-0.4150972366333008,0.4607582092285156,0.6223430633544922,0.47758960723876953
522,48558024.0,9.40471076965332,-2.1488609313964844,2.0566816329956055,-0.022370338439941406,0.0021305084228515625,-0.024501800537109375,-0.4150972366333008,0.4607582092285156,0.6223430633544922,0.47758960723876953
523,48558144.0,10.273832321166992,-3.2023420333862305,2.7019386291503906,-0.2013406753540039,-0.02769756317138672,0.14701080322265625,-0.4150972366333008,0.4607582092285156,0.6223430633544922,0.47758960723876953
524,48558164.0,10.949017524719238,-3.9146385192871094,3.398672103881836,-0.2013406753540039,-0.02769756317138672,0.14701080322265625,-0.4090557098388672,0.46321868896484375,0.6186742782592773,0.4851856231689453
525,48558184.0,11.275835990905762,-4.891502380371094,3.6333112716674805,-0.2013406753540039,-0.02769756317138672,0.14701080322265625,-0.40439414978027344,0.4601106643676758,0.6208324432373047,0.4892425537109375
526,48558204.0,12.031229972839355,-5.643304824829102,4.446167945861816,-0.2013406753540039,-0.02769756317138672,0.14701080322265625,-0.3969278335571289,0.4543275833129883,0.6253213882446289,0.4949827194213867
527,48558224.0,13.852075576782227,-6.701574325561523,5.6732330322265625,-0.2013406753540039,-0.02769756317138672,0.14701080322265625,-0.3853616714477539,0.44535064697265625,0.6322259902954102,0.5034418106079102
528,48558244.0,15.05998706817627,-8.575094223022461,4.310891151428223,-0.2013406753540039,-0.02769756317138672,0.14701080322265625,-0.3688316345214844,0.43257617950439453,0.6408576965332031,0.5158281326293945
529,48558264.0,15.757918357849121,-10.761067390441895,2.201535224914551,-0.45381641387939453,0.36113548278808594,3.487781524658203,-0.3688316345214844,0.43257617950439453,0.6408576965332031,0.5158281326293945
530,48558284.0,16.03445816040039,-12.499310493469238,4.019987106323242,1.5734434127807617,0.6295900344848633,4.071564674377441,-0.3688316345214844,0.43257617950439453,0.6408576965332031,0.5158281326293945
531,48558304.0,15.385608673095703,-10.848458290100098,4.977696418762207,2.8656482696533203,0.8714122772216797,4.8524274826049805,-0.3688316345214844,0.43257617950439453,0.6408576965332031,0.5158281326293945
532,48558320.0,14.69725513458252,-9.243097305297852,4.676017761230469,1.6959524154663086,1.0855369567871094,5.016482353210449,-0.3688316345214844,0.43257617950439453,0.6408576965332031,0.5158281326293945
533,48558344.0,12.349668502807617,-10.621002197265625,4.059492111206055,-0.09907245635986328,1.4211053848266602,5.4255571365356445,-0.3688316345214844,0.43257617950439453,0.6408576965332031,0.5158281326293945
534,48558364.0,8.654105186462402,-10.524033546447754,2.503213882446289,-0.6658105850219727,1.7044744491577148,5.751537322998047,-0.3688316345214844,0.43257617950439453,0.6408576965332031,0.5158281326293945
535,48558384.0,5.606193542480469,-9.440624237060547,2.6432790756225586,-0.26206302642822266,1.947361946105957,5.780301094055176,-0.3688316345214844,0.43257617950439453,0.6408576965332031,0.5158281326293945
536,48558404.0,3.5638771057128906,-7.653298377990723,2.8240461349487305,-0.15233707427978516,1.889836311340332,5.939029693603516,-0.3688316345214844,0.43257617950439453,0.6408576965332031,0.5158281326293945
537,48558424.0,1.788522720336914,-5.833649635314941,3.957736015319824,-0.17044734954833984,1.8653345108032227,5.908136367797852,-0.3688316345214844,0.43257617950439453,0.6408576965332031,0.5158281326293945
538,48558544.0,-2.9246063232421875,-3.2035388946533203,1.850773811340332,-0.5827169418334961,1.932448387145996,6.04449462890625,0.22925662994384766,-0.10172462463378906,0.8033056259155273,0.5402555465698242
539,48558544.0,-2.9246063232421875,-3.2035388946533203,1.850773811340332,-0.5827169418334961,1.932448387145996,6.04449462890625,0.22925662994384766,-0.10172462463378906,0.8033056259155273,0.5402555465698242
540,48558564.0,-3.681197166442871,-4.230683326721191,2.310474395751953,-0.5827169418334961,1.932448387145996,6.04449462890625,0.22925662994384766,-0.10172462463378906,0.8033056259155273,0.5402555465698242
541,48558564.0,-3.681197166442871,-4.230683326721191,2.310474395751953,-0.5827169418334961,1.932448387145996,6.04449462890625,0.22925662994384766,-0.10172462463378906,0.8033056259155273,0.5402555465698242
542,48558584.0,-3.403461456298828,-5.267403602600098,1.6855688095092773,-0.5827169418334961,1.932448387145996,6.04449462890625,0.22925662994384766,-0.10172462463378906,0.8033056259155273,0.5402555465698242
543,48558584.0,-3.403461456298828,-5.267403602600098,1.6855688095092773,-0.5827169418334961,1.932448387145996,6.04449462890625,0.22925662994384766,-0.10172462463378906,0.8033056259155273,0.5402555465698242
544,48558600.0,-3.860767364501953,-5.546337127685547,-0.6356792449951172,-0.5827169418334961,1.932448387145996,6.04449462890625,0.22925662994384766,-0.10172462463378906,0.8033056259155273,0.5402555465698242
545,48558600.0,-3.860767364501953,-5.546337127685547,-0.6356792449951172,-0.5827169418334961,1.932448387145996,6.04449462890625,0.22925662994384766,-0.10172462463378906,0.8033056259155273,0.5402555465698242
546,48558624.0,-4.673624038696289,-5.0267791748046875,-1.0714378356933594,-0.5827169418334961,1.932448387145996,6.04449462890625,0.22925662994384766,-0.10172462463378906,0.8033056259155273,0.5402555465698242
547,48558624.0,-4.673624038696289,-5.0267791748046875,-1.0714378356933594,-0.5827169418334961,1.932448387145996,6.04449462890625,0.22925662994384766,-0.10172462463378906,0.8033056259155273,0.5402555465698242
548,48558640.0,-4.975302696228027,-3.5985946655273438,1.847182273864746,-0.5827169418334961,1.932448387145996,6.04449462890625,0.22925662994384766,-0.10172462463378906,0.8033056259155273,0.5402555465698242
549,48558640.0,-4.975302696228027,-3.5985946655273438,1.847182273864746,-0.5827169418334961,1.932448387145996,6.04449462890625,0.22925662994384766,-0.10172462463378906,0.8033056259155273,0.5402555465698242
550,48558664.0,-4.854391098022461,-3.6919708251953125,2.1189327239990234,-0.5827169418334961,1.932448387145996,6.04449462890625,0.22925662994384766,-0.10172462463378906,0.8033056259155273,0.5402555465698242
551,48558680.0,-5.725907325744629,-4.065478324890137,-0.25618648529052734,-0.10546398162841797,1.251723289489746,2.622760772705078,0.22925662994384766,-0.10172462463378906,0.8033056259155273,0.5402555465698242
552,48558704.0,-6.448978424072266,-3.22149658203125,-0.13288211822509766,0.2886953353881836,1.178217887878418,2.328738212585449,0.22925662994384766,-0.10172462463378906,0.8033056259155273,0.5402555465698242
553,48558720.0,-6.765022277832031,-2.4277944564819336,1.1588287353515625,0.5294523239135742,1.0045747756958008,2.0783939361572266,0.22925662994384766,-0.10172462463378906,0.8033056259155273,0.5402555465698242
554,48558744.0,-6.840442657470703,-1.3360052108764648,2.663630485534668,0.3121318817138672,0.9651584625244141,1.7172584533691406,0.22925662994384766,-0.10172462463378906,0.8033056259155273,0.5402555465698242
555,48558764.0,-6.6979827880859375,-0.07422161102294922,4.095406532287598,0.3121318817138672,0.9651584625244141,1.7172584533691406,0.22925662994384766,-0.10172462463378906,0.8033056259155273,0.5402555465698242
556,48558784.0,-8.038776397705078,-2.504410743713379,-2.783344268798828,0.3121318817138672,0.9651584625244141,1.7172584533691406,0.22925662994384766,-0.10172462463378906,0.8033056259155273,0.5402555465698242
557,48558804.0,-8.679244995117188,-7.73590087890625,0.3016777038574219,0.3121318817138672,0.9651584625244141,1.7172584533691406,0.22925662994384766,-0.10172462463378906,0.8033056259155273,0.5402555465698242
558,48558824.0,-7.456968307495117,-0.24660968780517578,3.5746517181396484,0.3121318817138672,0.9651584625244141,1.7172584533691406,0.22925662994384766,-0.10172462463378906,0.8033056259155273,0.5402555465698242
559,48558840.0,-7.224723815917969,0.33519840240478516,-0.640467643737793,0.3121318817138672,0.9651584625244141,1.7172584533691406,0.22925662994384766,-0.10172462463378906,0.8033056259155273,0.5402555465698242
560,48558864.0,-22.45231056213379,-9.73631763458252,-0.9373579025268555,0.3121318817138672,0.9651584625244141,1.7172584533691406,0.22925662994384766,-0.10172462463378906,0.8033056259155273,0.5402555465698242
561,48558864.0,-22.45231056213379,-9.73631763458252,-0.9373579025268555,0.3121318817138672,0.9651584625244141,1.7172584533691406,0.22925662994384766,-0.10172462463378906,0.8033056259155273,0.5402555465698242
562,48558880.0,1.298893928527832,7.847234725952148,17.487781524658203,-6.034906387329102,-1.99530029296875,0.12677001953125,0.22925662994384766,-0.10172462463378906,0.8033056259155273,0.5402555465698242
563,48558880.0,1.298893928527832,7.847234725952148,17.487781524658203,-6.034906387329102,-1.99530029296875,0.12677001953125,0.22925662994384766,-0.10172462463378906,0.8033056259155273,0.5402555465698242
564,48558904.0,-0.1783733367919922,-1.2198820114135742,-11.849265098571777,-3.054205894470215,0.9715499877929688,-1.4850234985351562,0.22925662994384766,-0.10172462463378906,0.8033056259155273,0.5402555465698242
565,48558904.0,-0.1783733367919922,-1.2198820114135742,-11.849265098571777,-3.054205894470215,0.9715499877929688,-1.4850234985351562,0.22925662994384766,-0.10172462463378906,0.8033056259155273,0.5402555465698242
566,48558920.0,-15.27786636352539,-5.689992904663086,-3.620142936706543,-0.41866111755371094,1.8695955276489258,-0.2641935348510742,0.22925662994384766,-0.10172462463378906,0.8033056259155273,0.5402555465698242
567,48558920.0,-15.27786636352539,-5.689992904663086,-3.620142936706543,-0.41866111755371094,1.8695955276489258,-0.2641935348510742,0.22925662994384766,-0.10172462463378906,0.8033056259155273,0.5402555465698242
568,48558940.0,-6.010826110839844,-3.390292167663574,-1.1911516189575195,2.722898483276367,-0.5646066665649414,-1.0493173599243164,0.22925662994384766,-0.10172462463378906,0.8033056259155273,0.5402555465698242
569,48558940.0,-6.010826110839844,-3.390292167663574,-1.1911516189575195,2.722898483276367,-0.5646066665649414,-1.0493173599243164,0.22925662994384766,-0.10172462463378906,0.8033056259155273,0.5402555465698242
570,48558960.0,-2.3631486892700195,0.5746250152587891,-1.67120361328125,4.121633529663086,-1.9122076034545898,-1.3550567626953125,0.22925662994384766,-0.10172462463378906,0.8033056259155273,0.5402555465698242
571,48558984.0,-5.090227127075195,0.1580219268798828,1.6245145797729492,1.9452314376831055,-1.2101764678955078,-1.9505586624145508,0.22925662994384766,-0.10172462463378906,0.8033056259155273,0.5402555465698242
