,timestamp,accel_x,accel_y,accel_z,gyro_x,gyro_y,gyro_z,ori_scalar,ori_x,ori_y,ori_z
0,654161280.0,9.052752494812012,-0.9900321960449219,2.5127906799316406,-0.6668758392333984,-0.12570476531982422,-0.3685922622680664,0.037201881408691406,-0.8509111404418945,0.5220432281494141,0.04548835754394531
1,654161344.0,9.270630836486816,-1.4581127166748047,2.996434211730957,-0.6668758392333984,-0.12570476531982422,-0.3685922622680664,0.037201881408691406,-0.8509111404418945,0.5220432281494141,0.04548835754394531
2,654161344.0,9.85483455657959,-1.4377613067626953,2.9569292068481445,-0.6668758392333984,-0.12570476531982422,-0.3685922622680664,0.037201881408691406,-0.8509111404418945,0.5220432281494141,0.04548835754394531
3,654161344.0,9.733922958374023,-1.452127456665039,2.444554328918457,-0.6668758392333984,-0.12570476531982422,-0.3685922622680664,0.037201881408691406,-0.8509111404418945,0.5220432281494141,0.04548835754394531
4,654161408.0,9.507664680480957,-1.4054384231567383,2.5199737548828125,-0.7648830413818359,-0.18003463745117188,-0.3984203338623047,0.037201881408691406,-0.8509111404418945,0.5220432281494141,0.04548835754394531
5,654161408.0,9.986518859863281,-1.6269092559814453,3.123331069946289,-0.7648830413818359,-0.18003463745117188,-0.3984203338623047,0.037201881408691406,-0.8509111404418945,0.5220432281494141,0.04548835754394531
6,654161408.0,10.76705265045166,-1.4245929718017578,2.4469480514526367,-0.7648830413818359,-0.18003463745117188,-0.3984203338623047,0.037201881408691406,-0.8509111404418945,0.5220432281494141,0.04548835754394531
7,654161472.0,10.058347702026367,-1.5395183563232422,2.065061569213867,-1.0312070846557617,-0.07563591003417969,-0.004261016845703125,0.029260635375976562,-0.8493137359619141,0.5248479843139648,0.048854827880859375
8,654161472.0,9.034794807434082,-1.5921926498413086,2.2673778533935547,-1.0312070846557617,-0.07563591003417969,-0.004261016845703125,0.029260635375976562,-0.8493137359619141,0.5248479843139648,0.048854827880859375
9,654161472.0,9.209577560424805,-1.98126220703125,2.9724912643432617,-1.0312070846557617,-0.07563591003417969,-0.004261016845703125,0.029260635375976562,-0.8493137359619141,0.5248479843139648,0.048854827880859375
10,654161536.0,10.103838920593262,-2.0937929153442383,2.4361743927001953,-1.0312070846557617,-0.07563591003417969,-0.004261016845703125,-0.008416175842285156,-0.8493137359619141,0.5226039886474609,0.07401657104492188
11,654161792.0,9.489706993103027,-2.069849967956543,2.7605981826782227,-0.0063915252685546875,-0.0031957626342773438,0.012783050537109375,-0.002590179443359375,-0.8541479110717773,0.5151805877685547,0.07121086120605469
12,654161792.0,9.004866600036621,-2.2051267623901367,2.511593818664551,-0.0063915252685546875,-0.0031957626342773438,0.012783050537109375,-0.002590179443359375,-0.8541479110717773,0.5151805877685547,0.07121086120605469
13,654161792.0,8.555940628051758,-2.164423942565918,2.596590042114258,-0.0063915252685546875,-0.0031957626342773438,0.012783050537109375,-0.002590179443359375,-0.8541479110717773,0.5151805877685547,0.07121086120605469
14,654161792.0,8.64452838897705,-2.296109199523926,2.7725696563720703,-0.0063915252685546875,-0.0031957626342773438,0.012783050537109375,-0.002590179443359375,-0.8541479110717773,0.5151805877685547,0.07121086120605469
15,654161856.0,8.867196083068848,-2.29132080078125,2.6959524154663086,0.040480613708496094,-0.04793834686279297,-0.004261016845703125,-0.002590179443359375,-0.8541479110717773,0.5151805877685547,0.07121086120605469
16,654161984.0,9.417879104614258,-2.168015480041504,2.2434349060058594,0.040480613708496094,-0.04793834686279297,-0.004261016845703125,-0.4464740753173828,-0.6662359237670898,0.4304180145263672,-0.4141054153442383
17,654161984.0,9.561535835266113,-2.315262794494629,2.3846969604492188,0.040480613708496094,-0.04793834686279297,-0.004261016845703125,-0.4464740753173828,-0.6662359237670898,0.4304180145263672,-0.4141054153442383
18,654161984.0,9.701601028442383,-2.346388816833496,2.3260374069213867,0.040480613708496094,-0.04793834686279297,-0.004261016845703125,-0.4464740753173828,-0.6662359237670898,0.4304180145263672,-0.4141054153442383
19,654162048.0,9.539987564086914,-2.2673778533935547,2.193155288696289,0.27271556854248047,-0.12570476531982422,0.031958580017089844,-0.44612884521484375,-0.6664514541625977,0.4289073944091797,-0.4157447814941406
20,654162048.0,9.250279426574707,-2.1704092025756836,2.381105422973633,0.27271556854248047,-0.12570476531982422,0.031958580017089844,-0.44612884521484375,-0.6664514541625977,0.4289073944091797,-0.4157447814941406
21,654162240.0,9.557944297790527,-1.8328170776367188,2.34279727935791,0.24501800537109375,0.00852203369140625,0.14274978637695312,-0.4296417236328125,-0.6775436401367188,0.4050407409667969,-0.43853282928466797
22,654162304.0,9.478933334350586,-1.727468490600586,2.3607540130615234,0.18749141693115234,0.00852203369140625,0.10652923583984375,-0.4265775680541992,-0.6805219650268555,0.40059566497802734,-0.4409923553466797
23,654162304.0,9.542381286621094,-1.756199836730957,2.537930488586426,0.18749141693115234,0.00852203369140625,0.10652923583984375,-0.4265775680541992,-0.6805219650268555,0.40059566497802734,-0.4409923553466797
24,654162304.0,9.511256217956543,-1.7490167617797852,2.472087860107422,0.18749141693115234,0.00852203369140625,0.10652923583984375,-0.4265775680541992,-0.6805219650268555,0.40059566497802734,-0.4409923553466797
25,654162368.0,9.26584243774414,-1.6640205383300781,2.4206113815307617,0.18749141693115234,0.00852203369140625,0.10652923583984375,-0.4265775680541992,-0.6805219650268555,0.40059566497802734,-0.4409923553466797
26,654162368.0,9.150917053222656,-1.6664142608642578,2.4505395889282227,0.18749141693115234,0.00852203369140625,0.10652923583984375,-0.4265775680541992,-0.6805219650268555,0.40059566497802734,-0.4409923553466797
27,654162368.0,9.2550687789917,-1.7873258590698242,2.467299461364746,0.18749141693115234,0.00852203369140625,0.10652923583984375,-0.4265775680541992,-0.6805219650268555,0.40059566497802734,-0.4409923553466797
28,654162368.0,9.241899490356445,-1.8172540664672852,2.4230051040649414,0.18749141693115234,0.00852203369140625,0.10652923583984375,-0.4265775680541992,-0.6805219650268555,0.40059566497802734,-0.4409923553466797
29,654162432.0,9.110215187072754,-1.8555622100830078,2.3655433654785156,0.2013406753540039,-0.03515434265136719,-0.03621959686279297,-0.4265775680541992,-0.6805219650268555,0.40059566497802734,-0.4409923553466797
30,654162432.0,9.135354995727539,-1.8052825927734375,2.3308258056640625,0.2013406753540039,-0.03515434265136719,-0.03621959686279297,-0.4265775680541992,-0.6805219650268555,0.40059566497802734,-0.4409923553466797
31,654162624.0,9.397527694702148,-1.8603506088256836,2.4122314453125,0.09587669372558594,-0.022370338439941406,-0.021305084228515625,-0.41518402099609375,-0.6841897964477539,0.39174842834472656,-0.4538536071777344
32,654162624.0,9.45618724822998,-1.8639421463012695,2.348782539367676,0.09587669372558594,-0.022370338439941406,-0.021305084228515625,-0.41518402099609375,-0.6841897964477539,0.39174842834472656,-0.4538536071777344
33,654162688.0,9.361613273620605,-1.915419578552246,2.4253997802734375,0.09587669372558594,-0.022370338439941406,-0.021305084228515625,-0.41518402099609375,-0.6841897964477539,0.39174842834472656,-0.4538536071777344
34,654162688.0,9.313728332519531,-1.8998565673828125,2.46370792388916,0.09587669372558594,-0.022370338439941406,-0.021305084228515625,-0.41518402099609375,-0.6841897964477539,0.39174842834472656,-0.4538536071777344
35,654162688.0,9.379570960998535,-1.8268308639526367,2.6767988204956055,0.09587669372558594,-0.022370338439941406,-0.021305084228515625,-0.41518402099609375,-0.6841897964477539,0.39174842834472656,-0.4538536071777344
36,654162752.0,9.399922370910645,-1.7502145767211914,2.566661834716797,0.09587669372558594,-0.022370338439941406,-0.021305084228515625,-0.41518402099609375,-0.6841897964477539,0.39174842834472656,-0.4538536071777344
37,654162944.0,9.131763458251953,-1.693948745727539,2.3918800354003906,-0.0021305084228515625,0.045806884765625,-0.005326271057128906,-0.40715599060058594,-0.6895418167114258,0.3874320983886719,-0.4567890167236328
38,654162944.0,9.277813911437988,-1.726271629333496,2.306882858276367,-0.0021305084228515625,0.045806884765625,-0.005326271057128906,-0.40715599060058594,-0.6895418167114258,0.3874320983886719,-0.4567890167236328
39,654163008.0,9.277813911437988,-1.795705795288086,2.2314634323120117,0.004261016845703125,0.019174575805664062,-0.057525634765625,-0.40715599060058594,-0.6895418167114258,0.3874320983886719,-0.4567890167236328
40,654163008.0,9.276617050170898,-1.7992973327636719,2.339205741882324,0.004261016845703125,0.019174575805664062,-0.057525634765625,-0.40715599060058594,-0.6895418167114258,0.3874320983886719,-0.4567890167236328
41,654163008.0,9.353233337402344,-1.814859390258789,2.316460609436035,0.004261016845703125,0.019174575805664062,-0.057525634765625,-0.40715599060058594,-0.6895418167114258,0.3874320983886719,-0.4567890167236328
42,654163136.0,9.245491027832031,-1.9226016998291016,2.473285675048828,0.004261016845703125,0.019174575805664062,-0.057525634765625,-0.4024524688720703,-0.6879444122314453,0.3906688690185547,-0.4605436325073242
43,654163136.0,9.276617050170898,-1.8328170776367188,2.503213882446289,0.004261016845703125,0.019174575805664062,-0.057525634765625,-0.4024524688720703,-0.6879444122314453,0.3906688690185547,-0.4605436325073242
44,654163136.0,9.245491027832031,-1.9226016998291016,2.473285675048828,0.004261016845703125,0.019174575805664062,-0.057525634765625,-0.4024524688720703,-0.6879444122314453,0.3906688690185547,-0.4605436325073242
45,654163136.0,9.276617050170898,-1.8328170776367188,2.503213882446289,0.004261016845703125,0.019174575805664062,-0.057525634765625,-0.4024524688720703,-0.6879444122314453,0.3906688690185547,-0.4605436325073242
46,654163136.0,9.245491027832031,-1.9226016998291016,2.473285675048828,0.004261016845703125,0.019174575805664062,-0.057525634765625,-0.4024524688720703,-0.6879444122314453,0.3906688690185547,-0.4605436325073242
47,654163136.0,9.276617050170898,-1.8328170776367188,2.503213882446289,0.004261016845703125,0.019174575805664062,-0.057525634765625,-0.4024524688720703,-0.6879444122314453,0.3906688690185547,-0.4605436325073242
48,654163200.0,9.337671279907227,-1.820845603942871,2.594196319580078,0.004261016845703125,0.019174575805664062,-0.057525634765625,-0.4024524688720703,-0.6879444122314453,0.3906688690185547,-0.4605436325073242
49,654163200.0,9.344853401184082,-1.8818998336791992,2.6037731170654297,0.004261016845703125,0.019174575805664062,-0.057525634765625,-0.4024524688720703,-0.6879444122314453,0.3906688690185547,-0.4605436325073242
50,654163200.0,9.280208587646484,-1.786128044128418,2.6037731170654297,0.004261016845703125,0.019174575805664062,-0.057525634765625,-0.4024524688720703,-0.6879444122314453,0.3906688690185547,-0.4605436325073242
51,654163200.0,9.337671279907227,-1.820845603942871,2.594196319580078,0.004261016845703125,0.019174575805664062,-0.057525634765625,-0.4024524688720703,-0.6879444122314453,0.3906688690185547,-0.4605436325073242
52,654163200.0,9.344853401184082,-1.8818998336791992,2.6037731170654297,0.004261016845703125,0.019174575805664062,-0.057525634765625,-0.4024524688720703,-0.6879444122314453,0.3906688690185547,-0.4605436325073242
53,654163200.0,9.280208587646484,-1.786128044128418,2.6037731170654297,0.004261016845703125,0.019174575805664062,-0.057525634765625,-0.4024524688720703,-0.6879444122314453,0.3906688690185547,-0.4605436325073242
54,654163200.0,9.337671279907227,-1.820845603942871,2.594196319580078,0.004261016845703125,0.019174575805664062,-0.057525634765625,-0.4024524688720703,-0.6879444122314453,0.3906688690185547,-0.4605436325073242
55,654163200.0,9.344853401184082,-1.8818998336791992,2.6037731170654297,0.004261016845703125,0.019174575805664062,-0.057525634765625,-0.4024524688720703,-0.6879444122314453,0.3906688690185547,-0.4605436325073242
56,654163200.0,9.280208587646484,-1.786128044128418,2.6037731170654297,0.004261016845703125,0.019174575805664062,-0.057525634765625,-0.4024524688720703,-0.6879444122314453,0.3906688690185547,-0.4605436325073242
57,654163328.0,9.273025512695312,-1.762186050415039,2.65285587310791,0.09374523162841797,0.026632308959960938,-0.011717796325683594,-0.4024524688720703,-0.6879444122314453,0.3906688690185547,-0.4605436325073242
58,654163328.0,9.273025512695312,-1.762186050415039,2.65285587310791,0.09374523162841797,0.026632308959960938,-0.011717796325683594,-0.4024524688720703,-0.6879444122314453,0.3906688690185547,-0.4605436325073242
59,654163392.0,9.364007949829102,-1.7286663055419922,2.606167793273926,0.09374523162841797,0.026632308959960938,-0.011717796325683594,-0.4024524688720703,-0.6879444122314453,0.3906688690185547,-0.4605436325073242
60,654163392.0,9.344853401184082,-1.788522720336914,2.569056510925293,0.09374523162841797,0.026632308959960938,-0.011717796325683594,-0.4024524688720703,-0.6879444122314453,0.3906688690185547,-0.4605436325073242
61,654163392.0,9.279010772705078,-1.7825374603271484,2.6121530532836914,0.09374523162841797,0.026632308959960938,-0.011717796325683594,-0.4024524688720703,-0.6879444122314453,0.3906688690185547,-0.4605436325073242
62,654163392.0,9.364007949829102,-1.7286663055419922,2.606167793273926,0.09374523162841797,0.026632308959960938,-0.011717796325683594,-0.4024524688720703,-0.6879444122314453,0.3906688690185547,-0.4605436325073242
63,654163392.0,9.344853401184082,-1.788522720336914,2.569056510925293,0.09374523162841797,0.026632308959960938,-0.011717796325683594,-0.4024524688720703,-0.6879444122314453,0.3906688690185547,-0.4605436325073242
64,654163392.0,9.279010772705078,-1.7825374603271484,2.6121530532836914,0.09374523162841797,0.026632308959960938,-0.011717796325683594,-0.4024524688720703,-0.6879444122314453,0.3906688690185547,-0.4605436325073242
65,654163456.0,9.317319869995117,-1.7131032943725586,2.6708126068115234,0.09374523162841797,0.026632308959960938,-0.011717796325683594,-0.4024524688720703,-0.6879444122314453,0.3906688690185547,-0.4605436325073242
66,654163456.0,9.317319869995117,-1.7131032943725586,2.6708126068115234,0.09374523162841797,0.026632308959960938,-0.011717796325683594,-0.4024524688720703,-0.6879444122314453,0.3906688690185547,-0.4605436325073242
67,654163456.0,9.391542434692383,-1.6819772720336914,2.6408843994140625,0.09374523162841797,0.026632308959960938,-0.011717796325683594,-0.4024524688720703,-0.6879444122314453,0.3906688690185547,-0.4605436325073242
68,654163456.0,9.320911407470703,-1.7226800918579102,2.5858163833618164,0.09374523162841797,0.026632308959960938,-0.011717796325683594,-0.4024524688720703,-0.6879444122314453,0.3906688690185547,-0.4605436325073242
69,654163456.0,9.233519554138184,-1.6640205383300781,2.6157445907592773,0.09374523162841797,0.026632308959960938,-0.011717796325683594,-0.4024524688720703,-0.6879444122314453,0.3906688690185547,-0.4605436325073242
70,654163520.0,9.170071601867676,-1.6508522033691406,2.6779956817626953,0.09374523162841797,0.026632308959960938,-0.011717796325683594,-0.4024524688720703,-0.6879444122314453,0.3906688690185547,-0.4605436325073242
71,654163520.0,9.213168144226074,-1.7250747680664062,2.661235809326172,0.09374523162841797,0.026632308959960938,-0.011717796325683594,-0.4024524688720703,-0.6879444122314453,0.3906688690185547,-0.4605436325073242
72,654163520.0,9.221549034118652,-1.6867656707763672,2.717501640319824,0.09374523162841797,0.026632308959960938,-0.011717796325683594,-0.4024524688720703,-0.6879444122314453,0.3906688690185547,-0.4605436325073242
73,654163520.0,9.221549034118652,-1.6867656707763672,2.717501640319824,0.09374523162841797,0.026632308959960938,-0.011717796325683594,-0.4024524688720703,-0.6879444122314453,0.3906688690185547,-0.4605436325073242
74,654163584.0,9.103032112121582,-1.6508522033691406,2.7665843963623047,0.09374523162841797,0.026632308959960938,-0.011717796325683594,-0.4024524688720703,-0.6879444122314453,0.3906688690185547,-0.4605436325073242
75,654163584.0,9.016838073730469,-1.599374771118164,2.840806007385254,0.09374523162841797,0.026632308959960938,-0.011717796325683594,-0.4024524688720703,-0.6879444122314453,0.3906688690185547,-0.4605436325073242
76,654163584.0,8.983318328857422,-1.8064794540405273,2.9796743392944336,0.09374523162841797,0.026632308959960938,-0.011717796325683594,-0.4024524688720703,-0.6879444122314453,0.3906688690185547,-0.4605436325073242
77,654163584.0,9.103032112121582,-1.6508522033691406,2.7665843963623047,0.09374523162841797,0.026632308959960938,-0.011717796325683594,-0.4024524688720703,-0.6879444122314453,0.3906688690185547,-0.4605436325073242
78,654163584.0,9.016838073730469,-1.599374771118164,2.840806007385254,0.09374523162841797,0.026632308959960938,-0.011717796325683594,-0.4024524688720703,-0.6879444122314453,0.3906688690185547,-0.4605436325073242
79,654163584.0,8.983318328857422,-1.8064794540405273,2.9796743392944336,0.09374523162841797,0.026632308959960938,-0.011717796325683594,-0.4024524688720703,-0.6879444122314453,0.3906688690185547,-0.4605436325073242
80,654163648.0,9.128171920776367,-1.7969026565551758,3.0048141479492188,0.09587669372558594,0.10652923583984375,-0.01597881317138672,-0.4024524688720703,-0.6879444122314453,0.3906688690185547,-0.4605436325073242
81,654163648.0,9.128171920776367,-1.7969026565551758,3.0048141479492188,0.09587669372558594,0.10652923583984375,-0.01597881317138672,-0.4024524688720703,-0.6879444122314453,0.3906688690185547,-0.4605436325073242
82,654163648.0,9.227534294128418,-1.5874032974243164,2.940169334411621,0.09587669372558594,0.10652923583984375,-0.01597881317138672,-0.4024524688720703,-0.6879444122314453,0.3906688690185547,-0.4605436325073242
83,654163648.0,9.147326469421387,-1.5933895111083984,2.876720428466797,0.09587669372558594,0.10652923583984375,-0.01597881317138672,-0.4024524688720703,-0.6879444122314453,0.3906688690185547,-0.4605436325073242
84,654163712.0,9.243097305297852,-1.6137409210205078,2.936577796936035,-0.05859088897705078,0.11718177795410156,-0.007456779479980469,-0.4024524688720703,-0.6879444122314453,0.3906688690185547,-0.4605436325073242
85,654163712.0,9.428653717041016,-1.5981779098510742,2.777358055114746,-0.05859088897705078,0.11718177795410156,-0.007456779479980469,-0.4024524688720703,-0.6879444122314453,0.3906688690185547,-0.4605436325073242
86,654163712.0,9.419075965881348,-1.6257123947143555,2.6217308044433594,-0.05859088897705078,0.11718177795410156,-0.007456779479980469,-0.4024524688720703,-0.6879444122314453,0.3906688690185547,-0.4605436325073242
87,654163776.0,9.298165321350098,-1.7358484268188477,2.6001815795898438,-0.07883167266845703,0.08309268951416016,0.03835010528564453,-0.4024524688720703,-0.6879444122314453,0.3906688690185547,-0.4605436325073242
88,654163776.0,9.35682487487793,-1.6855688095092773,2.6337013244628906,-0.07883167266845703,0.08309268951416016,0.03835010528564453,-0.4024524688720703,-0.6879444122314453,0.3906688690185547,-0.4605436325073242
89,654163776.0,9.308939933776855,-1.6592321395874023,2.448145866394043,-0.07883167266845703,0.08309268951416016,0.03835010528564453,-0.4024524688720703,-0.6879444122314453,0.3906688690185547,-0.4605436325073242
90,654163776.0,9.153311729431152,-1.6556406021118164,2.4289913177490234,-0.07883167266845703,0.08309268951416016,0.03835010528564453,-0.4024524688720703,-0.6879444122314453,0.3906688690185547,-0.4605436325073242
91,654163840.0,9.160494804382324,-1.6257123947143555,2.5151853561401367,-0.06711292266845703,0.030893325805664062,0.04793834686279297,-0.4024524688720703,-0.6879444122314453,0.3906688690185547,-0.4605436325073242
92,654163840.0,9.223942756652832,-1.6807804107666016,2.539128303527832,-0.06711292266845703,0.030893325805664062,0.04793834686279297,-0.4024524688720703,-0.6879444122314453,0.3906688690185547,-0.4605436325073242
93,654163840.0,9.132960319519043,-1.6161346435546875,2.4541311264038086,-0.06711292266845703,0.030893325805664062,0.04793834686279297,-0.4024524688720703,-0.6879444122314453,0.3906688690185547,-0.4605436325073242
94,654163904.0,9.070709228515625,-1.5945863723754883,2.4146251678466797,-0.07670116424560547,-0.030893325805664062,0.011717796325683594,-0.4024524688720703,-0.6879444122314453,0.3906688690185547,-0.4605436325073242
95,654163904.0,9.107820510864258,-1.5933895111083984,2.4936370849609375,-0.07670116424560547,-0.030893325805664062,0.011717796325683594,-0.4024524688720703,-0.6879444122314453,0.3906688690185547,-0.4605436325073242
96,654163904.0,9.0970458984375,-1.6496543884277344,2.5738449096679688,-0.07670116424560547,-0.030893325805664062,0.011717796325683594,-0.4024524688720703,-0.6879444122314453,0.3906688690185547,-0.4605436325073242
97,654163968.0,9.088665962219238,-1.638880729675293,2.631307601928711,-0.07670116424560547,-0.030893325805664062,0.011717796325683594,-0.3866996765136719,-0.6984758377075195,0.38980579376220703,-0.45894622802734375
98,654163968.0,9.152114868164062,-1.6795835494995117,2.6001815795898438,-0.07670116424560547,-0.030893325805664062,0.011717796325683594,-0.3866996765136719,-0.6984758377075195,0.38980579376220703,-0.45894622802734375
99,654163968.0,9.239505767822266,-1.7035255432128906,2.682784080505371,-0.07670116424560547,-0.030893325805664062,0.011717796325683594,-0.3866996765136719,-0.6984758377075195,0.38980579376220703,-0.45894622802734375
100,654164032.0,9.172466278076172,-1.7382431030273438,2.7977094650268555,-0.07670116424560547,-0.030893325805664062,0.011717796325683594,-0.3863544464111328,-0.697784423828125,0.38920116424560547,-0.4608449935913086
101,654164032.0,9.246688842773438,-1.699934959411621,2.9281978607177734,-0.07670116424560547,-0.030893325805664062,0.011717796325683594,-0.3863544464111328,-0.697784423828125,0.38920116424560547,-0.4608449935913086
102,654164032.0,9.346051216125488,-1.6340923309326172,2.784541130065918,-0.07670116424560547,-0.030893325805664062,0.011717796325683594,-0.3863544464111328,-0.697784423828125,0.38920116424560547,-0.4608449935913086
103,654164032.0,9.299362182617188,-1.5862064361572266,2.7965126037597656,-0.07670116424560547,-0.030893325805664062,0.011717796325683594,-0.3863544464111328,-0.697784423828125,0.38920116424560547,-0.4608449935913086
104,654164096.0,9.207182884216309,-1.599374771118164,2.9509429931640625,-0.07670116424560547,-0.030893325805664062,0.011717796325683594,-0.3863544464111328,-0.697784423828125,0.38920116424560547,-0.4608449935913086
105,654164096.0,9.228731155395508,-1.665217399597168,2.909043312072754,-0.07670116424560547,-0.030893325805664062,0.011717796325683594,-0.3863544464111328,-0.697784423828125,0.38920116424560547,-0.4608449935913086
106,654164096.0,9.263448715209961,-1.729863166809082,2.8563690185546875,-0.07670116424560547,-0.030893325805664062,0.011717796325683594,-0.3863544464111328,-0.697784423828125,0.38920116424560547,-0.4608449935913086
107,654164224.0,9.342459678649902,-1.667612075805664,2.8264408111572266,-0.10120296478271484,-0.00852203369140625,0.02769756317138672,-0.3863105773925781,-0.6951522827148438,0.38924503326416016,-0.46477317810058594
108,654164224.0,9.342459678649902,-1.667612075805664,2.8264408111572266,-0.10120296478271484,-0.00852203369140625,0.02769756317138672,-0.3863105773925781,-0.6951522827148438,0.38924503326416016,-0.46477317810058594
109,654164288.0,9.344853401184082,-1.693948745727539,2.8599605560302734,-0.1384878158569336,0.024501800537109375,0.10865974426269531,-0.3863105773925781,-0.6951522827148438,0.38924503326416016,-0.46477317810058594
110,654164288.0,9.310136795043945,-1.7143001556396484,2.759401321411133,-0.1384878158569336,0.024501800537109375,0.10865974426269531,-0.3863105773925781,-0.6951522827148438,0.38924503326416016,-0.46477317810058594
111,654164288.0,9.26464557647705,-1.6879634857177734,2.7677812576293945,-0.1384878158569336,0.024501800537109375,0.10865974426269531,-0.3863105773925781,-0.6951522827148438,0.38924503326416016,-0.46477317810058594
112,654164288.0,9.344853401184082,-1.693948745727539,2.8599605560302734,-0.1384878158569336,0.024501800537109375,0.10865974426269531,-0.3863105773925781,-0.6951522827148438,0.38924503326416016,-0.46477317810058594
113,654164288.0,9.310136795043945,-1.7143001556396484,2.759401321411133,-0.1384878158569336,0.024501800537109375,0.10865974426269531,-0.3863105773925781,-0.6951522827148438,0.38924503326416016,-0.46477317810058594
114,654164288.0,9.26464557647705,-1.6879634857177734,2.7677812576293945,-0.1384878158569336,0.024501800537109375,0.10865974426269531,-0.3863105773925781,-0.6951522827148438,0.38924503326416016,-0.46477317810058594
115,654164352.0,9.289785385131836,-1.7095117568969727,2.783344268798828,-0.14274978637695312,0.02769756317138672,0.12890052795410156,-0.3863105773925781,-0.6951522827148438,0.38924503326416016,-0.46477317810058594
116,654164352.0,9.289785385131836,-1.7095117568969727,2.783344268798828,-0.14274978637695312,0.02769756317138672,0.12890052795410156,-0.3863105773925781,-0.6951522827148438,0.38924503326416016,-0.46477317810058594
117,654164352.0,9.322108268737793,-1.7059202194213867,2.7761611938476562,-0.14274978637695312,0.02769756317138672,0.12890052795410156,-0.3863105773925781,-0.6951522827148438,0.38924503326416016,-0.46477317810058594
118,654164352.0,9.30654525756836,-1.7190885543823242,2.6995439529418945,-0.14274978637695312,0.02769756317138672,0.12890052795410156,-0.3863105773925781,-0.6951522827148438,0.38924503326416016,-0.46477317810058594
119,654164352.0,9.201197624206543,-1.6735973358154297,2.6624326705932617,-0.14274978637695312,0.02769756317138672,0.12890052795410156,-0.3863105773925781,-0.6951522827148438,0.38924503326416016,-0.46477317810058594
120,654164416.0,9.174860000610352,-1.7382431030273438,2.692361831665039,-0.14274978637695312,0.02769756317138672,0.12890052795410156,-0.3863105773925781,-0.6951522827148438,0.38924503326416016,-0.46477317810058594
121,654164416.0,9.208379745483398,-1.6807804107666016,2.7629928588867188,-0.14274978637695312,0.02769756317138672,0.12890052795410156,-0.3863105773925781,-0.6951522827148438,0.38924503326416016,-0.46477317810058594
122,654164416.0,9.311333656311035,-1.661625862121582,2.6337013244628906,-0.14274978637695312,0.02769756317138672,0.12890052795410156,-0.3863105773925781,-0.6951522827148438,0.38924503326416016,-0.46477317810058594
123,654164544.0,9.006063461303711,-1.7969026565551758,2.591801643371582,-0.053264617919921875,-0.010652542114257812,-0.03515434265136719,-0.3863105773925781,-0.6951522827148438,0.38924503326416016,-0.46477317810058594
124,654164544.0,9.032401084899902,-1.7849311828613281,2.6420812606811523,-0.053264617919921875,-0.010652542114257812,-0.03515434265136719,-0.3863105773925781,-0.6951522827148438,0.38924503326416016,-0.46477317810058594
125,654164608.0,9.135354995727539,-1.857956886291504,2.6756019592285156,-0.061786651611328125,-0.009587287902832031,-0.052199363708496094,-0.3863105773925781,-0.6951522827148438,0.38924503326416016,-0.46477317810058594
126,654164608.0,9.19640827178955,-1.883096694946289,2.5870132446289062,-0.061786651611328125,-0.009587287902832031,-0.052199363708496094,-0.3863105773925781,-0.6951522827148438,0.38924503326416016,-0.46477317810058594
127,654164608.0,9.244294166564941,-1.8938703536987305,2.53433895111084,-0.061786651611328125,-0.009587287902832031,-0.052199363708496094,-0.3863105773925781,-0.6951522827148438,0.38924503326416016,-0.46477317810058594
128,654164672.0,9.296968460083008,-1.8519706726074219,2.6001815795898438,-0.033023834228515625,-0.01597881317138672,-0.061786651611328125,-0.3863105773925781,-0.6951522827148438,0.38924503326416016,-0.46477317810058594
129,654164672.0,9.316122055053711,-1.9333763122558594,2.627716064453125,-0.033023834228515625,-0.01597881317138672,-0.061786651611328125,-0.3863105773925781,-0.6951522827148438,0.38924503326416016,-0.46477317810058594
130,654164672.0,9.422667503356934,-1.9549245834350586,2.6408843994140625,-0.033023834228515625,-0.01597881317138672,-0.061786651611328125,-0.3863105773925781,-0.6951522827148438,0.38924503326416016,-0.46477317810058594
131,654164672.0,9.40471076965332,-1.9609107971191406,2.5929994583129883,-0.033023834228515625,-0.01597881317138672,-0.061786651611328125,-0.3863105773925781,-0.6951522827148438,0.38924503326416016,-0.46477317810058594
132,654164736.0,9.243097305297852,-1.8938703536987305,2.6480674743652344,-0.020239830017089844,-0.030893325805664062,-0.07030868530273438,-0.3863105773925781,-0.6951522827148438,0.38924503326416016,-0.46477317810058594
133,654164736.0,9.228731155395508,-1.9214048385620117,2.688770294189453,-0.020239830017089844,-0.030893325805664062,-0.07030868530273438,-0.3863105773925781,-0.6951522827148438,0.38924503326416016,-0.46477317810058594
134,654164736.0,9.205986022949219,-1.9597129821777344,2.654052734375,-0.020239830017089844,-0.030893325805664062,-0.07030868530273438,-0.3863105773925781,-0.6951522827148438,0.38924503326416016,-0.46477317810058594
135,654164800.0,9.089863777160645,-1.9668960571289062,2.6444759368896484,-0.020239830017089844,-0.030893325805664062,-0.07030868530273438,-0.3863105773925781,-0.6951522827148438,0.38924503326416016,-0.46477317810058594
136,654164800.0,9.040781021118164,-1.9513330459594727,2.6456727981567383,-0.020239830017089844,-0.030893325805664062,-0.07030868530273438,-0.3863105773925781,-0.6951522827148438,0.38924503326416016,-0.46477317810058594
137,654164800.0,9.058737754821777,-1.886688232421875,2.7366552352905273,-0.020239830017089844,-0.030893325805664062,-0.07030868530273438,-0.3863105773925781,-0.6951522827148438,0.38924503326416016,-0.46477317810058594
138,654164864.0,9.229928970336914,-1.8998565673828125,2.6732072830200195,-0.07563591003417969,-0.00852203369140625,-0.10759449005126953,-0.3979206085205078,-0.686305046081543,0.4004230499267578,-0.4585151672363281
139,654164992.0,9.223942756652832,-1.9561223983764648,2.5798301696777344,-0.03728485107421875,-0.00852203369140625,-0.05646038055419922,-0.3983955383300781,-0.6850099563598633,0.40206241607666016,-0.45864391326904297
140,654164992.0,9.289785385131836,-1.9249963760375977,2.6193361282348633,-0.03728485107421875,-0.00852203369140625,-0.05646038055419922,-0.3983955383300781,-0.6850099563598633,0.40206241607666016,-0.45864391326904297
141,654164992.0,9.347248077392578,-1.8986597061157227,2.543916702270508,-0.03728485107421875,-0.00852203369140625,-0.05646038055419922,-0.3983955383300781,-0.6850099563598633,0.40206241607666016,-0.45864391326904297
142,654164992.0,9.263448715209961,-1.8627452850341797,2.5750417709350586,-0.03728485107421875,-0.00852203369140625,-0.05646038055419922,-0.3983955383300781,-0.6850099563598633,0.40206241607666016,-0.45864391326904297
143,654165056.0,9.217957496643066,-1.9178133010864258,2.5774364471435547,-0.021305084228515625,-0.004261016845703125,0.025567054748535156,-0.3983955383300781,-0.6850099563598633,0.40206241607666016,-0.45864391326904297
144,654165056.0,9.252674102783203,-1.941756248474121,2.594196319580078,-0.021305084228515625,-0.004261016845703125,0.025567054748535156,-0.3983955383300781,-0.6850099563598633,0.40206241607666016,-0.45864391326904297
145,654165056.0,9.274222373962402,-1.8292255401611328,2.598984718322754,-0.021305084228515625,-0.004261016845703125,0.025567054748535156,-0.3983955383300781,-0.6850099563598633,0.40206241607666016,-0.45864391326904297
146,654165120.0,9.204788208007812,-1.8292255401611328,2.559478759765625,-0.01810932159423828,-0.010652542114257812,0.024501800537109375,-0.3983955383300781,-0.6850099563598633,0.40206241607666016,-0.45864391326904297
147,654165120.0,9.183239936828613,-1.814859390258789,2.569056510925293,-0.01810932159423828,-0.010652542114257812,0.024501800537109375,-0.3983955383300781,-0.6850099563598633,0.40206241607666016,-0.45864391326904297
148,654165120.0,9.240702629089355,-1.847182273864746,2.6337013244628906,-0.01810932159423828,-0.010652542114257812,0.024501800537109375,-0.3983955383300781,-0.6850099563598633,0.40206241607666016,-0.45864391326904297
149,654165184.0,9.273025512695312,-1.7837343215942383,2.6133499145507812,-0.025567054748535156,-0.009587287902832031,0.03728485107421875,-0.3983955383300781,-0.6850099563598633,0.40206241607666016,-0.45864391326904297
150,654165184.0,9.173663139343262,-1.7717628479003906,2.572648048400879,-0.025567054748535156,-0.009587287902832031,0.03728485107421875,-0.3983955383300781,-0.6850099563598633,0.40206241607666016,-0.45864391326904297
151,654165184.0,9.263448715209961,-1.759791374206543,2.576239585876465,-0.025567054748535156,-0.009587287902832031,0.03728485107421875,-0.3983955383300781,-0.6850099563598633,0.40206241607666016,-0.45864391326904297
152,654165248.0,9.346051216125488,-1.7849311828613281,2.5834217071533203,0.012783050537109375,-0.00852203369140625,0.0287628173828125,-0.3983955383300781,-0.6850099563598633,0.40206241607666016,-0.45864391326904297
153,654165248.0,9.365204811096191,-1.7609882354736328,2.588210105895996,0.012783050537109375,-0.00852203369140625,0.0287628173828125,-0.3983955383300781,-0.6850099563598633,0.40206241607666016,-0.45864391326904297
154,654165248.0,9.311333656311035,-1.7346515655517578,2.588210105895996,0.012783050537109375,-0.00852203369140625,0.0287628173828125,-0.3983955383300781,-0.6850099563598633,0.40206241607666016,-0.45864391326904297
155,654165248.0,9.21675968170166,-1.7250747680664062,2.5870132446289062,0.012783050537109375,-0.00852203369140625,0.0287628173828125,-0.3983955383300781,-0.6850099563598633,0.40206241607666016,-0.45864391326904297
156,654165312.0,9.228731155395508,-1.7550029754638672,2.598984718322754,0.012783050537109375,-0.00852203369140625,0.0287628173828125,-0.3983955383300781,-0.6850099563598633,0.40206241607666016,-0.45864391326904297
157,654165312.0,9.281405448913574,-1.7550029754638672,2.6073646545410156,0.012783050537109375,-0.00852203369140625,0.0287628173828125,-0.3983955383300781,-0.6850099563598633,0.40206241607666016,-0.45864391326904297
158,654165312.0,9.188028335571289,-1.7131032943725586,2.654052734375,0.012783050537109375,-0.00852203369140625,0.0287628173828125,-0.3983955383300781,-0.6850099563598633,0.40206241607666016,-0.45864391326904297
159,654165376.0,9.155706405639648,-1.7322568893432617,2.654052734375,0.012783050537109375,-0.00852203369140625,0.0287628173828125,-0.3983955383300781,-0.6850099563598633,0.40206241607666016,-0.45864391326904297
160,654165376.0,9.253870964050293,-1.7178916931152344,2.6408843994140625,0.012783050537109375,-0.00852203369140625,0.0287628173828125,-0.3983955383300781,-0.6850099563598633,0.40206241607666016,-0.45864391326904297
161,654165376.0,9.311333656311035,-1.7310600280761719,2.65285587310791,0.012783050537109375,-0.00852203369140625,0.0287628173828125,-0.3983955383300781,-0.6850099563598633,0.40206241607666016,-0.45864391326904297
162,654165376.0,9.155706405639648,-1.7322568893432617,2.654052734375,0.012783050537109375,-0.00852203369140625,0.0287628173828125,-0.3983955383300781,-0.6850099563598633,0.40206241607666016,-0.45864391326904297
163,654165376.0,9.253870964050293,-1.7178916931152344,2.6408843994140625,0.012783050537109375,-0.00852203369140625,0.0287628173828125,-0.3983955383300781,-0.6850099563598633,0.40206241607666016,-0.45864391326904297
164,654165376.0,9.311333656311035,-1.7310600280761719,2.65285587310791,0.012783050537109375,-0.00852203369140625,0.0287628173828125,-0.3983955383300781,-0.6850099563598633,0.40206241607666016,-0.45864391326904297
165,654165440.0,9.289785385131836,-1.727468490600586,2.5858163833618164,-0.0031957626342773438,-0.004261016845703125,-0.011717796325683594,-0.3983955383300781,-0.6850099563598633,0.40206241607666016,-0.45864391326904297
166,654165440.0,9.257462501525879,-1.7466230392456055,2.595393180847168,-0.0031957626342773438,-0.004261016845703125,-0.011717796325683594,-0.3983955383300781,-0.6850099563598633,0.40206241607666016,-0.45864391326904297
167,654165440.0,9.289785385131836,-1.727468490600586,2.5858163833618164,-0.0031957626342773438,-0.004261016845703125,-0.011717796325683594,-0.3983955383300781,-0.6850099563598633,0.40206241607666016,-0.45864391326904297
168,654165440.0,9.257462501525879,-1.7466230392456055,2.595393180847168,-0.0031957626342773438,-0.004261016845703125,-0.011717796325683594,-0.3983955383300781,-0.6850099563598633,0.40206241607666016,-0.45864391326904297
169,654165568.0,9.299362182617188,-1.7873258590698242,2.561873435974121,-0.0010652542114257812,0.0021305084228515625,0.0063915252685546875,-0.3983955383300781,-0.6850099563598633,0.40206241607666016,-0.45864391326904297
170,654165568.0,9.204788208007812,-1.7801427841186523,2.53314208984375,-0.0010652542114257812,0.0021305084228515625,0.0063915252685546875,-0.3983955383300781,-0.6850099563598633,0.40206241607666016,-0.45864391326904297
171,654165568.0,9.183239936828613,-1.7921142578125,2.5247621536254883,-0.0010652542114257812,0.0021305084228515625,0.0063915252685546875,-0.3983955383300781,-0.6850099563598633,0.40206241607666016,-0.45864391326904297
172,654165632.0,9.249082565307617,-1.7573966979980469,2.5487051010131836,-0.005326271057128906,-0.004261016845703125,0.007456779479980469,-0.3983955383300781,-0.6850099563598633,0.40206241607666016,-0.45864391326904297
173,654165632.0,9.331685066223145,-1.7502145767211914,2.5427188873291016,-0.005326271057128906,-0.004261016845703125,0.007456779479980469,-0.3983955383300781,-0.6850099563598633,0.40206241607666016,-0.45864391326904297
174,654165632.0,9.295770645141602,-1.737046241760254,2.53194522857666,-0.005326271057128906,-0.004261016845703125,0.007456779479980469,-0.3983955383300781,-0.6850099563598633,0.40206241607666016,-0.45864391326904297
175,654165632.0,9.295770645141602,-1.737046241760254,2.53194522857666,-0.005326271057128906,-0.004261016845703125,0.007456779479980469,-0.3983955383300781,-0.6850099563598633,0.40206241607666016,-0.45864391326904297
176,654165696.0,9.245491027832031,-1.7573966979980469,2.559478759765625,-0.005326271057128906,-0.004261016845703125,0.007456779479980469,-0.3983955383300781,-0.6850099563598633,0.40206241607666016,-0.45864391326904297
177,654165696.0,9.290982246398926,-1.7729597091674805,2.5475082397460938,-0.005326271057128906,-0.004261016845703125,0.007456779479980469,-0.3983955383300781,-0.6850099563598633,0.40206241607666016,-0.45864391326904297
178,654165696.0,9.331685066223145,-1.752608299255371,2.564268112182617,-0.005326271057128906,-0.004261016845703125,0.007456779479980469,-0.3983955383300781,-0.6850099563598633,0.40206241607666016,-0.45864391326904297
179,654165696.0,9.245491027832031,-1.7573966979980469,2.559478759765625,-0.005326271057128906,-0.004261016845703125,0.007456779479980469,-0.3983955383300781,-0.6850099563598633,0.40206241607666016,-0.45864391326904297
180,654165696.0,9.290982246398926,-1.7729597091674805,2.5475082397460938,-0.005326271057128906,-0.004261016845703125,0.007456779479980469,-0.3983955383300781,-0.6850099563598633,0.40206241607666016,-0.45864391326904297
181,654165696.0,9.331685066223145,-1.752608299255371,2.564268112182617,-0.005326271057128906,-0.004261016845703125,0.007456779479980469,-0.3983955383300781,-0.6850099563598633,0.40206241607666016,-0.45864391326904297
182,654165760.0,9.258659362792969,-1.6795835494995117,2.5463104248046875,-0.020239830017089844,-0.0010652542114257812,-0.030893325805664062,-0.3983955383300781,-0.6850099563598633,0.40206241607666016,-0.45864391326904297
183,654165760.0,9.258659362792969,-1.6795835494995117,2.5463104248046875,-0.020239830017089844,-0.0010652542114257812,-0.030893325805664062,-0.3983955383300781,-0.6850099563598633,0.40206241607666016,-0.45864391326904297
184,654165888.0,9.304150581359863,-1.8124656677246094,2.5570850372314453,0.019174575805664062,-0.011717796325683594,-0.0287628173828125,-0.3983955383300781,-0.6850099563598633,0.40206241607666016,-0.45864391326904297
185,654165888.0,9.28739070892334,-1.8340139389038086,2.5738449096679688,0.019174575805664062,-0.011717796325683594,-0.0287628173828125,-0.3983955383300781,-0.6850099563598633,0.40206241607666016,-0.45864391326904297
186,654165888.0,9.289785385131836,-1.7765512466430664,2.5858163833618164,0.019174575805664062,-0.011717796325683594,-0.0287628173828125,-0.3983955383300781,-0.6850099563598633,0.40206241607666016,-0.45864391326904297
187,654165888.0,9.301756858825684,-1.788522720336914,2.5487051010131836,0.019174575805664062,-0.011717796325683594,-0.0287628173828125,-0.3983955383300781,-0.6850099563598633,0.40206241607666016,-0.45864391326904297
188,654165888.0,9.304150581359863,-1.8124656677246094,2.5570850372314453,0.019174575805664062,-0.011717796325683594,-0.0287628173828125,-0.3983955383300781,-0.6850099563598633,0.40206241607666016,-0.45864391326904297
189,654165888.0,9.28739070892334,-1.8340139389038086,2.5738449096679688,0.019174575805664062,-0.011717796325683594,-0.0287628173828125,-0.3983955383300781,-0.6850099563598633,0.40206241607666016,-0.45864391326904297
190,654165888.0,9.289785385131836,-1.7765512466430664,2.5858163833618164,0.019174575805664062,-0.011717796325683594,-0.0287628173828125,-0.3983955383300781,-0.6850099563598633,0.40206241607666016,-0.45864391326904297
191,654165888.0,9.301756858825684,-1.788522720336914,2.5487051010131836,0.019174575805664062,-0.011717796325683594,-0.0287628173828125,-0.3983955383300781,-0.6850099563598633,0.40206241607666016,-0.45864391326904297
192,654165952.0,9.253870964050293,-1.7801427841186523,2.5846195220947266,0.020239830017089844,-0.011717796325683594,0.019174575805664062,-0.3983955383300781,-0.6850099563598633,0.40206241607666016,-0.45864391326904297
193,654165952.0,9.253870964050293,-1.7801427841186523,2.5846195220947266,0.020239830017089844,-0.011717796325683594,0.019174575805664062,-0.3983955383300781,-0.6850099563598633,0.40206241607666016,-0.45864391326904297
194,654165952.0,9.194014549255371,-1.7717628479003906,2.6037731170654297,0.020239830017089844,-0.011717796325683594,0.019174575805664062,-0.3983955383300781,-0.6850099563598633,0.40206241607666016,-0.45864391326904297
195,654165952.0,9.28739070892334,-1.8076772689819336,2.5714502334594727,0.020239830017089844,-0.011717796325683594,0.019174575805664062,-0.3983955383300781,-0.6850099563598633,0.40206241607666016,-0.45864391326904297
196,654166016.0,9.45618724822998,-1.7945079803466797,2.590604782104492,-0.00852203369140625,-0.0010652542114257812,0.05539512634277344,-0.3983955383300781,-0.6850099563598633,0.40206241607666016,-0.45864391326904297
197,654166016.0,9.33527660369873,-1.824437141418457,2.6815872192382812,-0.00852203369140625,-0.0010652542114257812,0.05539512634277344,-0.3983955383300781,-0.6850099563598633,0.40206241607666016,-0.45864391326904297
198,654166016.0,9.33407974243164,-1.856760025024414,2.6360960006713867,-0.00852203369140625,-0.0010652542114257812,0.05539512634277344,-0.3983955383300781,-0.6850099563598633,0.40206241607666016,-0.45864391326904297
199,654166144.0,11.403929710388184,-4.231880187988281,5.355992317199707,-0.00852203369140625,-0.0010652542114257812,0.05539512634277344,-0.4165220260620117,-0.6889801025390625,0.39481258392333984,-0.4426755905151367
200,654166144.0,12.032426834106445,-4.358777046203613,5.94258975982666,-0.00852203369140625,-0.0010652542114257812,0.05539512634277344,-0.4165220260620117,-0.6889801025390625,0.39481258392333984,-0.4426755905151367
201,654166144.0,11.403929710388184,-4.231880187988281,5.355992317199707,-0.00852203369140625,-0.0010652542114257812,0.05539512634277344,-0.4165220260620117,-0.6889801025390625,0.39481258392333984,-0.4426755905151367
202,654166144.0,12.032426834106445,-4.358777046203613,5.94258975982666,-0.00852203369140625,-0.0010652542114257812,0.05539512634277344,-0.4165220260620117,-0.6889801025390625,0.39481258392333984,-0.4426755905151367
203,654166208.0,12.469382286071777,-5.761821746826172,5.949771881103516,-0.00852203369140625,-0.0010652542114257812,0.05539512634277344,-0.4165220260620117,-0.6889801025390625,0.39481258392333984,-0.4426755905151367
204,654166208.0,13.29540729522705,-9.210774421691895,5.608588218688965,-0.00852203369140625,-0.0010652542114257812,0.05539512634277344,-0.4165220260620117,-0.6889801025390625,0.39481258392333984,-0.4426755905151367
205,654166208.0,14.828940391540527,-11.235133171081543,5.758230209350586,-0.00852203369140625,-0.0010652542114257812,0.05539512634277344,-0.4165220260620117,-0.6889801025390625,0.39481258392333984,-0.4426755905151367
206,654166208.0,12.469382286071777,-5.761821746826172,5.949771881103516,-0.00852203369140625,-0.0010652542114257812,0.05539512634277344,-0.4165220260620117,-0.6889801025390625,0.39481258392333984,-0.4426755905151367
207,654166208.0,13.29540729522705,-9.210774421691895,5.608588218688965,-0.00852203369140625,-0.0010652542114257812,0.05539512634277344,-0.4165220260620117,-0.6889801025390625,0.39481258392333984,-0.4426755905151367
208,654166208.0,14.828940391540527,-11.235133171081543,5.758230209350586,-0.00852203369140625,-0.0010652542114257812,0.05539512634277344,-0.4165220260620117,-0.6889801025390625,0.39481258392333984,-0.4426755905151367
209,654166336.0,6.580663681030273,-11.703214645385742,2.7055301666259766,-1.7257804870605469,2.144442558288574,5.643942832946777,-0.4165220260620117,-0.6889801025390625,0.39481258392333984,-0.4426755905151367
210,654166336.0,6.580663681030273,-11.703214645385742,2.7055301666259766,-1.7257804870605469,2.144442558288574,5.643942832946777,-0.4165220260620117,-0.6889801025390625,0.39481258392333984,-0.4426755905151367
211,654166400.0,4.073858261108398,-11.494912147521973,2.5510988235473633,-1.7257804870605469,2.144442558288574,5.643942832946777,-0.4165220260620117,-0.6889801025390625,0.39481258392333984,-0.4426755905151367
212,654166400.0,2.4026546478271484,-8.691216468811035,2.992842674255371,-1.7257804870605469,2.144442558288574,5.643942832946777,-0.4165220260620117,-0.6889801025390625,0.39481258392333984,-0.4426755905151367
213,654166400.0,1.8124656677246094,-5.87554931640625,3.1472740173339844,-1.7257804870605469,2.144442558288574,5.643942832946777,-0.4165220260620117,-0.6889801025390625,0.39481258392333984,-0.4426755905151367
214,654166400.0,4.073858261108398,-11.494912147521973,2.5510988235473633,-1.7257804870605469,2.144442558288574,5.643942832946777,-0.4165220260620117,-0.6889801025390625,0.39481258392333984,-0.4426755905151367
215,654166400.0,2.4026546478271484,-8.691216468811035,2.992842674255371,-1.7257804870605469,2.144442558288574,5.643942832946777,-0.4165220260620117,-0.6889801025390625,0.39481258392333984,-0.4426755905151367
216,654166400.0,1.8124656677246094,-5.87554931640625,3.1472740173339844,-1.7257804870605469,2.144442558288574,5.643942832946777,-0.4165220260620117,-0.6889801025390625,0.39481258392333984,-0.4426755905151367
217,654166464.0,0.9553155899047852,-5.3428239822387695,2.4936370849609375,-1.7257804870605469,2.144442558288574,5.643942832946777,-0.4165220260620117,-0.6889801025390625,0.39481258392333984,-0.4426755905151367
218,654166464.0,0.9553155899047852,-5.3428239822387695,2.4936370849609375,-1.7257804870605469,2.144442558288574,5.643942832946777,-0.4165220260620117,-0.6889801025390625,0.39481258392333984,-0.4426755905151367
219,654166528.0,-2.942563056945801,-2.382303237915039,1.081014633178711,0.9960517883300781,1.5276355743408203,3.9213571548461914,-0.4165220260620117,-0.6889801025390625,0.39481258392333984,-0.4426755905151367
220,654166592.0,-3.833232879638672,-3.4549379348754883,1.3563566207885742,1.443476676940918,1.2368097305297852,2.633413314819336,-0.4165220260620117,-0.6889801025390625,0.39481258392333984,-0.4426755905151367
221,654166592.0,-4.27497673034668,-3.9110469818115234,1.391073226928711,1.443476676940918,1.2368097305297852,2.633413314819336,-0.4165220260620117,-0.6889801025390625,0.39481258392333984,-0.4426755905151367
222,654166592.0,-4.434196472167969,-3.0479116439819336,1.7310600280761719,1.443476676940918,1.2368097305297852,2.633413314819336,-0.4165220260620117,-0.6889801025390625,0.39481258392333984,-0.4426755905151367
223,654166656.0,-5.170435905456543,-1.9980220794677734,1.236642837524414,1.1142997741699219,1.178217887878418,2.289322853088379,-0.4165220260620117,-0.6889801025390625,0.39481258392333984,-0.4426755905151367
224,654166656.0,-6.020402908325195,-2.2649831771850586,0.9577093124389648,1.1142997741699219,1.178217887878418,2.289322853088379,-0.4165220260620117,-0.6889801025390625,0.39481258392333984,-0.4426755905151367
225,654166656.0,-6.301730155944824,-2.3296289443969727,2.6085615158081055,1.1142997741699219,1.178217887878418,2.289322853088379,-0.4165220260620117,-0.6889801025390625,0.39481258392333984,-0.4426755905151367
226,654166656.0,-6.020402908325195,-2.2649831771850586,0.9577093124389648,1.1142997741699219,1.178217887878418,2.289322853088379,-0.4165220260620117,-0.6889801025390625,0.39481258392333984,-0.4426755905151367
227,654166656.0,-6.301730155944824,-2.3296289443969727,2.6085615158081055,1.1142997741699219,1.178217887878418,2.289322853088379,-0.4165220260620117,-0.6889801025390625,0.39481258392333984,-0.4426755905151367
228,654166720.0,-6.214339256286621,-1.385087013244629,2.906648635864258,0.40587806701660156,0.9694194793701172,0.8426494598388672,-0.4165220260620117,-0.6889801025390625,0.39481258392333984,-0.4426755905151367
229,654166720.0,-6.742277145385742,0.14006423950195312,3.802107810974121,0.40587806701660156,0.9694194793701172,0.8426494598388672,-0.4165220260620117,-0.6889801025390625,0.39481258392333984,-0.4426755905151367
230,654166720.0,-6.214339256286621,-1.385087013244629,2.906648635864258,0.40587806701660156,0.9694194793701172,0.8426494598388672,-0.4165220260620117,-0.6889801025390625,0.39481258392333984,-0.4426755905151367
231,654166720.0,-6.742277145385742,0.14006423950195312,3.802107810974121,0.40587806701660156,0.9694194793701172,0.8426494598388672,-0.4165220260620117,-0.6889801025390625,0.39481258392333984,-0.4426755905151367
232,654166720.0,-7.743083953857422,0.3842802047729492,3.872738838195801,0.40587806701660156,0.9694194793701172,0.8426494598388672,-0.4165220260620117,-0.6889801025390625,0.39481258392333984,-0.4426755905151367
233,654166784.0,-8.107013702392578,-1.5227584838867188,0.9062328338623047,2.045370101928711,0.7371854782104492,0.4836444854736328,-0.4165220260620117,-0.6889801025390625,0.39481258392333984,-0.4426755905151367
234,654166784.0,-8.740299224853516,-2.004007339477539,-0.31963539123535156,2.045370101928711,0.7371854782104492,0.4836444854736328,-0.4165220260620117,-0.6889801025390625,0.39481258392333984,-0.4426755905151367
235,654166784.0,-8.937827110290527,-1.8651399612426758,-0.9337663650512695,2.045370101928711,0.7371854782104492,0.4836444854736328,-0.4165220260620117,-0.6889801025390625,0.39481258392333984,-0.4426755905151367
236,654166784.0,-7.825686454772949,0.21907520294189453,5.3045148849487305,2.045370101928711,0.7371854782104492,0.4836444854736328,-0.4165220260620117,-0.6889801025390625,0.39481258392333984,-0.4426755905151367
237,654166848.0,-8.75586223602295,1.2917108535766602,3.470500946044922,-0.37072277069091797,2.5300798416137695,0.12996578216552734,-0.3322334289550781,-0.7229032516479492,-0.2417736053466797,0.5555343627929688
238,654166976.0,-5.640911102294922,-5.358386039733887,-0.41899776458740234,-3.005202293395996,0.5464963912963867,-2.188119888305664,-0.44163990020751953,-0.6725368499755859,-0.23741436004638672,0.5442695617675781
239,654166976.0,-4.567078590393066,-3.894287109375,-1.2749509811401367,-3.005202293395996,0.5464963912963867,-2.188119888305664,-0.44163990020751953,-0.6725368499755859,-0.23741436004638672,0.5442695617675781
240,654166976.0,-4.528770446777344,-3.010800361633301,1.7071170806884766,-3.005202293395996,0.5464963912963867,-2.188119888305664,-0.44163990020751953,-0.6725368499755859,-0.23741436004638672,0.5442695617675781
241,654167040.0,-3.247833251953125,-4.604189872741699,1.883096694946289,3.943728446960449,-1.1846094131469727,-3.6560983657836914,-0.44163990020751953,-0.6725368499755859,-0.23741436004638672,0.5442695617675781
242,654167040.0,-2.9653091430664062,-3.6249313354492188,-0.40104007720947266,3.943728446960449,-1.1846094131469727,-3.6560983657836914,-0.44163990020751953,-0.6725368499755859,-0.23741436004638672,0.5442695617675781
243,654167040.0,-3.993649482727051,-0.5375137329101562,-0.268157958984375,3.943728446960449,-1.1846094131469727,-3.6560983657836914,-0.44163990020751953,-0.6725368499755859,-0.23741436004638672,0.5442695617675781
244,654167040.0,-3.6392974853515625,-0.5818080902099609,1.2402334213256836,3.943728446960449,-1.1846094131469727,-3.6560983657836914,-0.44163990020751953,-0.6725368499755859,-0.23741436004638672,0.5442695617675781
245,654167104.0,-1.9980220794677734,-2.7139101028442383,1.2031221389770508,1.4232358932495117,-2.072002410888672,-4.734179496765137,-0.44163990020751953,-0.6725368499755859,-0.23741436004638672,0.5442695617675781
246,654167104.0,-0.3184385299682617,-3.77217960357666,2.196746826171875,1.4232358932495117,-2.072002410888672,-4.734179496765137,-0.44163990020751953,-0.6725368499755859,-0.23741436004638672,0.5442695617675781
247,654167104.0,0.6093425750732422,-3.2023420333862305,2.4577226638793945,1.4232358932495117,-2.072002410888672,-4.734179496765137,-0.44163990020751953,-0.6725368499755859,-0.23741436004638672,0.5442695617675781
248,654167168.0,1.139674186706543,-4.6843976974487305,2.0351333618164062,1.4232358932495117,-2.072002410888672,-4.734179496765137,-0.44163990020751953,-0.6725368499755859,-0.23741436004638672,0.5442695617675781
249,654167168.0,2.062666893005371,-6.215537071228027,1.824437141418457,1.4232358932495117,-2.072002410888672,-4.734179496765137,-0.44163990020751953,-0.6725368499755859,-0.23741436004638672,0.5442695617675781
250,654167168.0,3.9505529403686523,-8.515237808227539,3.8595705032348633,1.4232358932495117,-2.072002410888672,-4.734179496765137,-0.44163990020751953,-0.6725368499755859,-0.23741436004638672,0.5442695617675781
251,654167232.0,5.115367889404297,-9.620195388793945,5.171632766723633,1.1750221252441406,-2.9114561080932617,-5.393597602844238,-0.44163990020751953,-0.6725368499755859,-0.23741436004638672,0.5442695617675781
252,654167232.0,4.364762306213379,-8.710371017456055,3.243044853210449,1.1750221252441406,-2.9114561080932617,-5.393597602844238,-0.44163990020751953,-0.6725368499755859,-0.23741436004638672,0.5442695617675781
253,654167232.0,4.088223457336426,-9.281405448913574,0.6668052673339844,1.1750221252441406,-2.9114561080932617,-5.393597602844238,-0.44163990020751953,-0.6725368499755859,-0.23741436004638672,0.5442695617675781
254,654167296.0,6.106596946716309,-9.085075378417969,3.713520050048828,1.629903793334961,-4.36665153503418,-4.923802375793457,-0.44163990020751953,-0.6725368499755859,-0.23741436004638672,0.5442695617675781
255,654167296.0,7.151698112487793,-7.288171768188477,8.843253135681152,1.629903793334961,-4.36665153503418,-4.923802375793457,-0.44163990020751953,-0.6725368499755859,-0.23741436004638672,0.5442695617675781
256,654167296.0,7.257045745849609,-7.765829086303711,9.890748023986816,1.629903793334961,-4.36665153503418,-4.923802375793457,-0.44163990020751953,-0.6725368499755859,-0.23741436004638672,0.5442695617675781
257,654167360.0,8.669668197631836,-6.086245536804199,6.300533294677734,2.3383264541625977,-4.78211784362793,-5.338202476501465,-0.41518402099609375,-0.7378358840942383,0.41319751739501953,-0.33542728424072266
258,654167424.0,17.8900203704834,-4.510812759399414,4.6843976974487305,1.997431755065918,-3.8329381942749023,-4.47318172454834,-0.3602867126464844,-0.6503534317016602,0.4391355514526367,-0.5043487548828125
259,654167488.0,14.761899948120117,-4.1911773681640625,5.813298225402832,1.997431755065918,-3.8329381942749023,-4.47318172454834,-0.3602867126464844,-0.6503534317016602,0.4391355514526367,-0.5043487548828125
260,654167488.0,11.129785537719727,-4.047520637512207,5.413455009460449,1.997431755065918,-3.8329381942749023,-4.47318172454834,-0.3602867126464844,-0.6503534317016602,0.4391355514526367,-0.5043487548828125
261,654167488.0,8.727130889892578,-4.168432235717773,6.01441764831543,1.997431755065918,-3.8329381942749023,-4.47318172454834,-0.3602867126464844,-0.6503534317016602,0.4391355514526367,-0.5043487548828125
262,654167552.0,9.815328598022461,-4.625738143920898,7.271411895751953,0.3792448043823242,-0.08415794372558594,1.447737693786621,-0.3602867126464844,-0.6503534317016602,0.4391355514526367,-0.5043487548828125
263,654167552.0,11.113025665283203,-4.458139419555664,7.528796195983887,0.3792448043823242,-0.08415794372558594,1.447737693786621,-0.3602867126464844,-0.6503534317016602,0.4391355514526367,-0.5043487548828125
264,654167552.0,10.66769027709961,-3.3424072265625,7.429433822631836,0.3792448043823242,-0.08415794372558594,1.447737693786621,-0.3602867126464844,-0.6503534317016602,0.4391355514526367,-0.5043487548828125
265,654167616.0,10.120598793029785,-3.0239686965942383,6.268210411071777,1.4392156600952148,0.28017234802246094,1.251723289489746,-0.3602867126464844,-0.6503534317016602,0.4391355514526367,-0.5043487548828125
266,654167616.0,10.233129501342773,-2.1129465103149414,5.314092636108398,1.4392156600952148,0.28017234802246094,1.251723289489746,-0.3602867126464844,-0.6503534317016602,0.4391355514526367,-0.5043487548828125
267,654167616.0,10.488120079040527,-0.7134933471679688,5.130929946899414,1.4392156600952148,0.28017234802246094,1.251723289489746,-0.3602867126464844,-0.6503534317016602,0.4391355514526367,-0.5043487548828125
268,654167680.0,10.440234184265137,0.27773571014404297,4.019987106323242,-1.0834064483642578,0.8288002014160156,1.1579771041870117,-0.3602867126464844,-0.6503534317016602,0.4391355514526367,-0.5043487548828125
269,654167680.0,10.138555526733398,0.5375137329101562,2.500819206237793,-1.0834064483642578,0.8288002014160156,1.1579771041870117,-0.3602867126464844,-0.6503534317016602,0.4391355514526367,-0.5043487548828125
270,654167680.0,10.11581039428711,0.2310466766357422,1.6173324584960938,-1.0834064483642578,0.8288002014160156,1.1579771041870117,-0.3602867126464844,-0.6503534317016602,0.4391355514526367,-0.5043487548828125
271,654167680.0,10.034404754638672,0.24301815032958984,1.723876953125,-1.0834064483642578,0.8288002014160156,1.1579771041870117,-0.3602867126464844,-0.6503534317016602,0.4391355514526367,-0.5043487548828125
272,654167744.0,9.682446479797363,-0.11731910705566406,1.295302391052246,-0.9949865341186523,0.7244014739990234,1.008835792541504,-0.3602867126464844,-0.6503534317016602,0.4391355514526367,-0.5043487548828125
273,654167744.0,9.480130195617676,-0.6907482147216797,0.8858814239501953,-0.9949865341186523,0.7244014739990234,1.008835792541504,-0.3602867126464844,-0.6503534317016602,0.4391355514526367,-0.5043487548828125
274,654167744.0,9.369993209838867,-1.0702400207519531,0.8727130889892578,-0.9949865341186523,0.7244014739990234,1.008835792541504,-0.3602867126464844,-0.6503534317016602,0.4391355514526367,-0.5043487548828125
275,654167744.0,9.480130195617676,-0.6907482147216797,0.8858814239501953,-0.9949865341186523,0.7244014739990234,1.008835792541504,-0.3602867126464844,-0.6503534317016602,0.4391355514526367,-0.5043487548828125
276,654167744.0,9.369993209838867,-1.0702400207519531,0.8727130889892578,-0.9949865341186523,0.7244014739990234,1.008835792541504,-0.3602867126464844,-0.6503534317016602,0.4391355514526367,-0.5043487548828125
277,654167808.0,9.182043075561523,-1.391073226928711,1.7813396453857422,-0.0010652542114257812,0.36646175384521484,0.5869779586791992,-0.3602867126464844,-0.6503534317016602,0.4391355514526367,-0.5043487548828125
278,654167808.0,9.123383522033691,-1.5526866912841797,1.8064794540405273,-0.0010652542114257812,0.36646175384521484,0.5869779586791992,-0.3602867126464844,-0.6503534317016602,0.4391355514526367,-0.5043487548828125
279,654167808.0,8.771425247192383,-1.544306755065918,1.4257898330688477,-0.0010652542114257812,0.36646175384521484,0.5869779586791992,-0.3602867126464844,-0.6503534317016602,0.4391355514526367,-0.5043487548828125
280,654167808.0,9.182043075561523,-1.391073226928711,1.7813396453857422,-0.0010652542114257812,0.36646175384521484,0.5869779586791992,-0.3602867126464844,-0.6503534317016602,0.4391355514526367,-0.5043487548828125
281,654167808.0,9.123383522033691,-1.5526866912841797,1.8064794540405273,-0.0010652542114257812,0.36646175384521484,0.5869779586791992,-0.3602867126464844,-0.6503534317016602,0.4391355514526367,-0.5043487548828125
282,654167808.0,8.771425247192383,-1.544306755065918,1.4257898330688477,-0.0010652542114257812,0.36646175384521484,0.5869779586791992,-0.3602867126464844,-0.6503534317016602,0.4391355514526367,-0.5043487548828125
283,654167936.0,8.679244995117188,-1.6257123947143555,1.8699283599853516,0.7457075119018555,-0.1779041290283203,-0.1320962905883789,-0.3602867126464844,-0.6503534317016602,0.4391355514526367,-0.5043487548828125
284,654168000.0,9.092257499694824,-1.7705659866333008,2.0530900955200195,0.7457075119018555,-0.1779041290283203,-0.1320962905883789,-0.3602867126464844,-0.6503534317016602,0.4391355514526367,-0.5043487548828125
285,654168000.0,9.086272239685059,-2.0195703506469727,2.069849967956543,0.7457075119018555,-0.1779041290283203,-0.1320962905883789,-0.3602867126464844,-0.6503534317016602,0.4391355514526367,-0.5043487548828125
286,654168000.0,8.931840896606445,-2.036330223083496,2.069849967956543,0.7457075119018555,-0.1779041290283203,-0.1320962905883789,-0.3602867126464844,-0.6503534317016602,0.4391355514526367,-0.5043487548828125
287,654168000.0,9.129368782043457,-2.0135841369628906,2.4325828552246094,0.7457075119018555,-0.1779041290283203,-0.1320962905883789,-0.3602867126464844,-0.6503534317016602,0.4391355514526367,-0.5043487548828125
288,654168128.0,9.443018913269043,-1.9441509246826172,2.346388816833496,-0.0916147232055664,-0.18109989166259766,0.09481048583984375,-0.3602867126464844,-0.6503534317016602,0.4391355514526367,-0.5043487548828125
289,654168192.0,9.446610450744629,-2.0878067016601562,2.685178756713867,0.09374523162841797,-0.13103103637695312,0.2354297637939453,-0.3602867126464844,-0.6503534317016602,0.4391355514526367,-0.5043487548828125
290,654168192.0,9.512453079223633,-1.9980220794677734,2.9509429931640625,0.09374523162841797,-0.13103103637695312,0.2354297637939453,-0.3602867126464844,-0.6503534317016602,0.4391355514526367,-0.5043487548828125
291,654168192.0,9.4968900680542,-1.8591537475585938,2.7402467727661133,0.09374523162841797,-0.13103103637695312,0.2354297637939453,-0.3602867126464844,-0.6503534317016602,0.4391355514526367,-0.5043487548828125
292,654168256.0,9.3855562210083,-1.759791374206543,2.6049699783325195,0.1619243621826172,-0.0916147232055664,0.2418222427368164,-0.3602867126464844,-0.6503534317016602,0.4391355514526367,-0.5043487548828125
293,654168256.0,9.310136795043945,-1.7166948318481445,2.8635520935058594,0.1619243621826172,-0.0916147232055664,0.2418222427368164,-0.3602867126464844,-0.6503534317016602,0.4391355514526367,-0.5043487548828125
294,654168256.0,9.441822052001953,-1.7849311828613281,2.8970718383789062,0.1619243621826172,-0.0916147232055664,0.2418222427368164,-0.3602867126464844,-0.6503534317016602,0.4391355514526367,-0.5043487548828125
295,654168256.0,9.310136795043945,-1.7166948318481445,2.8635520935058594,0.1619243621826172,-0.0916147232055664,0.2418222427368164,-0.3602867126464844,-0.6503534317016602,0.4391355514526367,-0.5043487548828125
296,654168256.0,9.441822052001953,-1.7849311828613281,2.8970718383789062,0.1619243621826172,-0.0916147232055664,0.2418222427368164,-0.3602867126464844,-0.6503534317016602,0.4391355514526367,-0.5043487548828125
297,654168256.0,9.310136795043945,-1.7166948318481445,2.8635520935058594,0.1619243621826172,-0.0916147232055664,0.2418222427368164,-0.3602867126464844,-0.6503534317016602,0.4391355514526367,-0.5043487548828125
298,654168256.0,9.441822052001953,-1.7849311828613281,2.8970718383789062,0.1619243621826172,-0.0916147232055664,0.2418222427368164,-0.3602867126464844,-0.6503534317016602,0.4391355514526367,-0.5043487548828125
299,654168320.0,9.42625904083252,-1.8316192626953125,2.7629928588867188,0.12783527374267578,0.01597881317138672,0.12037849426269531,-0.3602867126464844,-0.6503534317016602,0.4391355514526367,-0.5043487548828125
300,654168320.0,9.275420188903809,-1.638880729675293,2.6073646545410156,0.12783527374267578,0.01597881317138672,0.12037849426269531,-0.3602867126464844,-0.6503534317016602,0.4391355514526367,-0.5043487548828125
301,654168320.0,9.245491027832031,-1.4952239990234375,2.7989063262939453,0.12783527374267578,0.01597881317138672,0.12037849426269531,-0.3602867126464844,-0.6503534317016602,0.4391355514526367,-0.5043487548828125
302,654168320.0,9.42625904083252,-1.8316192626953125,2.7629928588867188,0.12783527374267578,0.01597881317138672,0.12037849426269531,-0.3602867126464844,-0.6503534317016602,0.4391355514526367,-0.5043487548828125
303,654168320.0,9.275420188903809,-1.638880729675293,2.6073646545410156,0.12783527374267578,0.01597881317138672,0.12037849426269531,-0.3602867126464844,-0.6503534317016602,0.4391355514526367,-0.5043487548828125
304,654168320.0,9.245491027832031,-1.4952239990234375,2.7989063262939453,0.12783527374267578,0.01597881317138672,0.12037849426269531,-0.3602867126464844,-0.6503534317016602,0.4391355514526367,-0.5043487548828125
305,654168320.0,9.42625904083252,-1.8316192626953125,2.7629928588867188,0.12783527374267578,0.01597881317138672,0.12037849426269531,-0.3602867126464844,-0.6503534317016602,0.4391355514526367,-0.5043487548828125
306,654168320.0,9.275420188903809,-1.638880729675293,2.6073646545410156,0.12783527374267578,0.01597881317138672,0.12037849426269531,-0.3602867126464844,-0.6503534317016602,0.4391355514526367,-0.5043487548828125
307,654168320.0,9.245491027832031,-1.4952239990234375,2.7989063262939453,0.12783527374267578,0.01597881317138672,0.12037849426269531,-0.3602867126464844,-0.6503534317016602,0.4391355514526367,-0.5043487548828125
308,654168320.0,9.464567184448242,-1.4964208602905273,2.717501640319824,0.12783527374267578,0.01597881317138672,0.12037849426269531,-0.3602867126464844,-0.6503534317016602,0.4391355514526367,-0.5043487548828125
309,654168384.0,9.472947120666504,-1.576629638671875,2.449342727661133,-0.10120296478271484,0.07350540161132812,0.1033334732055664,-0.3602867126464844,-0.6503534317016602,0.4391355514526367,-0.5043487548828125
310,654168384.0,9.296968460083008,-1.6077547073364258,2.41342830657959,-0.10120296478271484,0.07350540161132812,0.1033334732055664,-0.3602867126464844,-0.6503534317016602,0.4391355514526367,-0.5043487548828125
311,654168384.0,9.262250900268555,-1.8376054763793945,2.409836769104004,-0.10120296478271484,0.07350540161132812,0.1033334732055664,-0.3602867126464844,-0.6503534317016602,0.4391355514526367,-0.5043487548828125
312,654168448.0,9.310136795043945,-1.8986597061157227,2.3918800354003906,0.10865974426269531,0.0628519058227539,0.08948421478271484,-0.3602867126464844,-0.6503534317016602,0.4391355514526367,-0.5043487548828125
313,654168576.0,9.155706405639648,-1.7765512466430664,2.212308883666992,0.05113410949707031,0.005326271057128906,-0.09267997741699219,-0.3602867126464844,-0.6503534317016602,0.4391355514526367,-0.5043487548828125
314,654168576.0,9.103032112121582,-1.9046449661254883,2.3703317642211914,0.05113410949707031,0.005326271057128906,-0.09267997741699219,-0.3602867126464844,-0.6503534317016602,0.4391355514526367,-0.5043487548828125
315,654168576.0,9.273025512695312,-1.9585161209106445,2.3032913208007812,0.05113410949707031,0.005326271057128906,-0.09267997741699219,-0.3602867126464844,-0.6503534317016602,0.4391355514526367,-0.5043487548828125
316,654168576.0,9.296968460083008,-1.9142217636108398,2.2374496459960938,0.05113410949707031,0.005326271057128906,-0.09267997741699219,-0.3602867126464844,-0.6503534317016602,0.4391355514526367,-0.5043487548828125
317,654168640.0,9.140143394470215,-1.9884443283081055,2.254209518432617,0.04900360107421875,0.005326271057128906,-0.1097249984741211,-0.39377689361572266,-0.6807374954223633,0.36861515045166016,-0.49563121795654297
318,654168768.0,9.37478256225586,-1.9656991958618164,2.218295097351074,0.04900360107421875,0.005326271057128906,-0.1097249984741211,-0.3923959732055664,-0.6815576553344727,0.3697805404663086,-0.49468135833740234
319,654168768.0,9.33527660369873,-1.9956274032592773,2.1847753524780273,0.04900360107421875,0.005326271057128906,-0.1097249984741211,-0.3923959732055664,-0.6815576553344727,0.3697805404663086,-0.49468135833740234
320,654168768.0,9.273025512695312,-2.0423154830932617,2.2111120223999023,0.04900360107421875,0.005326271057128906,-0.1097249984741211,-0.3923959732055664,-0.6815576553344727,0.3697805404663086,-0.49468135833740234
321,654168832.0,9.28499698638916,-2.1368894577026367,2.260194778442383,0.04900360107421875,0.005326271057128906,-0.1097249984741211,-0.3923959732055664,-0.6815576553344727,0.3697805404663086,-0.49468135833740234
322,654168832.0,9.261054039001465,-1.9285879135131836,2.2685747146606445,0.04900360107421875,0.005326271057128906,-0.1097249984741211,-0.3923959732055664,-0.6815576553344727,0.3697805404663086,-0.49468135833740234
323,654168832.0,9.239505767822266,-1.9273910522460938,2.2039289474487305,0.04900360107421875,0.005326271057128906,-0.1097249984741211,-0.3923959732055664,-0.6815576553344727,0.3697805404663086,-0.49468135833740234
324,654168832.0,9.239505767822266,-1.9273910522460938,2.2039289474487305,0.04900360107421875,0.005326271057128906,-0.1097249984741211,-0.3923959732055664,-0.6815576553344727,0.3697805404663086,-0.49468135833740234
325,654168896.0,9.304150581359863,-2.196746826171875,2.266180992126465,0.04900360107421875,0.005326271057128906,-0.1097249984741211,-0.3923959732055664,-0.6815576553344727,0.3697805404663086,-0.49468135833740234
326,654168896.0,9.35682487487793,-2.094989776611328,2.3368120193481445,0.04900360107421875,0.005326271057128906,-0.1097249984741211,-0.3923959732055664,-0.6815576553344727,0.3697805404663086,-0.49468135833740234
327,654168896.0,9.368796348571777,-1.919011116027832,2.4301881790161133,0.04900360107421875,0.005326271057128906,-0.1097249984741211,-0.3923959732055664,-0.6815576553344727,0.3697805404663086,-0.49468135833740234
328,654168896.0,9.35562801361084,-1.9046449661254883,2.3631486892700195,0.04900360107421875,0.005326271057128906,-0.1097249984741211,-0.3923959732055664,-0.6815576553344727,0.3697805404663086,-0.49468135833740234
329,654168896.0,9.304150581359863,-2.196746826171875,2.266180992126465,0.04900360107421875,0.005326271057128906,-0.1097249984741211,-0.3923959732055664,-0.6815576553344727,0.3697805404663086,-0.49468135833740234
330,654168896.0,9.35682487487793,-2.094989776611328,2.3368120193481445,0.04900360107421875,0.005326271057128906,-0.1097249984741211,-0.3923959732055664,-0.6815576553344727,0.3697805404663086,-0.49468135833740234
331,654168896.0,9.368796348571777,-1.919011116027832,2.4301881790161133,0.04900360107421875,0.005326271057128906,-0.1097249984741211,-0.3923959732055664,-0.6815576553344727,0.3697805404663086,-0.49468135833740234
332,654168896.0,9.35562801361084,-1.9046449661254883,2.3631486892700195,0.04900360107421875,0.005326271057128906,-0.1097249984741211,-0.3923959732055664,-0.6815576553344727,0.3697805404663086,-0.49468135833740234
333,654168960.0,9.328093528747559,-2.098581314086914,2.339205741882324,0.0021305084228515625,-0.02769756317138672,0.0063915252685546875,-0.3923959732055664,-0.6815576553344727,0.3697805404663086,-0.49468135833740234
334,654168960.0,9.28739070892334,-2.0830183029174805,2.4206113815307617,0.0021305084228515625,-0.02769756317138672,0.0063915252685546875,-0.3923959732055664,-0.6815576553344727,0.3697805404663086,-0.49468135833740234
335,654168960.0,9.33647346496582,-2.0554847717285156,2.496030807495117,0.0021305084228515625,-0.02769756317138672,0.0063915252685546875,-0.3923959732055664,-0.6815576553344727,0.3697805404663086,-0.49468135833740234
336,654169024.0,9.359219551086426,-1.9764728546142578,2.444554328918457,0.03835010528564453,0.009587287902832031,0.033023834228515625,-0.3923959732055664,-0.6815576553344727,0.3697805404663086,-0.49468135833740234
337,654169024.0,9.318516731262207,-1.9477424621582031,2.3930768966674805,0.03835010528564453,0.009587287902832031,0.033023834228515625,-0.3923959732055664,-0.6815576553344727,0.3697805404663086,-0.49468135833740234
338,654169024.0,9.250279426574707,-1.9333763122558594,2.5091991424560547,0.03835010528564453,0.009587287902832031,0.033023834228515625,-0.3923959732055664,-0.6815576553344727,0.3697805404663086,-0.49468135833740234
339,654169088.0,9.288588523864746,-1.856760025024414,2.543916702270508,-0.031958580017089844,0.034089088439941406,0.0287628173828125,-0.3923959732055664,-0.6815576553344727,0.3697805404663086,-0.49468135833740234
340,654169088.0,9.323305130004883,-1.9070396423339844,2.4122314453125,-0.031958580017089844,0.034089088439941406,0.0287628173828125,-0.3923959732055664,-0.6815576553344727,0.3697805404663086,-0.49468135833740234
341,654169088.0,9.23471736907959,-1.9034481048583984,2.3882884979248047,-0.031958580017089844,0.034089088439941406,0.0287628173828125,-0.3923959732055664,-0.6815576553344727,0.3697805404663086,-0.49468135833740234
342,654169152.0,9.195211410522461,-1.9824590682983398,2.369133949279785,-0.026632308959960938,0.01810932159423828,0.022370338439941406,-0.3947267532348633,-0.6898870468139648,0.3659391403198242,-0.48406505584716797
343,654169216.0,9.2550687789917,-1.9070396423339844,2.262589454650879,0.04367637634277344,0.012783050537109375,0.005326271057128906,-0.3937339782714844,-0.6909656524658203,0.3655509948730469,-0.4836759567260742
344,654169280.0,9.23711109161377,-1.9465446472167969,2.159635543823242,0.022370338439941406,-0.0010652542114257812,-0.0010652542114257812,-0.3937339782714844,-0.6909656524658203,0.3655509948730469,-0.4836759567260742
345,654169280.0,9.222745895385742,-1.952530860900879,2.2147035598754883,0.022370338439941406,-0.0010652542114257812,-0.0010652542114257812,-0.3937339782714844,-0.6909656524658203,0.3655509948730469,-0.4836759567260742
346,654169280.0,9.23471736907959,-1.9920358657836914,2.287729263305664,0.022370338439941406,-0.0010652542114257812,-0.0010652542114257812,-0.3937339782714844,-0.6909656524658203,0.3655509948730469,-0.4836759567260742
347,654169344.0,9.289785385131836,-1.9237995147705078,2.2613916397094727,0.033023834228515625,-0.009587287902832031,0.0,-0.3937339782714844,-0.6909656524658203,0.3655509948730469,-0.4836759567260742
348,654169344.0,9.28739070892334,-1.9034481048583984,2.193155288696289,0.033023834228515625,-0.009587287902832031,0.0,-0.3937339782714844,-0.6909656524658203,0.3655509948730469,-0.4836759567260742
349,654169344.0,9.249082565307617,-1.9214048385620117,2.22308349609375,0.033023834228515625,-0.009587287902832031,0.0,-0.3937339782714844,-0.6909656524658203,0.3655509948730469,-0.4836759567260742
350,654169344.0,9.28739070892334,-1.9034481048583984,2.193155288696289,0.033023834228515625,-0.009587287902832031,0.0,-0.3937339782714844,-0.6909656524658203,0.3655509948730469,-0.4836759567260742
351,654169344.0,9.249082565307617,-1.9214048385620117,2.22308349609375,0.033023834228515625,-0.009587287902832031,0.0,-0.3937339782714844,-0.6909656524658203,0.3655509948730469,-0.4836759567260742
352,654169408.0,9.274222373962402,-2.041118621826172,2.2350549697875977,0.033023834228515625,-0.009587287902832031,0.0,-0.3937339782714844,-0.6909656524658203,0.3655509948730469,-0.4836759567260742
353,654169408.0,9.290982246398926,-2.0267534255981445,2.2685747146606445,0.033023834228515625,-0.009587287902832031,0.0,-0.3937339782714844,-0.6909656524658203,0.3655509948730469,-0.4836759567260742
354,654169408.0,9.243097305297852,-1.939361572265625,2.285334587097168,0.033023834228515625,-0.009587287902832031,0.0,-0.3937339782714844,-0.6909656524658203,0.3655509948730469,-0.4836759567260742
355,654169408.0,9.274222373962402,-2.041118621826172,2.2350549697875977,0.033023834228515625,-0.009587287902832031,0.0,-0.3937339782714844,-0.6909656524658203,0.3655509948730469,-0.4836759567260742
356,654169408.0,9.290982246398926,-2.0267534255981445,2.2685747146606445,0.033023834228515625,-0.009587287902832031,0.0,-0.3937339782714844,-0.6909656524658203,0.3655509948730469,-0.4836759567260742
357,654169408.0,9.243097305297852,-1.939361572265625,2.285334587097168,0.033023834228515625,-0.009587287902832031,0.0,-0.3937339782714844,-0.6909656524658203,0.3655509948730469,-0.4836759567260742
358,654169472.0,9.225139617919922,-1.9405593872070312,2.29251766204834,0.012783050537109375,-0.03941535949707031,0.0063915252685546875,-0.3937339782714844,-0.6909656524658203,0.3655509948730469,-0.4836759567260742
359,654169472.0,9.220351219177246,-1.9764728546142578,2.29132080078125,0.012783050537109375,-0.03941535949707031,0.0063915252685546875,-0.3937339782714844,-0.6909656524658203,0.3655509948730469,-0.4836759567260742
360,654169472.0,9.35562801361084,-2.0578784942626953,2.353571891784668,0.012783050537109375,-0.03941535949707031,0.0063915252685546875,-0.3937339782714844,-0.6909656524658203,0.3655509948730469,-0.4836759567260742
361,654169536.0,9.447807312011719,-1.9848527908325195,2.3703317642211914,0.07137489318847656,-0.02769756317138672,0.005326271057128906,-0.3937339782714844,-0.6909656524658203,0.3655509948730469,-0.4836759567260742
362,654169536.0,9.293376922607422,-1.8926734924316406,2.4038515090942383,0.07137489318847656,-0.02769756317138672,0.005326271057128906,-0.3937339782714844,-0.6909656524658203,0.3655509948730469,-0.4836759567260742
363,654169536.0,9.319713592529297,-1.9034481048583984,2.405048370361328,0.07137489318847656,-0.02769756317138672,0.005326271057128906,-0.3937339782714844,-0.6909656524658203,0.3655509948730469,-0.4836759567260742
364,654169536.0,9.348444938659668,-1.9692907333374023,2.415822982788086,0.07137489318847656,-0.02769756317138672,0.005326271057128906,-0.3937339782714844,-0.6909656524658203,0.3655509948730469,-0.4836759567260742
365,654169600.0,9.311333656311035,-1.9441509246826172,2.5139875411987305,0.07137489318847656,-0.02769756317138672,0.005326271057128906,-0.3937339782714844,-0.6909656524658203,0.3655509948730469,-0.4836759567260742
366,654169600.0,9.293376922607422,-1.8687305450439453,2.4804677963256836,0.07137489318847656,-0.02769756317138672,0.005326271057128906,-0.3937339782714844,-0.6909656524658203,0.3655509948730469,-0.4836759567260742
367,654169600.0,9.271828651428223,-1.8998565673828125,2.440962791442871,0.07137489318847656,-0.02769756317138672,0.005326271057128906,-0.3937339782714844,-0.6909656524658203,0.3655509948730469,-0.4836759567260742
368,654169664.0,9.274222373962402,-2.008795738220215,2.4206113815307617,0.04793834686279297,0.026632308959960938,0.0,-0.3937339782714844,-0.6909656524658203,0.3655509948730469,-0.4836759567260742
369,654169664.0,9.295770645141602,-2.1153411865234375,2.377513885498047,0.04793834686279297,0.026632308959960938,0.0,-0.3937339782714844,-0.6909656524658203,0.3655509948730469,-0.4836759567260742
370,654169664.0,9.292180061340332,-2.011190414428711,2.431385040283203,0.04793834686279297,0.026632308959960938,0.0,-0.3937339782714844,-0.6909656524658203,0.3655509948730469,-0.4836759567260742
371,654169664.0,9.274222373962402,-2.008795738220215,2.4206113815307617,0.04793834686279297,0.026632308959960938,0.0,-0.3937339782714844,-0.6909656524658203,0.3655509948730469,-0.4836759567260742
372,654169664.0,9.295770645141602,-2.1153411865234375,2.377513885498047,0.04793834686279297,0.026632308959960938,0.0,-0.3937339782714844,-0.6909656524658203,0.3655509948730469,-0.4836759567260742
373,654169664.0,9.292180061340332,-2.011190414428711,2.431385040283203,0.04793834686279297,0.026632308959960938,0.0,-0.3937339782714844,-0.6909656524658203,0.3655509948730469,-0.4836759567260742
374,654169728.0,9.232322692871094,-1.8878850936889648,2.348782539367676,-0.009587287902832031,0.026632308959960938,-0.004261016845703125,-0.3937339782714844,-0.6909656524658203,0.3655509948730469,-0.4836759567260742
375,654169728.0,9.288588523864746,-1.9142217636108398,2.3451919555664062,-0.009587287902832031,0.026632308959960938,-0.004261016845703125,-0.3937339782714844,-0.6909656524658203,0.3655509948730469,-0.4836759567260742
376,654169728.0,9.232322692871094,-1.8878850936889648,2.348782539367676,-0.009587287902832031,0.026632308959960938,-0.004261016845703125,-0.3937339782714844,-0.6909656524658203,0.3655509948730469,-0.4836759567260742
377,654169728.0,9.288588523864746,-1.9142217636108398,2.3451919555664062,-0.009587287902832031,0.026632308959960938,-0.004261016845703125,-0.3937339782714844,-0.6909656524658203,0.3655509948730469,-0.4836759567260742
378,654169856.0,9.239505767822266,-2.091398239135742,2.280546188354492,0.012783050537109375,-0.009587287902832031,0.0063915252685546875,-0.3937339782714844,-0.6909656524658203,0.3655509948730469,-0.4836759567260742
379,654169856.0,9.240702629089355,-1.977670669555664,2.328432083129883,0.012783050537109375,-0.009587287902832031,0.0063915252685546875,-0.3937339782714844,-0.6909656524658203,0.3655509948730469,-0.4836759567260742
380,654169856.0,9.323305130004883,-1.9214048385620117,2.253011703491211,0.012783050537109375,-0.009587287902832031,0.0063915252685546875,-0.3937339782714844,-0.6909656524658203,0.3655509948730469,-0.4836759567260742
381,654169920.0,9.326896667480469,-1.9740791320800781,2.249420166015625,-0.026632308959960938,0.005326271057128906,0.0021305084228515625,-0.3937339782714844,-0.6909656524658203,0.3655509948730469,-0.4836759567260742
382,654169920.0,9.241899490356445,-1.968092918395996,2.2613916397094727,-0.026632308959960938,0.005326271057128906,0.0021305084228515625,-0.3937339782714844,-0.6909656524658203,0.3655509948730469,-0.4836759567260742
383,654169920.0,9.227534294128418,-2.012387275695801,2.3056859970092773,-0.026632308959960938,0.005326271057128906,0.0021305084228515625,-0.3937339782714844,-0.6909656524658203,0.3655509948730469,-0.4836759567260742
384,654169920.0,9.227534294128418,-2.012387275695801,2.3056859970092773,-0.026632308959960938,0.005326271057128906,0.0021305084228515625,-0.3937339782714844,-0.6909656524658203,0.3655509948730469,-0.4836759567260742
385,654169984.0,9.387950897216797,-1.9597129821777344,2.310474395751953,-0.026632308959960938,0.005326271057128906,0.0021305084228515625,-0.3937339782714844,-0.6909656524658203,0.3655509948730469,-0.4836759567260742
386,654169984.0,9.347248077392578,-1.9010534286499023,2.254209518432617,-0.026632308959960938,0.005326271057128906,0.0021305084228515625,-0.3937339782714844,-0.6909656524658203,0.3655509948730469,-0.4836759567260742
387,654169984.0,9.09584903717041,-1.9573192596435547,2.249420166015625,-0.026632308959960938,0.005326271057128906,0.0021305084228515625,-0.3937339782714844,-0.6909656524658203,0.3655509948730469,-0.4836759567260742
388,654169984.0,9.387950897216797,-1.9597129821777344,2.310474395751953,-0.026632308959960938,0.005326271057128906,0.0021305084228515625,-0.3937339782714844,-0.6909656524658203,0.3655509948730469,-0.4836759567260742
389,654169984.0,9.347248077392578,-1.9010534286499023,2.254209518432617,-0.026632308959960938,0.005326271057128906,0.0021305084228515625,-0.3937339782714844,-0.6909656524658203,0.3655509948730469,-0.4836759567260742
390,654169984.0,9.09584903717041,-1.9573192596435547,2.249420166015625,-0.026632308959960938,0.005326271057128906,0.0021305084228515625,-0.3937339782714844,-0.6909656524658203,0.3655509948730469,-0.4836759567260742
391,654170048.0,9.223942756652832,-2.0746383666992188,2.339205741882324,0.033023834228515625,0.01810932159423828,-0.05113410949707031,-0.3926124572753906,-0.6934690475463867,0.3650331497192383,-0.4814319610595703
392,654170048.0,9.223942756652832,-2.0746383666992188,2.339205741882324,0.033023834228515625,0.01810932159423828,-0.05113410949707031,-0.3926124572753906,-0.6934690475463867,0.3650331497192383,-0.4814319610595703
393,654170112.0,9.308939933776855,-2.0423154830932617,2.4242029190063477,-0.033023834228515625,0.009587287902832031,0.007456779479980469,-0.39256858825683594,-0.6930370330810547,0.36606884002685547,-0.4812164306640625
394,654170176.0,9.332881927490234,-2.029147148132324,2.369133949279785,-0.033023834228515625,0.009587287902832031,0.007456779479980469,-0.39256858825683594,-0.6930370330810547,0.36606884002685547,-0.4812164306640625
395,654170176.0,9.271828651428223,-2.014781951904297,2.382303237915039,-0.033023834228515625,0.009587287902832031,0.007456779479980469,-0.39256858825683594,-0.6930370330810547,0.36606884002685547,-0.4812164306640625
396,654170176.0,9.21556282043457,-2.004007339477539,2.354768753051758,-0.033023834228515625,0.009587287902832031,0.007456779479980469,-0.39256858825683594,-0.6930370330810547,0.36606884002685547,-0.4812164306640625
397,654170240.0,9.147326469421387,-1.8926734924316406,2.3607540130615234,-0.03515434265136719,0.022370338439941406,0.045806884765625,-0.39256858825683594,-0.6930370330810547,0.36606884002685547,-0.4812164306640625
398,654170240.0,9.210774421691895,-1.8316192626953125,2.3032913208007812,-0.03515434265136719,0.022370338439941406,0.045806884765625,-0.39256858825683594,-0.6930370330810547,0.36606884002685547,-0.4812164306640625
399,654170240.0,9.221549034118652,-1.857956886291504,2.310474395751953,-0.03515434265136719,0.022370338439941406,0.045806884765625,-0.39256858825683594,-0.6930370330810547,0.36606884002685547,-0.4812164306640625
400,654170304.0,9.180846214294434,-1.8962650299072266,2.2793493270874023,-0.031958580017089844,-0.011717796325683594,-0.04367637634277344,-0.39256858825683594,-0.6930370330810547,0.36606884002685547,-0.4812164306640625
401,654170304.0,9.233519554138184,-1.8711252212524414,2.3116722106933594,-0.031958580017089844,-0.011717796325683594,-0.04367637634277344,-0.39256858825683594,-0.6930370330810547,0.36606884002685547,-0.4812164306640625
402,654170304.0,9.280208587646484,-1.7921142578125,2.318854331970215,-0.031958580017089844,-0.011717796325683594,-0.04367637634277344,-0.39256858825683594,-0.6930370330810547,0.36606884002685547,-0.4812164306640625
403,654170368.0,9.276617050170898,-1.8376054763793945,2.312869071960449,-0.031958580017089844,-0.011717796325683594,-0.04367637634277344,-0.39256858825683594,-0.6930370330810547,0.36606884002685547,-0.4812164306640625
404,654170368.0,9.308939933776855,-1.9836559295654297,2.351177215576172,-0.031958580017089844,-0.011717796325683594,-0.04367637634277344,-0.39256858825683594,-0.6930370330810547,0.36606884002685547,-0.4812164306640625
405,654170368.0,9.323305130004883,-2.091398239135742,2.3846969604492188,-0.031958580017089844,-0.011717796325683594,-0.04367637634277344,-0.39256858825683594,-0.6930370330810547,0.36606884002685547,-0.4812164306640625
406,654170368.0,9.276617050170898,-1.8376054763793945,2.312869071960449,-0.031958580017089844,-0.011717796325683594,-0.04367637634277344,-0.39256858825683594,-0.6930370330810547,0.36606884002685547,-0.4812164306640625
407,654170368.0,9.308939933776855,-1.9836559295654297,2.351177215576172,-0.031958580017089844,-0.011717796325683594,-0.04367637634277344,-0.39256858825683594,-0.6930370330810547,0.36606884002685547,-0.4812164306640625
408,654170368.0,9.323305130004883,-2.091398239135742,2.3846969604492188,-0.031958580017089844,-0.011717796325683594,-0.04367637634277344,-0.39256858825683594,-0.6930370330810547,0.36606884002685547,-0.4812164306640625
409,654170432.0,9.222745895385742,-2.007598876953125,2.4038515090942383,-0.052199363708496094,0.012783050537109375,-0.0010652542114257812,-0.3956766128540039,-0.6932964324951172,0.3675365447998047,-0.4771595001220703
410,654170432.0,9.269433975219727,-1.916616439819336,2.4182167053222656,-0.052199363708496094,0.012783050537109375,-0.0010652542114257812,-0.3956766128540039,-0.6932964324951172,0.3675365447998047,-0.4771595001220703
411,654170432.0,9.222745895385742,-2.007598876953125,2.4038515090942383,-0.052199363708496094,0.012783050537109375,-0.0010652542114257812,-0.3956766128540039,-0.6932964324951172,0.3675365447998047,-0.4771595001220703
412,654170432.0,9.269433975219727,-1.916616439819336,2.4182167053222656,-0.052199363708496094,0.012783050537109375,-0.0010652542114257812,-0.3956766128540039,-0.6932964324951172,0.3675365447998047,-0.4771595001220703
413,654170560.0,9.247885704040527,-1.9585161209106445,2.349980354309082,-0.004261016845703125,0.0,-0.024501800537109375,-0.39584922790527344,-0.6933822631835938,0.3677949905395508,-0.4767274856567383
414,654170560.0,9.342459678649902,-2.018373489379883,2.347585678100586,-0.004261016845703125,0.0,-0.024501800537109375,-0.39584922790527344,-0.6933822631835938,0.3677949905395508,-0.4767274856567383
415,654170560.0,9.33527660369873,-1.9836559295654297,2.3032913208007812,-0.004261016845703125,0.0,-0.024501800537109375,-0.39584922790527344,-0.6933822631835938,0.3677949905395508,-0.4767274856567383
416,654170624.0,9.320911407470703,-1.9992189407348633,2.3308258056640625,-0.004261016845703125,0.0,-0.024501800537109375,-0.39584922790527344,-0.6933822631835938,0.3677949905395508,-0.4767274856567383
417,654170624.0,9.325699806213379,-2.0890045166015625,2.3607540130615234,-0.004261016845703125,0.0,-0.024501800537109375,-0.39584922790527344,-0.6933822631835938,0.3677949905395508,-0.4767274856567383
418,654170624.0,9.40590763092041,-2.1847753524780273,2.349980354309082,-0.004261016845703125,0.0,-0.024501800537109375,-0.39584922790527344,-0.6933822631835938,0.3677949905395508,-0.4767274856567383
419,654170688.0,9.422667503356934,-2.1153411865234375,2.3523740768432617,-0.004261016845703125,0.0,-0.024501800537109375,-0.39584922790527344,-0.6933822631835938,0.3677949905395508,-0.4767274856567383
420,654170688.0,9.447807312011719,-2.0638647079467773,2.390683174133301,-0.004261016845703125,0.0,-0.024501800537109375,-0.39584922790527344,-0.6933822631835938,0.3677949905395508,-0.4767274856567383
421,654170688.0,9.419075965881348,-2.065061569213867,2.351177215576172,-0.004261016845703125,0.0,-0.024501800537109375,-0.39584922790527344,-0.6933822631835938,0.3677949905395508,-0.4767274856567383
422,654170752.0,9.383162498474121,-2.133297920227051,2.3344173431396484,-0.023435592651367188,0.04900360107421875,0.09907245635986328,-0.39584922790527344,-0.6933822631835938,0.3677949905395508,-0.4767274856567383
423,654170752.0,9.353233337402344,-2.0818214416503906,2.3451919555664062,-0.023435592651367188,0.04900360107421875,0.09907245635986328,-0.39584922790527344,-0.6933822631835938,0.3677949905395508,-0.4767274856567383
424,654170752.0,9.293376922607422,-1.9704875946044922,2.3607540130615234,-0.023435592651367188,0.04900360107421875,0.09907245635986328,-0.39584922790527344,-0.6933822631835938,0.3677949905395508,-0.4767274856567383
425,654170752.0,9.275420188903809,-1.909433364868164,2.3619518280029297,-0.023435592651367188,0.04900360107421875,0.09907245635986328,-0.39584922790527344,-0.6933822631835938,0.3677949905395508,-0.4767274856567383
426,654170752.0,9.293376922607422,-1.9704875946044922,2.3607540130615234,-0.023435592651367188,0.04900360107421875,0.09907245635986328,-0.39584922790527344,-0.6933822631835938,0.3677949905395508,-0.4767274856567383
427,654170752.0,9.275420188903809,-1.909433364868164,2.3619518280029297,-0.023435592651367188,0.04900360107421875,0.09907245635986328,-0.39584922790527344,-0.6933822631835938,0.3677949905395508,-0.4767274856567383
428,654170816.0,9.23711109161377,-1.9513330459594727,2.353571891784668,-0.023435592651367188,0.053264617919921875,0.07244014739990234,-0.39584922790527344,-0.6933822631835938,0.3677949905395508,-0.4767274856567383
429,654170816.0,9.232322692871094,-1.890279769897461,2.284137725830078,-0.023435592651367188,0.053264617919921875,0.07244014739990234,-0.39584922790527344,-0.6933822631835938,0.3677949905395508,-0.4767274856567383
430,654170816.0,9.23711109161377,-1.9513330459594727,2.353571891784668,-0.023435592651367188,0.053264617919921875,0.07244014739990234,-0.39584922790527344,-0.6933822631835938,0.3677949905395508,-0.4767274856567383
431,654170816.0,9.232322692871094,-1.890279769897461,2.284137725830078,-0.023435592651367188,0.053264617919921875,0.07244014739990234,-0.39584922790527344,-0.6933822631835938,0.3677949905395508,-0.4767274856567383
432,654170816.0,9.209577560424805,-1.847182273864746,2.316460609436035,-0.023435592651367188,0.053264617919921875,0.07244014739990234,-0.39584922790527344,-0.6933822631835938,0.3677949905395508,-0.4767274856567383
433,654170880.0,9.213168144226074,-1.8028879165649414,2.3056859970092773,-0.013848304748535156,0.0170440673828125,0.0,-0.39584922790527344,-0.6933822631835938,0.3677949905395508,-0.4767274856567383
434,654170880.0,9.207182884216309,-1.8795051574707031,2.2721662521362305,-0.013848304748535156,0.0170440673828125,0.0,-0.39584922790527344,-0.6933822631835938,0.3677949905395508,-0.4767274856567383
435,654170880.0,9.243097305297852,-1.9333763122558594,2.256603240966797,-0.013848304748535156,0.0170440673828125,0.0,-0.39584922790527344,-0.6933822631835938,0.3677949905395508,-0.4767274856567383
436,654170944.0,9.28499698638916,-1.9333763122558594,2.2434349060058594,0.011717796325683594,0.0063915252685546875,-0.02769756317138672,-0.39584922790527344,-0.6933822631835938,0.3677949905395508,-0.4767274856567383
437,654170944.0,9.295770645141602,-1.877110481262207,2.2769546508789062,0.011717796325683594,0.0063915252685546875,-0.02769756317138672,-0.39584922790527344,-0.6933822631835938,0.3677949905395508,-0.4767274856567383
438,654170944.0,9.271828651428223,-1.8651399612426758,2.3236427307128906,0.011717796325683594,0.0063915252685546875,-0.02769756317138672,-0.39584922790527344,-0.6933822631835938,0.3677949905395508,-0.4767274856567383
439,654171008.0,9.28380012512207,-1.9237995147705078,2.306882858276367,0.057525634765625,-0.004261016845703125,-0.04687213897705078,-0.39584922790527344,-0.6933822631835938,0.3677949905395508,-0.4767274856567383
440,654171008.0,9.326896667480469,-1.9884443283081055,2.3703317642211914,0.057525634765625,-0.004261016845703125,-0.04687213897705078,-0.39584922790527344,-0.6933822631835938,0.3677949905395508,-0.4767274856567383
441,654171008.0,9.300559997558594,-1.9477424621582031,2.4038515090942383,0.057525634765625,-0.004261016845703125,-0.04687213897705078,-0.39584922790527344,-0.6933822631835938,0.3677949905395508,-0.4767274856567383
442,654171008.0,9.256265640258789,-1.9585161209106445,2.3918800354003906,0.057525634765625,-0.004261016845703125,-0.04687213897705078,-0.39584922790527344,-0.6933822631835938,0.3677949905395508,-0.4767274856567383
443,654171136.0,10.283409118652344,-2.287729263305664,2.4230051040649414,-0.06604766845703125,-0.04687213897705078,0.1896219253540039,-0.39584922790527344,-0.6933822631835938,0.3677949905395508,-0.4767274856567383
444,654171200.0,10.76585578918457,-3.562680244445801,1.9848527908325195,-0.06604766845703125,-0.04687213897705078,0.1896219253540039,-0.39584922790527344,-0.6933822631835938,0.3677949905395508,-0.4767274856567383
445,654171200.0,11.857645034790039,-4.5826416015625,2.816864013671875,-0.06604766845703125,-0.04687213897705078,0.1896219253540039,-0.39584922790527344,-0.6933822631835938,0.3677949905395508,-0.4767274856567383
446,654171200.0,12.524450302124023,-5.82526969909668,4.405465126037598,-0.06604766845703125,-0.04687213897705078,0.1896219253540039,-0.39584922790527344,-0.6933822631835938,0.3677949905395508,-0.4767274856567383
447,654171200.0,10.538399696350098,-2.780949592590332,2.193155288696289,-0.06604766845703125,-0.04687213897705078,0.1896219253540039,-0.39584922790527344,-0.6933822631835938,0.3677949905395508,-0.4767274856567383
448,654171200.0,11.28541374206543,-4.1025896072387695,2.3739233016967773,-0.06604766845703125,-0.04687213897705078,0.1896219253540039,-0.39584922790527344,-0.6933822631835938,0.3677949905395508,-0.4767274856567383
449,654171200.0,12.158126831054688,-5.166844367980957,3.489654541015625,-0.06604766845703125,-0.04687213897705078,0.1896219253540039,-0.39584922790527344,-0.6933822631835938,0.3677949905395508,-0.4767274856567383
450,654171264.0,14.219596862792969,-9.082680702209473,5.638516426086426,3.611355781555176,1.0716886520385742,3.5975074768066406,-0.39584922790527344,-0.6933822631835938,0.3677949905395508,-0.4767274856567383
451,654171264.0,13.17808723449707,-7.332466125488281,5.231490135192871,3.611355781555176,1.0716886520385742,3.5975074768066406,-0.39584922790527344,-0.6933822631835938,0.3677949905395508,-0.4767274856567383
452,654171328.0,12.425087928771973,-9.085075378417969,10.78860092163086,2.713311195373535,2.8059921264648438,5.267892837524414,-0.39584922790527344,-0.6933822631835938,0.3677949905395508,-0.4767274856567383
453,654171328.0,12.425087928771973,-9.085075378417969,10.78860092163086,2.713311195373535,2.8059921264648438,5.267892837524414,-0.39584922790527344,-0.6933822631835938,0.3677949905395508,-0.4767274856567383
454,654171328.0,12.425087928771973,-9.085075378417969,10.78860092163086,2.713311195373535,2.8059921264648438,5.267892837524414,-0.39584922790527344,-0.6933822631835938,0.3677949905395508,-0.4767274856567383
455,654171392.0,8.745087623596191,-9.070709228515625,13.17808723449707,2.713311195373535,2.8059921264648438,5.267892837524414,-0.39584922790527344,-0.6933822631835938,0.3677949905395508,-0.4767274856567383
456,654171392.0,6.035965919494629,-4.744255065917969,12.790215492248535,2.713311195373535,2.8059921264648438,5.267892837524414,-0.39584922790527344,-0.6933822631835938,0.3677949905395508,-0.4767274856567383
457,654171392.0,2.339205741882324,-3.770981788635254,10.02482795715332,2.713311195373535,2.8059921264648438,5.267892837524414,-0.39584922790527344,-0.6933822631835938,0.3677949905395508,-0.4767274856567383
458,654171392.0,8.745087623596191,-9.070709228515625,13.17808723449707,2.713311195373535,2.8059921264648438,5.267892837524414,-0.39584922790527344,-0.6933822631835938,0.3677949905395508,-0.4767274856567383
459,654171392.0,6.035965919494629,-4.744255065917969,12.790215492248535,2.713311195373535,2.8059921264648438,5.267892837524414,-0.39584922790527344,-0.6933822631835938,0.3677949905395508,-0.4767274856567383
460,654171392.0,2.339205741882324,-3.770981788635254,10.02482795715332,2.713311195373535,2.8059921264648438,5.267892837524414,-0.39584922790527344,-0.6933822631835938,0.3677949905395508,-0.4767274856567383
461,654171392.0,8.745087623596191,-9.070709228515625,13.17808723449707,2.713311195373535,2.8059921264648438,5.267892837524414,-0.39584922790527344,-0.6933822631835938,0.3677949905395508,-0.4767274856567383
462,654171392.0,6.035965919494629,-4.744255065917969,12.790215492248535,2.713311195373535,2.8059921264648438,5.267892837524414,-0.39584922790527344,-0.6933822631835938,0.3677949905395508,-0.4767274856567383
463,654171392.0,2.339205741882324,-3.770981788635254,10.02482795715332,2.713311195373535,2.8059921264648438,5.267892837524414,-0.39584922790527344,-0.6933822631835938,0.3677949905395508,-0.4767274856567383
464,654171456.0,1.824437141418457,-3.590214729309082,8.44460678100586,2.713311195373535,2.8059921264648438,5.267892837524414,-0.39584922790527344,-0.6933822631835938,0.3677949905395508,-0.4767274856567383
465,654171456.0,1.824437141418457,-3.590214729309082,8.44460678100586,2.713311195373535,2.8059921264648438,5.267892837524414,-0.39584922790527344,-0.6933822631835938,0.3677949905395508,-0.4767274856567383
466,654171456.0,1.824437141418457,-3.590214729309082,8.44460678100586,2.713311195373535,2.8059921264648438,5.267892837524414,-0.39584922790527344,-0.6933822631835938,0.3677949905395508,-0.4767274856567383
467,654171648.0,-5.030370712280273,-0.6368770599365234,0.67279052734375,0.6189374923706055,2.0411081314086914,1.189936637878418,-0.2759981155395508,-0.8206567764282227,-0.2520017623901367,0.43231678009033203
468,654171648.0,-5.4050750732421875,-0.7877159118652344,1.0079889297485352,0.6189374923706055,2.0411081314086914,1.189936637878418,-0.2759981155395508,-0.8206567764282227,-0.2520017623901367,0.43231678009033203
469,654171712.0,-5.644501686096191,-0.6069478988647461,4.3180742263793945,0.5741949081420898,1.3848857879638672,0.3856372833251953,-0.2759981155395508,-0.8206567764282227,-0.2520017623901367,0.43231678009033203
470,654171712.0,-5.906675338745117,2.2410402297973633,3.2502269744873047,0.5741949081420898,1.3848857879638672,0.3856372833251953,-0.2759981155395508,-0.8206567764282227,-0.2520017623901367,0.43231678009033203
471,654171712.0,-7.178034782409668,0.8236303329467773,0.525543212890625,0.5741949081420898,1.3848857879638672,0.3856372833251953,-0.2759981155395508,-0.8206567764282227,-0.2520017623901367,0.43231678009033203
472,654171840.0,-7.878360748291016,4.387508392333984,-0.614130973815918,0.5741949081420898,1.3848857879638672,0.3856372833251953,-0.265380859375,-0.7527685165405273,-0.2251148223876953,0.5587711334228516
473,654171904.0,12.080312728881836,-11.431464195251465,25.86056137084961,0.5741949081420898,1.3848857879638672,0.3856372833251953,-0.265380859375,-0.7527685165405273,-0.2251148223876953,0.5587711334228516
474,654171904.0,-12.874014854431152,6.257436752319336,7.362394332885742,0.5741949081420898,1.3848857879638672,0.3856372833251953,-0.265380859375,-0.7527685165405273,-0.2251148223876953,0.5587711334228516
475,654171904.0,-3.026362419128418,-3.616551399230957,-6.590240478515625,0.5741949081420898,1.3848857879638672,0.3856372833251953,-0.265380859375,-0.7527685165405273,-0.2251148223876953,0.5587711334228516
476,654171904.0,-6.725517272949219,-3.7673912048339844,3.7242937088012695,0.5741949081420898,1.3848857879638672,0.3856372833251953,-0.265380859375,-0.7527685165405273,-0.2251148223876953,0.5587711334228516
477,654172032.0,-2.758204460144043,-4.6221466064453125,3.2825498580932617,1.7225847244262695,-1.524439811706543,-2.129528045654297,-0.265380859375,-0.7527685165405273,-0.2251148223876953,0.5587711334228516
478,654172096.0,-2.7677812576293945,-5.172829627990723,3.003617286682129,1.7225847244262695,-1.524439811706543,-2.129528045654297,-0.265380859375,-0.7527685165405273,-0.2251148223876953,0.5587711334228516
479,654172096.0,-2.324840545654297,-4.175614356994629,1.8663368225097656,1.7225847244262695,-1.524439811706543,-2.129528045654297,-0.265380859375,-0.7527685165405273,-0.2251148223876953,0.5587711334228516
480,654172096.0,-1.8340139389038086,-3.369940757751465,1.631697654724121,1.7225847244262695,-1.524439811706543,-2.129528045654297,-0.265380859375,-0.7527685165405273,-0.2251148223876953,0.5587711334228516
481,654172160.0,-1.103759765625,-5.099804878234863,2.5139875411987305,1.7225847244262695,-1.524439811706543,-2.129528045654297,-0.265380859375,-0.7527685165405273,-0.2251148223876953,0.5587711334228516
482,654172160.0,-0.2968893051147461,-7.8496294021606445,2.6516590118408203,1.7225847244262695,-1.524439811706543,-2.129528045654297,-0.265380859375,-0.7527685165405273,-0.2251148223876953,0.5587711334228516
483,654172160.0,0.033519744873046875,-8.467351913452148,2.281743049621582,1.7225847244262695,-1.524439811706543,-2.129528045654297,-0.265380859375,-0.7527685165405273,-0.2251148223876953,0.5587711334228516
484,654172224.0,-0.13527584075927734,-5.900689125061035,2.417019844055176,0.2780418395996094,-3.8116321563720703,-4.137613296508789,-0.265380859375,-0.7527685165405273,-0.2251148223876953,0.5587711334228516
485,654172224.0,-0.17478179931640625,-5.8037214279174805,3.500429153442383,0.2780418395996094,-3.8116321563720703,-4.137613296508789,-0.265380859375,-0.7527685165405273,-0.2251148223876953,0.5587711334228516
486,654172224.0,1.0893945693969727,-8.230319023132324,4.806506156921387,0.2780418395996094,-3.8116321563720703,-4.137613296508789,-0.265380859375,-0.7527685165405273,-0.2251148223876953,0.5587711334228516
487,654172352.0,5.401483535766602,-9.018034934997559,8.508054733276367,0.36007022857666016,-3.52719783782959,-4.10139274597168,-0.4050416946411133,-0.862217903137207,0.18152332305908203,-0.24406147003173828
488,654172352.0,5.256629943847656,-6.460949897766113,7.80413818359375,0.36007022857666016,-3.52719783782959,-4.10139274597168,-0.4050416946411133,-0.862217903137207,0.18152332305908203,-0.24406147003173828
489,654172352.0,5.401483535766602,-9.018034934997559,8.508054733276367,0.36007022857666016,-3.52719783782959,-4.10139274597168,-0.4050416946411133,-0.862217903137207,0.18152332305908203,-0.24406147003173828
490,654172352.0,5.256629943847656,-6.460949897766113,7.80413818359375,0.36007022857666016,-3.52719783782959,-4.10139274597168,-0.4050416946411133,-0.862217903137207,0.18152332305908203,-0.24406147003173828
491,654172416.0,6.646506309509277,-4.156460762023926,6.487286567687988,0.36007022857666016,-3.52719783782959,-4.10139274597168,-0.36188316345214844,-0.7903165817260742,0.26421546936035156,-0.41790294647216797
492,654172416.0,9.377176284790039,-2.525959014892578,4.7430572509765625,0.36007022857666016,-3.52719783782959,-4.10139274597168,-0.36188316345214844,-0.7903165817260742,0.26421546936035156,-0.41790294647216797
493,654172416.0,13.67609691619873,-4.739466667175293,5.640911102294922,0.36007022857666016,-3.52719783782959,-4.10139274597168,-0.36188316345214844,-0.7903165817260742,0.26421546936035156,-0.41790294647216797
494,654172416.0,6.646506309509277,-4.156460762023926,6.487286567687988,0.36007022857666016,-3.52719783782959,-4.10139274597168,-0.36188316345214844,-0.7903165817260742,0.26421546936035156,-0.41790294647216797
495,654172416.0,9.377176284790039,-2.525959014892578,4.7430572509765625,0.36007022857666016,-3.52719783782959,-4.10139274597168,-0.36188316345214844,-0.7903165817260742,0.26421546936035156,-0.41790294647216797
496,654172416.0,13.67609691619873,-4.739466667175293,5.640911102294922,0.36007022857666016,-3.52719783782959,-4.10139274597168,-0.36188316345214844,-0.7903165817260742,0.26421546936035156,-0.41790294647216797
497,654172544.0,11.200416564941406,-4.9944562911987305,5.604996681213379,-1.516982078552246,-0.48790550231933594,-0.2886953353881836,-0.36188316345214844,-0.7903165817260742,0.26421546936035156,-0.41790294647216797
498,654172544.0,9.42625904083252,-4.137306213378906,5.8683671951293945,-1.516982078552246,-0.48790550231933594,-0.2886953353881836,-0.36188316345214844,-0.7903165817260742,0.26421546936035156,-0.41790294647216797
499,654172608.0,9.744697570800781,-2.6408843994140625,5.231490135192871,-0.7968416213989258,-0.2982826232910156,1.3976688385009766,-0.36188316345214844,-0.7903165817260742,0.26421546936035156,-0.41790294647216797
500,654172608.0,10.85564136505127,-1.7131032943725586,4.122941017150879,-0.7968416213989258,-0.2982826232910156,1.3976688385009766,-0.36188316345214844,-0.7903165817260742,0.26421546936035156,-0.41790294647216797
501,654172608.0,10.917892456054688,-1.3563566207885742,3.0383338928222656,-0.7968416213989258,-0.2982826232910156,1.3976688385009766,-0.36188316345214844,-0.7903165817260742,0.26421546936035156,-0.41790294647216797
502,654172672.0,10.210384368896484,-1.452127456665039,2.6121530532836914,-0.7968416213989258,-0.2982826232910156,1.3976688385009766,-0.36188316345214844,-0.7903165817260742,0.26421546936035156,-0.41790294647216797
503,654172672.0,9.61660385131836,-1.2150936126708984,1.9992189407348633,-0.7968416213989258,-0.2982826232910156,1.3976688385009766,-0.36188316345214844,-0.7903165817260742,0.26421546936035156,-0.41790294647216797
504,654172672.0,9.226337432861328,-0.5051918029785156,1.6364860534667969,-0.7968416213989258,-0.2982826232910156,1.3976688385009766,-0.36188316345214844,-0.7903165817260742,0.26421546936035156,-0.41790294647216797
505,654172736.0,8.881561279296875,-0.13048744201660156,1.822042465209961,0.4218568801879883,0.37285327911376953,0.4165306091308594,-0.36188316345214844,-0.7903165817260742,0.26421546936035156,-0.41790294647216797
506,654172736.0,9.040781021118164,0.04908180236816406,2.377513885498047,0.4218568801879883,0.37285327911376953,0.4165306091308594,-0.36188316345214844,-0.7903165817260742,0.26421546936035156,-0.41790294647216797
507,654172736.0,9.584280967712402,0.17957019805908203,2.296109199523926,0.4218568801879883,0.37285327911376953,0.4165306091308594,-0.36188316345214844,-0.7903165817260742,0.26421546936035156,-0.41790294647216797
508,654172736.0,9.584280967712402,0.17957019805908203,2.296109199523926,0.4218568801879883,0.37285327911376953,0.4165306091308594,-0.36188316345214844,-0.7903165817260742,0.26421546936035156,-0.41790294647216797
509,654172800.0,9.651320457458496,-0.2789325714111328,1.9908390045166016,-0.40587806701660156,0.23756027221679688,0.33237171173095703,-0.36188316345214844,-0.7903165817260742,0.26421546936035156,-0.41790294647216797
510,654172800.0,9.446610450744629,-0.8918666839599609,1.7801427841186523,-0.40587806701660156,0.23756027221679688,0.33237171173095703,-0.36188316345214844,-0.7903165817260742,0.26421546936035156,-0.41790294647216797
511,654172800.0,9.470553398132324,-1.168405532836914,2.10097599029541,-0.40587806701660156,0.23756027221679688,0.33237171173095703,-0.36188316345214844,-0.7903165817260742,0.26421546936035156,-0.41790294647216797
512,654172800.0,9.689629554748535,-1.2653741836547852,2.0866098403930664,-0.40587806701660156,0.23756027221679688,0.33237171173095703,-0.36188316345214844,-0.7903165817260742,0.26421546936035156,-0.41790294647216797
513,654172800.0,9.651320457458496,-0.2789325714111328,1.9908390045166016,-0.40587806701660156,0.23756027221679688,0.33237171173095703,-0.36188316345214844,-0.7903165817260742,0.26421546936035156,-0.41790294647216797
514,654172800.0,9.446610450744629,-0.8918666839599609,1.7801427841186523,-0.40587806701660156,0.23756027221679688,0.33237171173095703,-0.36188316345214844,-0.7903165817260742,0.26421546936035156,-0.41790294647216797
515,654172800.0,9.470553398132324,-1.168405532836914,2.10097599029541,-0.40587806701660156,0.23756027221679688,0.33237171173095703,-0.36188316345214844,-0.7903165817260742,0.26421546936035156,-0.41790294647216797
516,654172800.0,9.689629554748535,-1.2653741836547852,2.0866098403930664,-0.40587806701660156,0.23756027221679688,0.33237171173095703,-0.36188316345214844,-0.7903165817260742,0.26421546936035156,-0.41790294647216797
517,654172864.0,9.446610450744629,-1.3755102157592773,1.763382911682129,-0.40587806701660156,0.23756027221679688,0.33237171173095703,-0.36188316345214844,-0.7903165817260742,0.26421546936035156,-0.41790294647216797
518,654172864.0,8.97493839263916,-1.6077547073364258,1.6173324584960938,-0.40587806701660156,0.23756027221679688,0.33237171173095703,-0.36188316345214844,-0.7903165817260742,0.26421546936035156,-0.41790294647216797
519,654172864.0,9.002472877502441,-1.6987371444702148,1.8388023376464844,-0.40587806701660156,0.23756027221679688,0.33237171173095703,-0.36188316345214844,-0.7903165817260742,0.26421546936035156,-0.41790294647216797
520,654172928.0,9.326896667480469,-1.5921926498413086,1.9609107971191406,-0.40587806701660156,0.23756027221679688,0.33237171173095703,-0.36188316345214844,-0.7903165817260742,0.26421546936035156,-0.41790294647216797
521,654172928.0,9.314925193786621,-1.3779048919677734,1.6915550231933594,-0.40587806701660156,0.23756027221679688,0.33237171173095703,-0.36188316345214844,-0.7903165817260742,0.26421546936035156,-0.41790294647216797
522,654172928.0,9.015641212463379,-1.3180475234985352,1.7753543853759766,-0.40587806701660156,0.23756027221679688,0.33237171173095703,-0.36188316345214844,-0.7903165817260742,0.26421546936035156,-0.41790294647216797
523,654172928.0,9.015641212463379,-1.3180475234985352,1.7753543853759766,-0.40587806701660156,0.23756027221679688,0.33237171173095703,-0.36188316345214844,-0.7903165817260742,0.26421546936035156,-0.41790294647216797
524,654172992.0,9.142537117004395,-1.3671302795410156,2.168015480041504,-0.40587806701660156,0.23756027221679688,0.33237171173095703,-0.36188316345214844,-0.7903165817260742,0.26421546936035156,-0.41790294647216797
525,654172992.0,9.302953720092773,-1.4581127166748047,2.066258430480957,-0.40587806701660156,0.23756027221679688,0.33237171173095703,-0.36188316345214844,-0.7903165817260742,0.26421546936035156,-0.41790294647216797
526,654172992.0,9.147326469421387,-1.6903572082519531,1.8352108001708984,-0.40587806701660156,0.23756027221679688,0.33237171173095703,-0.36188316345214844,-0.7903165817260742,0.26421546936035156,-0.41790294647216797
527,654172992.0,9.142537117004395,-1.3671302795410156,2.168015480041504,-0.40587806701660156,0.23756027221679688,0.33237171173095703,-0.36188316345214844,-0.7903165817260742,0.26421546936035156,-0.41790294647216797
528,654172992.0,9.302953720092773,-1.4581127166748047,2.066258430480957,-0.40587806701660156,0.23756027221679688,0.33237171173095703,-0.36188316345214844,-0.7903165817260742,0.26421546936035156,-0.41790294647216797
529,654173056.0,9.04676628112793,-1.8352108001708984,1.9082365036010742,-0.40587806701660156,0.23756027221679688,0.33237171173095703,-0.36188316345214844,-0.7903165817260742,0.26421546936035156,-0.41790294647216797
530,654173056.0,9.04676628112793,-1.8352108001708984,1.9082365036010742,-0.40587806701660156,0.23756027221679688,0.33237171173095703,-0.36188316345214844,-0.7903165817260742,0.26421546936035156,-0.41790294647216797
531,654173184.0,9.508861541748047,-1.9142217636108398,2.3918800354003906,-0.40587806701660156,0.23756027221679688,0.33237171173095703,-0.36188316345214844,-0.7903165817260742,0.26421546936035156,-0.41790294647216797
532,654173184.0,9.358022689819336,-1.8818998336791992,2.099778175354004,-0.40587806701660156,0.23756027221679688,0.33237171173095703,-0.36188316345214844,-0.7903165817260742,0.26421546936035156,-0.41790294647216797
533,654173184.0,9.241899490356445,-1.9010534286499023,2.1177358627319336,-0.40587806701660156,0.23756027221679688,0.33237171173095703,-0.36188316345214844,-0.7903165817260742,0.26421546936035156,-0.41790294647216797
534,654173184.0,9.365204811096191,-2.0530900955200195,2.4277944564819336,-0.40587806701660156,0.23756027221679688,0.33237171173095703,-0.36188316345214844,-0.7903165817260742,0.26421546936035156,-0.41790294647216797
535,654173248.0,9.50646686553955,-1.8316192626953125,2.6001815795898438,-0.1320962905883789,-0.012783050537109375,-0.026632308959960938,-0.3353843688964844,-0.7024030685424805,0.3131999969482422,-0.544097900390625
536,654173248.0,9.437033653259277,-1.7717628479003906,2.2769546508789062,-0.1320962905883789,-0.012783050537109375,-0.026632308959960938,-0.3353843688964844,-0.7024030685424805,0.3131999969482422,-0.544097900390625
537,654173248.0,9.380767822265625,-1.7346515655517578,2.2075204849243164,-0.1320962905883789,-0.012783050537109375,-0.026632308959960938,-0.3353843688964844,-0.7024030685424805,0.3131999969482422,-0.544097900390625
538,654173312.0,9.470553398132324,-1.9178133010864258,2.3559656143188477,-0.18536090850830078,0.019174575805664062,-0.0031957626342773438,-0.3415985107421875,-0.7018852233886719,0.3167390823364258,-0.5388326644897461
539,654173312.0,9.630970001220703,-1.9656991958618164,2.383500099182129,-0.18536090850830078,0.019174575805664062,-0.0031957626342773438,-0.3415985107421875,-0.7018852233886719,0.3167390823364258,-0.5388326644897461
540,654173312.0,9.539987564086914,-1.909433364868164,2.2422380447387695,-0.18536090850830078,0.019174575805664062,-0.0031957626342773438,-0.3415985107421875,-0.7018852233886719,0.3167390823364258,-0.5388326644897461
541,654173440.0,9.26464557647705,-1.8495769500732422,2.2362518310546875,-0.18536090850830078,0.019174575805664062,-0.0031957626342773438,-0.3415985107421875,-0.7018852233886719,0.3167390823364258,-0.5388326644897461
542,654173440.0,9.322108268737793,-1.8938703536987305,2.3296289443969727,-0.18536090850830078,0.019174575805664062,-0.0031957626342773438,-0.3415985107421875,-0.7018852233886719,0.3167390823364258,-0.5388326644897461
543,654173504.0,9.328093528747559,-1.856760025024414,2.1404809951782227,-0.18536090850830078,0.019174575805664062,-0.0031957626342773438,-0.3415985107421875,-0.7018852233886719,0.3167390823364258,-0.5388326644897461
544,654173504.0,9.293376922607422,-1.8950681686401367,2.0614700317382812,-0.18536090850830078,0.019174575805664062,-0.0031957626342773438,-0.3415985107421875,-0.7018852233886719,0.3167390823364258,-0.5388326644897461
545,654173504.0,9.270630836486816,-1.9357709884643555,2.2111120223999023,-0.18536090850830078,0.019174575805664062,-0.0031957626342773438,-0.3415985107421875,-0.7018852233886719,0.3167390823364258,-0.5388326644897461
546,654173568.0,9.349641799926758,-1.9118280410766602,2.324840545654297,-0.18536090850830078,0.019174575805664062,-0.0031957626342773438,-0.3415985107421875,-0.7018852233886719,0.3167390823364258,-0.5388326644897461
547,654173568.0,9.368796348571777,-1.7322568893432617,2.2051267623901367,-0.18536090850830078,0.019174575805664062,-0.0031957626342773438,-0.3415985107421875,-0.7018852233886719,0.3167390823364258,-0.5388326644897461
548,654173568.0,9.219154357910156,-1.7825374603271484,2.096186637878418,-0.18536090850830078,0.019174575805664062,-0.0031957626342773438,-0.3415985107421875,-0.7018852233886719,0.3167390823364258,-0.5388326644897461
549,654173632.0,9.222745895385742,-1.9046449661254883,2.2613916397094727,-0.18642616271972656,0.03621959686279297,-0.06817817687988281,-0.3415985107421875,-0.7018852233886719,0.3167390823364258,-0.5388326644897461
550,654173632.0,9.37597942352295,-2.0782299041748047,2.378711700439453,-0.18642616271972656,0.03621959686279297,-0.06817817687988281,-0.3415985107421875,-0.7018852233886719,0.3167390823364258,-0.5388326644897461
551,654173632.0,9.353233337402344,-1.9920358657836914,2.2111120223999023,-0.18642616271972656,0.03621959686279297,-0.06817817687988281,-0.3415985107421875,-0.7018852233886719,0.3167390823364258,-0.5388326644897461
552,654173632.0,9.353233337402344,-1.9920358657836914,2.2111120223999023,-0.18642616271972656,0.03621959686279297,-0.06817817687988281,-0.3415985107421875,-0.7018852233886719,0.3167390823364258,-0.5388326644897461
553,654173696.0,9.275420188903809,-2.007598876953125,2.1668176651000977,-0.11398601531982422,0.011717796325683594,-0.04474163055419922,-0.3415985107421875,-0.7018852233886719,0.3167390823364258,-0.5388326644897461
554,654173696.0,9.304150581359863,-2.059075355529785,2.165620803833008,-0.11398601531982422,0.011717796325683594,-0.04474163055419922,-0.3415985107421875,-0.7018852233886719,0.3167390823364258,-0.5388326644897461
555,654173696.0,9.337671279907227,-2.150057792663574,2.2578001022338867,-0.11398601531982422,0.011717796325683594,-0.04474163055419922,-0.3415985107421875,-0.7018852233886719,0.3167390823364258,-0.5388326644897461
556,654173696.0,9.275420188903809,-2.007598876953125,2.1668176651000977,-0.11398601531982422,0.011717796325683594,-0.04474163055419922,-0.3415985107421875,-0.7018852233886719,0.3167390823364258,-0.5388326644897461
557,654173696.0,9.304150581359863,-2.059075355529785,2.165620803833008,-0.11398601531982422,0.011717796325683594,-0.04474163055419922,-0.3415985107421875,-0.7018852233886719,0.3167390823364258,-0.5388326644897461
558,654173696.0,9.337671279907227,-2.150057792663574,2.2578001022338867,-0.11398601531982422,0.011717796325683594,-0.04474163055419922,-0.3415985107421875,-0.7018852233886719,0.3167390823364258,-0.5388326644897461
559,654173760.0,9.368796348571777,-2.007598876953125,2.201535224914551,-0.01597881317138672,-0.009587287902832031,0.0,-0.35480499267578125,-0.706761360168457,0.3240327835083008,-0.5192384719848633
560,654173760.0,9.368796348571777,-2.007598876953125,2.201535224914551,-0.01597881317138672,-0.009587287902832031,0.0,-0.35480499267578125,-0.706761360168457,0.3240327835083008,-0.5192384719848633
561,654173952.0,9.282602310180664,-1.9656991958618164,2.29251766204834,-0.045806884765625,0.010652542114257812,0.01810932159423828,-0.35527992248535156,-0.7075815200805664,0.32312583923339844,-0.5183324813842773
562,654173952.0,9.300559997558594,-2.0758352279663086,2.339205741882324,-0.045806884765625,0.010652542114257812,0.01810932159423828,-0.35527992248535156,-0.7075815200805664,0.32312583923339844,-0.5183324813842773
563,654173952.0,9.282602310180664,-1.9656991958618164,2.29251766204834,-0.045806884765625,0.010652542114257812,0.01810932159423828,-0.35527992248535156,-0.7075815200805664,0.32312583923339844,-0.5183324813842773
