,timestamp,accel_x,accel_y,accel_z,gyro_x,gyro_y,gyro_z,ori_scalar,ori_x,ori_y,ori_z
0,49690056.0,8.420663833618164,2.5487051010131836,3.8954849243164062,-1.9558849334716797,-0.29189109802246094,0.27378082275390625,-0.28156566619873047,-0.5932989120483398,0.7493581771850586,0.08458995819091797
1,49690064.0,8.317709922790527,2.439764976501465,3.901470184326172,-1.9558849334716797,-0.29189109802246094,0.27378082275390625,-0.28156566619873047,-0.5932989120483398,0.7493581771850586,0.08458995819091797
2,49690072.0,8.275810241699219,2.317657470703125,3.958932876586914,-1.9558849334716797,-0.29189109802246094,0.27378082275390625,-0.28156566619873047,-0.5932989120483398,0.7493581771850586,0.08458995819091797
3,49690084.0,8.25426197052002,2.328432083129883,4.047520637512207,-2.8432769775390625,-0.38989830017089844,0.184295654296875,-0.28156566619873047,-0.5932989120483398,0.7493581771850586,0.08458995819091797
4,49690096.0,8.273415565490723,2.3559656143188477,3.9421730041503906,-2.8432769775390625,-0.38989830017089844,0.184295654296875,-0.28156566619873047,-0.5932989120483398,0.7493581771850586,0.08458995819091797
5,49690104.0,8.384749412536621,1.9848527908325195,3.6392974853515625,-3.4760637283325195,-0.4378366470336914,0.11185550689697266,-0.28156566619873047,-0.5932989120483398,0.7493581771850586,0.08458995819091797
6,49690112.0,8.509251594543457,1.4401559829711914,3.458529472351074,-3.4760637283325195,-0.4378366470336914,0.11185550689697266,-0.28156566619873047,-0.5932989120483398,0.7493581771850586,0.08458995819091797
7,49690224.0,9.83687686920166,-1.0642547607421875,3.116147994995117,-3.4760637283325195,-0.4378366470336914,0.11185550689697266,-0.33011913299560547,-0.5717191696166992,0.7403812408447266,0.12658309936523438
8,49690240.0,10.067924499511719,-1.0247488021850586,3.0730514526367188,-3.4760637283325195,-0.4378366470336914,0.11185550689697266,-0.33011913299560547,-0.5717191696166992,0.7403812408447266,0.12658309936523438
9,49690264.0,10.319323539733887,-0.4441375732421875,2.8659467697143555,-3.4760637283325195,-0.4378366470336914,0.11185550689697266,-0.33011913299560547,-0.5717191696166992,0.7403812408447266,0.12658309936523438
10,49690280.0,10.273832321166992,-0.0023937225341796875,2.8551721572875977,-3.4760637283325195,-0.4378366470336914,0.11185550689697266,-0.33011913299560547,-0.5717191696166992,0.7403812408447266,0.12658309936523438
11,49690304.0,10.037996292114258,0.0790109634399414,2.934183120727539,-3.4760637283325195,-0.4378366470336914,0.11185550689697266,-0.33011913299560547,-0.5717191696166992,0.7403812408447266,0.12658309936523438
12,49690320.0,9.802160263061523,0.28252410888671875,3.2059335708618164,-3.4760637283325195,-0.4378366470336914,0.11185550689697266,-0.33011913299560547,-0.5717191696166992,0.7403812408447266,0.12658309936523438
13,49690340.0,9.780611991882324,0.215484619140625,3.130514144897461,-3.4760637283325195,-0.4378366470336914,0.11185550689697266,-0.33011913299560547,-0.5717191696166992,0.7403812408447266,0.12658309936523438
14,49692256.0,9.369993209838867,-0.515965461730957,2.689967155456543,-0.03941535949707031,0.052199363708496094,0.19921016693115234,-0.5264463424682617,-0.3732767105102539,0.7213916778564453,-0.25118255615234375
15,49692356.0,9.459778785705566,-0.8451786041259766,2.936577796936035,-0.03941535949707031,0.052199363708496094,0.19921016693115234,-0.5264463424682617,-0.3732767105102539,0.7213916778564453,-0.25118255615234375
16,49692376.0,9.340065002441406,-0.7649698257446289,3.1257247924804688,-0.03941535949707031,0.052199363708496094,0.19921016693115234,-0.5264463424682617,-0.3732767105102539,0.7213916778564453,-0.25118255615234375
17,49692396.0,9.364007949829102,-0.48244571685791016,3.1149511337280273,-0.03941535949707031,0.052199363708496094,0.19921016693115234,-0.5264463424682617,-0.3732767105102539,0.7213916778564453,-0.25118255615234375
18,49692416.0,9.367599487304688,-0.47167205810546875,3.0048141479492188,-0.03941535949707031,0.052199363708496094,0.19921016693115234,-0.5264463424682617,-0.3732767105102539,0.7213916778564453,-0.25118255615234375
19,49692432.0,9.423864364624023,-0.610539436340332,3.0096025466918945,-0.03941535949707031,0.052199363708496094,0.19921016693115234,-0.5264463424682617,-0.3732767105102539,0.7213916778564453,-0.25118255615234375
20,49692456.0,9.85483455657959,-1.3048791885375977,2.563070297241211,-0.03941535949707031,0.052199363708496094,0.19921016693115234,-0.5264463424682617,-0.3732767105102539,0.7213916778564453,-0.25118255615234375
21,49692456.0,9.85483455657959,-1.3048791885375977,2.563070297241211,-0.03941535949707031,0.052199363708496094,0.19921016693115234,-0.5264463424682617,-0.3732767105102539,0.7213916778564453,-0.25118255615234375
22,49692476.0,10.11581039428711,-1.4377613067626953,1.2773447036743164,-0.03941535949707031,0.052199363708496094,0.19921016693115234,-0.5264463424682617,-0.3732767105102539,0.7213916778564453,-0.25118255615234375
23,49692476.0,10.11581039428711,-1.4377613067626953,1.2773447036743164,-0.03941535949707031,0.052199363708496094,0.19921016693115234,-0.5264463424682617,-0.3732767105102539,0.7213916778564453,-0.25118255615234375
24,49692496.0,9.943422317504883,-2.1799869537353516,2.814469337463379,-0.03941535949707031,0.052199363708496094,0.19921016693115234,-0.5264463424682617,-0.3732767105102539,0.7213916778564453,-0.25118255615234375
25,49692496.0,9.943422317504883,-2.1799869537353516,2.814469337463379,-0.03941535949707031,0.052199363708496094,0.19921016693115234,-0.5264463424682617,-0.3732767105102539,0.7213916778564453,-0.25118255615234375
26,49692516.0,9.891945838928223,-3.3543787002563477,2.406245231628418,-0.03941535949707031,0.052199363708496094,0.19921016693115234,-0.5264463424682617,-0.3732767105102539,0.7213916778564453,-0.25118255615234375
27,49692536.0,8.946207046508789,-0.3016777038574219,2.357163429260254,-0.03941535949707031,0.052199363708496094,0.19921016693115234,-0.5264463424682617,-0.3732767105102539,0.7213916778564453,-0.25118255615234375
28,49692652.0,10.702407836914062,0.9229927062988281,6.395107269287109,-0.03941535949707031,0.052199363708496094,0.19921016693115234,-0.5264463424682617,-0.3732767105102539,0.7213916778564453,-0.25118255615234375
29,49692672.0,10.898737907409668,0.894261360168457,5.238672256469727,-0.03941535949707031,0.052199363708496094,0.19921016693115234,-0.5264463424682617,-0.3732767105102539,0.7213916778564453,-0.25118255615234375
30,49692692.0,10.23791790008545,2.3020944595336914,4.373142242431641,-0.03941535949707031,0.052199363708496094,0.19921016693115234,-0.5264463424682617,-0.3732767105102539,0.7213916778564453,-0.25118255615234375
31,49692712.0,9.532804489135742,2.53194522857666,3.869147300720215,-0.03941535949707031,0.052199363708496094,0.19921016693115234,-0.5264463424682617,-0.3732767105102539,0.7213916778564453,-0.25118255615234375
32,49692732.0,9.282602310180664,1.789719581604004,4.1025896072387695,-0.03941535949707031,0.052199363708496094,0.19921016693115234,-0.5264463424682617,-0.3732767105102539,0.7213916778564453,-0.25118255615234375
33,49692852.0,7.055927276611328,1.1743907928466797,4.494052886962891,0.43996715545654297,1.0770149230957031,0.5507583618164062,-0.5264463424682617,-0.3732767105102539,0.7213916778564453,-0.25118255615234375
34,49692872.0,6.861990928649902,0.9194011688232422,4.376733779907227,0.45168495178222656,0.9406566619873047,0.43570613861083984,-0.5264463424682617,-0.3732767105102539,0.7213916778564453,-0.25118255615234375
35,49692892.0,7.002056121826172,1.1384773254394531,4.495250701904297,0.45168495178222656,0.9406566619873047,0.43570613861083984,-0.5264463424682617,-0.3732767105102539,0.7213916778564453,-0.25118255615234375
36,49692912.0,7.049941062927246,1.1612224578857422,5.06508731842041,0.45168495178222656,0.9406566619873047,0.43570613861083984,-0.5264463424682617,-0.3732767105102539,0.7213916778564453,-0.25118255615234375
37,49692932.0,7.363591194152832,0.6428623199462891,5.58344841003418,0.45168495178222656,0.9406566619873047,0.43570613861083984,-0.5264463424682617,-0.3732767105102539,0.7213916778564453,-0.25118255615234375
38,49693052.0,7.695198059082031,0.8332071304321289,7.269017219543457,0.45168495178222656,0.9406566619873047,0.43570613861083984,-0.11527633666992188,-0.8247995376586914,0.40581798553466797,-0.37647056579589844
39,49693072.0,7.333662986755371,0.7948989868164062,6.480104446411133,0.45168495178222656,0.9406566619873047,0.43570613861083984,-0.11527633666992188,-0.8247995376586914,0.40581798553466797,-0.37647056579589844
40,49693092.0,7.561119079589844,0.147247314453125,7.413870811462402,0.45168495178222656,0.9406566619873047,0.43570613861083984,-0.11527633666992188,-0.8247995376586914,0.40581798553466797,-0.37647056579589844
41,49693112.0,7.757449150085449,0.6332855224609375,7.954977035522461,0.45168495178222656,0.9406566619873047,0.43570613861083984,-0.11527633666992188,-0.8247995376586914,0.40581798553466797,-0.37647056579589844
42,49693132.0,7.018815994262695,1.0786199569702148,7.555133819580078,0.45168495178222656,0.9406566619873047,0.43570613861083984,-0.11527633666992188,-0.8247995376586914,0.40581798553466797,-0.37647056579589844
43,49693152.0,6.465738296508789,1.0391149520874023,7.103812217712402,0.45168495178222656,0.9406566619873047,0.43570613861083984,-0.11527633666992188,-0.8247995376586914,0.40581798553466797,-0.37647056579589844
44,49693172.0,6.337644577026367,0.5722312927246094,6.621366500854492,0.45168495178222656,0.9406566619873047,0.43570613861083984,-0.11527633666992188,-0.8247995376586914,0.40581798553466797,-0.37647056579589844
45,49693192.0,5.887520790100098,1.264176368713379,6.389122009277344,0.45168495178222656,0.9406566619873047,0.43570613861083984,-0.11527633666992188,-0.8247995376586914,0.40581798553466797,-0.37647056579589844
46,49693212.0,5.485282897949219,1.2390365600585938,6.654886245727539,0.45168495178222656,0.9406566619873047,0.43570613861083984,-0.11527633666992188,-0.8247995376586914,0.40581798553466797,-0.37647056579589844
47,49693232.0,5.531970977783203,1.0917892456054688,6.749460220336914,0.45168495178222656,0.9406566619873047,0.43570613861083984,-0.11527633666992188,-0.8247995376586914,0.40581798553466797,-0.37647056579589844
48,49693252.0,5.056707382202148,1.9202079772949219,6.380742073059082,0.45168495178222656,0.9406566619873047,0.43570613861083984,-0.11527633666992188,-0.8247995376586914,0.40581798553466797,-0.37647056579589844
49,49693272.0,4.94297981262207,1.7729597091674805,6.188002586364746,0.45168495178222656,0.9406566619873047,0.43570613861083984,-0.11527633666992188,-0.8247995376586914,0.40581798553466797,-0.37647056579589844
50,49693292.0,5.276981353759766,1.4317760467529297,6.089837074279785,0.45168495178222656,0.9406566619873047,0.43570613861083984,-0.11527633666992188,-0.8247995376586914,0.40581798553466797,-0.37647056579589844
51,49693312.0,5.045933723449707,2.0315418243408203,5.912660598754883,0.45168495178222656,0.9406566619873047,0.43570613861083984,-0.11527633666992188,-0.8247995376586914,0.40581798553466797,-0.37647056579589844
52,49693332.0,4.826857566833496,3.243044853210449,5.810904502868652,0.45168495178222656,0.9406566619873047,0.43570613861083984,-0.11527633666992188,-0.8247995376586914,0.40581798553466797,-0.37647056579589844
53,49693552.0,7.614990234375,-2.201535224914551,3.276564598083496,-3.260873794555664,-0.5976314544677734,-0.7872543334960938,-0.38574981689453125,-0.7106456756591797,0.538874626159668,-0.23624897003173828
54,49693572.0,8.211164474487305,-2.249420166015625,3.70513916015625,-3.260873794555664,-0.5976314544677734,-0.7872543334960938,-0.38574981689453125,-0.7106456756591797,0.538874626159668,-0.23624897003173828
55,49693592.0,9.504073143005371,-3.4166297912597656,4.058295249938965,-3.260873794555664,-0.5976314544677734,-0.7872543334960938,-0.38574981689453125,-0.7106456756591797,0.538874626159668,-0.23624897003173828
56,49693612.0,10.103838920593262,-2.906648635864258,4.794534683227539,-3.260873794555664,-0.5976314544677734,-0.7872543334960938,-0.38574981689453125,-0.7106456756591797,0.538874626159668,-0.23624897003173828
57,49693632.0,10.397137641906738,-1.9405593872070312,5.001639366149902,-3.260873794555664,-0.5976314544677734,-0.7872543334960938,-0.38574981689453125,-0.7106456756591797,0.538874626159668,-0.23624897003173828
58,49693648.0,11.038803100585938,-1.7083148956298828,4.908262252807617,-3.260873794555664,-0.5976314544677734,-0.7872543334960938,-0.38574981689453125,-0.7106456756591797,0.538874626159668,-0.23624897003173828
59,49693768.0,11.640963554382324,-3.3268442153930664,3.363955497741699,-1.9537544250488281,-0.5422353744506836,-1.7098007202148438,-0.38574981689453125,-0.7106456756591797,0.538874626159668,-0.23624897003173828
60,49693792.0,10.522836685180664,-3.0383338928222656,3.2023420333862305,-1.5361576080322266,-0.29189109802246094,-1.3294897079467773,-0.38574981689453125,-0.7106456756591797,0.538874626159668,-0.23624897003173828
61,49693808.0,9.894339561462402,-2.973689079284668,3.474092483520508,-1.395538330078125,-0.18216514587402344,-0.9023056030273438,-0.38574981689453125,-0.7106456756591797,0.538874626159668,-0.23624897003173828
62,49693832.0,9.958985328674316,-2.8862972259521484,3.7207021713256836,-1.2336130142211914,-0.19281864166259766,-0.5177335739135742,-0.38574981689453125,-0.7106456756591797,0.538874626159668,-0.23624897003173828
63,49693848.0,10.19721508026123,-2.4661026000976562,3.6524658203125,-0.9278736114501953,-0.1896219253540039,-0.15872859954833984,-0.38574981689453125,-0.7106456756591797,0.538874626159668,-0.23624897003173828
64,49693968.0,9.504073143005371,-0.9756660461425781,3.021574020385742,-0.9278736114501953,-0.1896219253540039,-0.15872859954833984,-0.5480251312255859,-0.3644294738769531,0.7186727523803711,-0.22433757781982422
65,49693968.0,9.504073143005371,-0.9756660461425781,3.021574020385742,-0.9278736114501953,-0.1896219253540039,-0.15872859954833984,-0.5480251312255859,-0.3644294738769531,0.7186727523803711,-0.22433757781982422
66,49693988.0,9.126975059509277,-0.7948989868164062,3.142484664916992,-0.9278736114501953,-0.1896219253540039,-0.15872859954833984,-0.5480251312255859,-0.3644294738769531,0.7186727523803711,-0.22433757781982422
67,49693988.0,9.126975059509277,-0.7948989868164062,3.142484664916992,-0.9278736114501953,-0.1896219253540039,-0.15872859954833984,-0.5480251312255859,-0.3644294738769531,0.7186727523803711,-0.22433757781982422
68,49694008.0,9.371191024780273,-1.508392333984375,3.8212623596191406,-0.9278736114501953,-0.1896219253540039,-0.15872859954833984,-0.5480251312255859,-0.3644294738769531,0.7186727523803711,-0.22433757781982422
69,49694008.0,9.371191024780273,-1.508392333984375,3.8212623596191406,-0.9278736114501953,-0.1896219253540039,-0.15872859954833984,-0.5480251312255859,-0.3644294738769531,0.7186727523803711,-0.22433757781982422
70,49694028.0,9.586675643920898,-1.6927518844604492,3.8080930709838867,-0.9278736114501953,-0.1896219253540039,-0.15872859954833984,-0.5480251312255859,-0.3644294738769531,0.7186727523803711,-0.22433757781982422
71,49694028.0,9.586675643920898,-1.6927518844604492,3.8080930709838867,-0.9278736114501953,-0.1896219253540039,-0.15872859954833984,-0.5480251312255859,-0.3644294738769531,0.7186727523803711,-0.22433757781982422
72,49694048.0,9.311333656311035,-1.2150936126708984,3.7530250549316406,-0.9278736114501953,-0.1896219253540039,-0.15872859954833984,-0.5480251312255859,-0.3644294738769531,0.7186727523803711,-0.22433757781982422
73,49694048.0,9.311333656311035,-1.2150936126708984,3.7530250549316406,-0.9278736114501953,-0.1896219253540039,-0.15872859954833984,-0.5480251312255859,-0.3644294738769531,0.7186727523803711,-0.22433757781982422
74,49694068.0,8.861209869384766,-0.9265842437744141,3.768588066101074,-0.021305084228515625,0.30893516540527344,0.38031005859375,-0.5480251312255859,-0.3644294738769531,0.7186727523803711,-0.22433757781982422
75,49694088.0,8.75586223602295,-0.9289779663085938,3.890695571899414,-0.3057394027709961,0.24395275115966797,0.31319713592529297,-0.5480251312255859,-0.3644294738769531,0.7186727523803711,-0.22433757781982422
76,49694108.0,8.821704864501953,-1.0391149520874023,3.6369028091430664,-0.4367713928222656,0.19175338745117188,0.24927902221679688,-0.5480251312255859,-0.3644294738769531,0.7186727523803711,-0.22433757781982422
77,49694128.0,8.75466537475586,-1.0989713668823242,3.310084342956543,-0.48257923126220703,0.13955307006835938,0.20347118377685547,-0.5480251312255859,-0.3644294738769531,0.7186727523803711,-0.22433757781982422
78,49694148.0,8.78459358215332,-1.0522832870483398,3.189173698425293,-0.49323177337646484,0.0809621810913086,0.11611652374267578,-0.5480251312255859,-0.3644294738769531,0.7186727523803711,-0.22433757781982422
79,49694168.0,8.998881340026855,-1.1791801452636719,3.246636390686035,-0.49323177337646484,0.0809621810913086,0.11611652374267578,-0.5480251312255859,-0.3644294738769531,0.7186727523803711,-0.22433757781982422
80,49694188.0,9.165283203125,-0.9313726425170898,3.062276840209961,-0.49323177337646484,0.0809621810913086,0.11611652374267578,-0.5480251312255859,-0.3644294738769531,0.7186727523803711,-0.22433757781982422
81,49694208.0,9.033597946166992,-0.7470130920410156,2.6372928619384766,-0.49323177337646484,0.0809621810913086,0.11611652374267578,-0.5480251312255859,-0.3644294738769531,0.7186727523803711,-0.22433757781982422
82,49694228.0,9.112608909606934,-1.012777328491211,2.4469480514526367,-0.49323177337646484,0.0809621810913086,0.11611652374267578,-0.5480251312255859,-0.3644294738769531,0.7186727523803711,-0.22433757781982422
83,49694248.0,9.202394485473633,-1.0295372009277344,2.6839818954467773,-0.49323177337646484,0.0809621810913086,0.11611652374267578,-0.5480251312255859,-0.3644294738769531,0.7186727523803711,-0.22433757781982422
84,49694268.0,9.21556282043457,-0.8068704605102539,2.9437599182128906,-0.49323177337646484,0.0809621810913086,0.11611652374267578,-0.5480251312255859,-0.3644294738769531,0.7186727523803711,-0.22433757781982422
85,49694268.0,9.21556282043457,-0.8068704605102539,2.9437599182128906,-0.49323177337646484,0.0809621810913086,0.11611652374267578,-0.5480251312255859,-0.3644294738769531,0.7186727523803711,-0.22433757781982422
86,49694288.0,9.28619384765625,-0.9373579025268555,2.9030580520629883,-0.49323177337646484,0.0809621810913086,0.11611652374267578,-0.5480251312255859,-0.3644294738769531,0.7186727523803711,-0.22433757781982422
87,49694288.0,9.28619384765625,-0.9373579025268555,2.9030580520629883,-0.49323177337646484,0.0809621810913086,0.11611652374267578,-0.5480251312255859,-0.3644294738769531,0.7186727523803711,-0.22433757781982422
88,49694308.0,9.229928970336914,-1.077423095703125,2.751021385192871,-0.49323177337646484,0.0809621810913086,0.11611652374267578,-0.5480251312255859,-0.3644294738769531,0.7186727523803711,-0.22433757781982422
89,49694308.0,9.229928970336914,-1.077423095703125,2.751021385192871,-0.49323177337646484,0.0809621810913086,0.11611652374267578,-0.5480251312255859,-0.3644294738769531,0.7186727523803711,-0.22433757781982422
90,49694328.0,9.107820510864258,-1.2450227737426758,2.7869348526000977,-0.49323177337646484,0.0809621810913086,0.11611652374267578,-0.5480251312255859,-0.3644294738769531,0.7186727523803711,-0.22433757781982422
91,49694328.0,9.107820510864258,-1.2450227737426758,2.7869348526000977,-0.49323177337646484,0.0809621810913086,0.11611652374267578,-0.5480251312255859,-0.3644294738769531,0.7186727523803711,-0.22433757781982422
92,49694348.0,9.1868314743042,-1.387481689453125,3.0323486328125,-0.49323177337646484,0.0809621810913086,0.11611652374267578,-0.5480251312255859,-0.3644294738769531,0.7186727523803711,-0.22433757781982422
93,49694348.0,9.1868314743042,-1.387481689453125,3.0323486328125,-0.49323177337646484,0.0809621810913086,0.11611652374267578,-0.5480251312255859,-0.3644294738769531,0.7186727523803711,-0.22433757781982422
94,49694368.0,9.378373146057129,-1.3862848281860352,3.0431222915649414,-0.49323177337646484,0.0809621810913086,0.11611652374267578,-0.5480251312255859,-0.3644294738769531,0.7186727523803711,-0.22433757781982422
95,49694368.0,9.378373146057129,-1.3862848281860352,3.0431222915649414,-0.49323177337646484,0.0809621810913086,0.11611652374267578,-0.5480251312255859,-0.3644294738769531,0.7186727523803711,-0.22433757781982422
96,49694388.0,9.369993209838867,-1.442549705505371,2.973689079284668,-0.49323177337646484,0.0809621810913086,0.11611652374267578,-0.5480251312255859,-0.3644294738769531,0.7186727523803711,-0.22433757781982422
97,49694388.0,9.369993209838867,-1.442549705505371,2.973689079284668,-0.49323177337646484,0.0809621810913086,0.11611652374267578,-0.5480251312255859,-0.3644294738769531,0.7186727523803711,-0.22433757781982422
98,49694408.0,9.162888526916504,-1.351567268371582,3.0167856216430664,-0.49323177337646484,0.0809621810913086,0.11611652374267578,-0.5480251312255859,-0.3644294738769531,0.7186727523803711,-0.22433757781982422
99,49694408.0,9.162888526916504,-1.351567268371582,3.0167856216430664,-0.49323177337646484,0.0809621810913086,0.11611652374267578,-0.5480251312255859,-0.3644294738769531,0.7186727523803711,-0.22433757781982422
100,49694428.0,9.210774421691895,-1.3802986145019531,3.156850814819336,-0.49323177337646484,0.0809621810913086,0.11611652374267578,-0.5480251312255859,-0.3644294738769531,0.7186727523803711,-0.22433757781982422
101,49694428.0,9.210774421691895,-1.3802986145019531,3.156850814819336,-0.49323177337646484,0.0809621810913086,0.11611652374267578,-0.5480251312255859,-0.3644294738769531,0.7186727523803711,-0.22433757781982422
102,49694448.0,9.401119232177734,-1.2869224548339844,3.2538185119628906,-0.49323177337646484,0.0809621810913086,0.11611652374267578,-0.5480251312255859,-0.3644294738769531,0.7186727523803711,-0.22433757781982422
103,49694448.0,9.401119232177734,-1.2869224548339844,3.2538185119628906,-0.49323177337646484,0.0809621810913086,0.11611652374267578,-0.5480251312255859,-0.3644294738769531,0.7186727523803711,-0.22433757781982422
104,49694668.0,9.359219551086426,-1.2522048950195312,3.1915674209594727,-0.023435592651367188,-0.05965614318847656,-0.05006885528564453,-0.5557937622070312,-0.3652067184448242,0.712285041809082,-0.22433757781982422
105,49694668.0,9.359219551086426,-1.2522048950195312,3.1915674209594727,-0.023435592651367188,-0.05965614318847656,-0.05006885528564453,-0.5557937622070312,-0.3652067184448242,0.712285041809082,-0.22433757781982422
106,49694688.0,9.337671279907227,-1.1899538040161133,3.183187484741211,-0.023435592651367188,-0.05965614318847656,-0.05006885528564453,-0.5557937622070312,-0.3652067184448242,0.712285041809082,-0.22433757781982422
107,49694688.0,9.337671279907227,-1.1899538040161133,3.183187484741211,-0.023435592651367188,-0.05965614318847656,-0.05006885528564453,-0.5557937622070312,-0.3652067184448242,0.712285041809082,-0.22433757781982422
108,49694708.0,9.443018913269043,-1.1911516189575195,3.0682621002197266,-0.023435592651367188,-0.05965614318847656,-0.05006885528564453,-0.5557937622070312,-0.3652067184448242,0.712285041809082,-0.22433757781982422
109,49694708.0,9.443018913269043,-1.1911516189575195,3.0682621002197266,-0.023435592651367188,-0.05965614318847656,-0.05006885528564453,-0.5557937622070312,-0.3652067184448242,0.712285041809082,-0.22433757781982422
110,49694728.0,9.512453079223633,-1.143265724182129,3.1772022247314453,-0.023435592651367188,-0.05965614318847656,-0.05006885528564453,-0.5557937622070312,-0.3652067184448242,0.712285041809082,-0.22433757781982422
111,49694728.0,9.512453079223633,-1.143265724182129,3.1772022247314453,-0.023435592651367188,-0.05965614318847656,-0.05006885528564453,-0.5557937622070312,-0.3652067184448242,0.712285041809082,-0.22433757781982422
112,49694748.0,9.433442115783691,-1.0391149520874023,3.2071304321289062,-0.023435592651367188,-0.05965614318847656,-0.05006885528564453,-0.5557937622070312,-0.3652067184448242,0.712285041809082,-0.22433757781982422
113,49694748.0,9.433442115783691,-1.0391149520874023,3.2071304321289062,-0.023435592651367188,-0.05965614318847656,-0.05006885528564453,-0.5557937622070312,-0.3652067184448242,0.712285041809082,-0.22433757781982422
114,49694768.0,9.365204811096191,-1.1085491180419922,3.065868377685547,-0.023435592651367188,-0.05965614318847656,-0.05006885528564453,-0.5557937622070312,-0.3652067184448242,0.712285041809082,-0.22433757781982422
115,49694768.0,9.365204811096191,-1.1085491180419922,3.065868377685547,-0.023435592651367188,-0.05965614318847656,-0.05006885528564453,-0.5557937622070312,-0.3652067184448242,0.712285041809082,-0.22433757781982422
116,49694788.0,9.317319869995117,-1.0618600845336914,3.155653953552246,-0.023435592651367188,-0.05965614318847656,-0.05006885528564453,-0.5557937622070312,-0.3652067184448242,0.712285041809082,-0.22433757781982422
117,49694788.0,9.317319869995117,-1.0618600845336914,3.155653953552246,-0.023435592651367188,-0.05965614318847656,-0.05006885528564453,-0.5557937622070312,-0.3652067184448242,0.712285041809082,-0.22433757781982422
118,49694808.0,9.342459678649902,-1.0905914306640625,3.184385299682617,-0.023435592651367188,-0.05965614318847656,-0.05006885528564453,-0.5557937622070312,-0.3652067184448242,0.712285041809082,-0.22433757781982422
119,49694808.0,9.342459678649902,-1.0905914306640625,3.184385299682617,-0.023435592651367188,-0.05965614318847656,-0.05006885528564453,-0.5557937622070312,-0.3652067184448242,0.712285041809082,-0.22433757781982422
120,49694828.0,9.308939933776855,-1.0965776443481445,3.128119468688965,-0.023435592651367188,-0.05965614318847656,-0.05006885528564453,-0.5557937622070312,-0.3652067184448242,0.712285041809082,-0.22433757781982422
121,49694828.0,9.308939933776855,-1.0965776443481445,3.128119468688965,-0.023435592651367188,-0.05965614318847656,-0.05006885528564453,-0.5557937622070312,-0.3652067184448242,0.712285041809082,-0.22433757781982422
122,49694848.0,9.079089164733887,-1.1492509841918945,2.967702865600586,-0.023435592651367188,-0.05965614318847656,-0.05006885528564453,-0.5557937622070312,-0.3652067184448242,0.712285041809082,-0.22433757781982422
123,49694848.0,9.079089164733887,-1.1492509841918945,2.967702865600586,-0.023435592651367188,-0.05965614318847656,-0.05006885528564453,-0.5557937622070312,-0.3652067184448242,0.712285041809082,-0.22433757781982422
124,49694864.0,9.022823333740234,-1.1995315551757812,2.9940404891967773,-0.11611652374267578,0.031958580017089844,0.034089088439941406,-0.5557937622070312,-0.3652067184448242,0.712285041809082,-0.22433757781982422
125,49694888.0,9.061132431030273,-1.145660400390625,3.0323486328125,-0.09587669372558594,0.007456779479980469,0.031958580017089844,-0.5557937622070312,-0.3652067184448242,0.712285041809082,-0.22433757781982422
126,49694904.0,9.02402114868164,-1.1731939315795898,2.9461545944213867,-0.0745706558227539,0.0021305084228515625,0.031958580017089844,-0.5557937622070312,-0.3652067184448242,0.712285041809082,-0.22433757781982422
127,49694928.0,9.168874740600586,-1.1875600814819336,2.9258031845092773,-0.07563591003417969,-0.021305084228515625,0.034089088439941406,-0.5557937622070312,-0.3652067184448242,0.712285041809082,-0.22433757781982422
128,49694944.0,9.483721733093262,-1.2869224548339844,2.9150285720825195,-0.07670116424560547,-0.04687213897705078,0.024501800537109375,-0.5557937622070312,-0.3652067184448242,0.712285041809082,-0.22433757781982422
129,49694968.0,9.791385650634766,-1.2677679061889648,2.849186897277832,-0.07670116424560547,-0.04687213897705078,0.024501800537109375,-0.5557937622070312,-0.3652067184448242,0.712285041809082,-0.22433757781982422
130,49694984.0,9.61540699005127,-1.0714378356933594,2.717501640319824,-0.07670116424560547,-0.04687213897705078,0.024501800537109375,-0.5557937622070312,-0.3652067184448242,0.712285041809082,-0.22433757781982422
131,49695008.0,9.21556282043457,-1.2103052139282227,2.7617950439453125,-0.07670116424560547,-0.04687213897705078,0.024501800537109375,-0.5557937622070312,-0.3652067184448242,0.712285041809082,-0.22433757781982422
132,49695024.0,8.870787620544434,-1.2198820114135742,2.749823570251465,-0.07670116424560547,-0.04687213897705078,0.024501800537109375,-0.5557937622070312,-0.3652067184448242,0.712285041809082,-0.22433757781982422
133,49695048.0,8.813324928283691,-1.145660400390625,2.782146453857422,-0.07670116424560547,-0.04687213897705078,0.024501800537109375,-0.5557937622070312,-0.3652067184448242,0.712285041809082,-0.22433757781982422
134,49695064.0,8.781002044677734,-1.1312942504882812,2.807286262512207,-0.01810932159423828,-0.08309268951416016,0.030893325805664062,-0.5557937622070312,-0.3652067184448242,0.712285041809082,-0.22433757781982422
135,49695084.0,8.8336763381958,-1.1384773254394531,2.91263484954834,0.02769756317138672,-0.07883167266845703,-0.0031957626342773438,-0.5557937622070312,-0.3652067184448242,0.712285041809082,-0.22433757781982422
136,49695104.0,9.027612686157227,-1.037917137145996,2.745035171508789,0.021305084228515625,-0.08522319793701172,-0.033023834228515625,-0.5557937622070312,-0.3652067184448242,0.712285041809082,-0.22433757781982422
137,49695124.0,9.267040252685547,-1.0702400207519531,2.687572479248047,-0.026632308959960938,-0.08522319793701172,-0.05646038055419922,-0.5557937622070312,-0.3652067184448242,0.712285041809082,-0.22433757781982422
138,49695144.0,9.340065002441406,-1.1001691818237305,2.840806007385254,-0.06817817687988281,-0.0628519058227539,-0.06817817687988281,-0.5557937622070312,-0.3652067184448242,0.712285041809082,-0.22433757781982422
139,49695164.0,9.397527694702148,-1.0989713668823242,2.8228492736816406,-0.06817817687988281,-0.0628519058227539,-0.06817817687988281,-0.5557937622070312,-0.3652067184448242,0.712285041809082,-0.22433757781982422
140,49695164.0,9.397527694702148,-1.0989713668823242,2.8228492736816406,-0.06817817687988281,-0.0628519058227539,-0.06817817687988281,-0.5557937622070312,-0.3652067184448242,0.712285041809082,-0.22433757781982422
141,49695184.0,9.68603801727295,-1.142068862915039,2.4888477325439453,-0.06817817687988281,-0.0628519058227539,-0.06817817687988281,-0.5557937622070312,-0.3652067184448242,0.712285041809082,-0.22433757781982422
142,49695184.0,9.68603801727295,-1.142068862915039,2.4888477325439453,-0.06817817687988281,-0.0628519058227539,-0.06817817687988281,-0.5557937622070312,-0.3652067184448242,0.712285041809082,-0.22433757781982422
143,49695204.0,10.015250205993652,-1.1348857879638672,2.4649057388305664,-0.06817817687988281,-0.0628519058227539,-0.06817817687988281,-0.5557937622070312,-0.3652067184448242,0.712285041809082,-0.22433757781982422
144,49695204.0,10.015250205993652,-1.1348857879638672,2.4649057388305664,-0.06817817687988281,-0.0628519058227539,-0.06817817687988281,-0.5557937622070312,-0.3652067184448242,0.712285041809082,-0.22433757781982422
145,49695224.0,10.033207893371582,-1.1265058517456055,2.590604782104492,-0.06817817687988281,-0.0628519058227539,-0.06817817687988281,-0.5557937622070312,-0.3652067184448242,0.712285041809082,-0.22433757781982422
146,49695224.0,10.033207893371582,-1.1265058517456055,2.590604782104492,-0.06817817687988281,-0.0628519058227539,-0.06817817687988281,-0.5557937622070312,-0.3652067184448242,0.712285041809082,-0.22433757781982422
147,49695244.0,9.638152122497559,-1.0977745056152344,2.5870132446289062,-0.06817817687988281,-0.0628519058227539,-0.06817817687988281,-0.5557937622070312,-0.3652067184448242,0.712285041809082,-0.22433757781982422
148,49695244.0,9.638152122497559,-1.0977745056152344,2.5870132446289062,-0.06817817687988281,-0.0628519058227539,-0.06817817687988281,-0.5557937622070312,-0.3652067184448242,0.712285041809082,-0.22433757781982422
149,49695364.0,9.222745895385742,-1.1504487991333008,2.595393180847168,0.19707965850830078,-0.10439872741699219,0.040480613708496094,-0.5557937622070312,-0.3652067184448242,0.712285041809082,-0.22433757781982422
150,49695364.0,9.222745895385742,-1.1504487991333008,2.595393180847168,0.19707965850830078,-0.10439872741699219,0.040480613708496094,-0.5557937622070312,-0.3652067184448242,0.712285041809082,-0.22433757781982422
151,49695384.0,9.744697570800781,-1.1336889266967773,2.632504463195801,0.19707965850830078,-0.10439872741699219,0.040480613708496094,-0.5557937622070312,-0.3652067184448242,0.712285041809082,-0.22433757781982422
152,49695384.0,9.744697570800781,-1.1336889266967773,2.632504463195801,0.19707965850830078,-0.10439872741699219,0.040480613708496094,-0.5557937622070312,-0.3652067184448242,0.712285041809082,-0.22433757781982422
153,49695404.0,10.018841743469238,-1.3240337371826172,2.758204460144043,0.19707965850830078,-0.10439872741699219,0.040480613708496094,-0.5557937622070312,-0.3652067184448242,0.712285041809082,-0.22433757781982422
154,49695404.0,10.018841743469238,-1.3240337371826172,2.758204460144043,0.19707965850830078,-0.10439872741699219,0.040480613708496094,-0.5557937622070312,-0.3652067184448242,0.712285041809082,-0.22433757781982422
155,49695424.0,9.83687686920166,-1.4365644454956055,2.715106964111328,0.19707965850830078,-0.10439872741699219,0.040480613708496094,-0.5557937622070312,-0.3652067184448242,0.712285041809082,-0.22433757781982422
156,49695424.0,9.83687686920166,-1.4365644454956055,2.715106964111328,0.19707965850830078,-0.10439872741699219,0.040480613708496094,-0.5557937622070312,-0.3652067184448242,0.712285041809082,-0.22433757781982422
157,49695444.0,9.54716968536377,-1.413818359375,2.7390499114990234,0.19707965850830078,-0.10439872741699219,0.040480613708496094,-0.5557937622070312,-0.3652067184448242,0.712285041809082,-0.22433757781982422
158,49695444.0,9.54716968536377,-1.413818359375,2.7390499114990234,0.19707965850830078,-0.10439872741699219,0.040480613708496094,-0.5557937622070312,-0.3652067184448242,0.712285041809082,-0.22433757781982422
159,49695464.0,9.399922370910645,-1.5155754089355469,2.7749643325805664,0.2652587890625,-0.1491413116455078,0.057525634765625,-0.5557937622070312,-0.3652067184448242,0.712285041809082,-0.22433757781982422
160,49695484.0,9.311333656311035,-1.423396110534668,2.820455551147461,0.33769893646240234,-0.1672515869140625,0.05965614318847656,-0.5557937622070312,-0.3652067184448242,0.712285041809082,-0.22433757781982422
161,49695504.0,9.16648006439209,-1.3156538009643555,2.9293947219848633,0.37072277069091797,-0.15872859954833984,0.053264617919921875,-0.5557937622070312,-0.3652067184448242,0.712285041809082,-0.22433757781982422
162,49695524.0,9.228731155395508,-1.3336105346679688,3.028757095336914,0.34195995330810547,-0.1384878158569336,0.061786651611328125,-0.5557937622070312,-0.3652067184448242,0.712285041809082,-0.22433757781982422
163,49695544.0,9.614209175109863,-1.2534027099609375,2.930591583251953,0.2780418395996094,-0.12037849426269531,0.10013771057128906,-0.5557937622070312,-0.3652067184448242,0.712285041809082,-0.22433757781982422
164,49695564.0,9.707586288452148,-1.2246713638305664,2.8024978637695312,0.1672515869140625,-0.07030868530273438,0.15446758270263672,-0.5557937622070312,-0.3652067184448242,0.712285041809082,-0.22433757781982422
165,49695584.0,9.820116996765137,-1.3527650833129883,2.7378530502319336,0.04474163055419922,0.004261016845703125,0.196014404296875,-0.5557937622070312,-0.3652067184448242,0.712285041809082,-0.22433757781982422
166,49695604.0,10.38755989074707,-1.4401559829711914,2.779752731323242,-0.013848304748535156,0.007456779479980469,0.22584247589111328,-0.5557937622070312,-0.3652067184448242,0.712285041809082,-0.22433757781982422
167,49695624.0,10.502485275268555,-1.2318534851074219,2.5570850372314453,0.0010652542114257812,0.057525634765625,0.23862648010253906,-0.5557937622070312,-0.3652067184448242,0.712285041809082,-0.22433757781982422
168,49695640.0,9.97574520111084,-1.0307350158691406,2.4122314453125,-0.026632308959960938,0.14701080322265625,0.2428874969482422,-0.5557937622070312,-0.3652067184448242,0.712285041809082,-0.22433757781982422
169,49695664.0,9.317319869995117,-1.1181259155273438,2.354768753051758,-0.026632308959960938,0.14701080322265625,0.2428874969482422,-0.5557937622070312,-0.3652067184448242,0.712285041809082,-0.22433757781982422
170,49695684.0,9.14493179321289,-1.2234735488891602,2.285334587097168,-0.026632308959960938,0.14701080322265625,0.2428874969482422,-0.5557937622070312,-0.3652067184448242,0.712285041809082,-0.22433757781982422
171,49695704.0,9.107820510864258,-1.2150936126708984,2.41103458404541,-0.026632308959960938,0.14701080322265625,0.2428874969482422,-0.5557937622070312,-0.3652067184448242,0.712285041809082,-0.22433757781982422
172,49695724.0,8.865999221801758,-1.296499252319336,2.3032913208007812,-0.026632308959960938,0.14701080322265625,0.2428874969482422,-0.5557937622070312,-0.3652067184448242,0.712285041809082,-0.22433757781982422
173,49695744.0,8.549954414367676,-1.4676895141601562,2.2434349060058594,-0.026632308959960938,0.14701080322265625,0.2428874969482422,-0.5557937622070312,-0.3652067184448242,0.712285041809082,-0.22433757781982422
174,49695764.0,8.697202682495117,-1.4700841903686523,2.4625110626220703,-0.06711292266845703,0.11398601531982422,-0.07244014739990234,-0.5557937622070312,-0.3652067184448242,0.712285041809082,-0.22433757781982422
175,49695784.0,8.989303588867188,-1.4473390579223633,2.4852561950683594,-0.020239830017089844,0.08202743530273438,-0.07670116424560547,-0.5557937622070312,-0.3652067184448242,0.712285041809082,-0.22433757781982422
176,49695804.0,9.33647346496582,-1.4114246368408203,2.372725486755371,0.01597881317138672,0.0916147232055664,-0.04793834686279297,-0.5557937622070312,-0.3652067184448242,0.712285041809082,-0.22433757781982422
177,49695824.0,9.757865905761719,-1.4281845092773438,2.369133949279785,0.03728485107421875,0.07563591003417969,-0.02982807159423828,-0.5557937622070312,-0.3652067184448242,0.712285041809082,-0.22433757781982422
178,49695844.0,9.851243019104004,-1.351567268371582,2.4888477325439453,0.034089088439941406,0.10120296478271484,-0.033023834228515625,-0.5557937622070312,-0.3652067184448242,0.712285041809082,-0.22433757781982422
179,49695864.0,9.944619178771973,-1.2162914276123047,2.4876508712768555,0.034089088439941406,0.10120296478271484,-0.033023834228515625,-0.5557937622070312,-0.3652067184448242,0.712285041809082,-0.22433757781982422
180,49695884.0,9.968562126159668,-1.3563566207885742,2.4242029190063477,0.034089088439941406,0.10120296478271484,-0.033023834228515625,-0.5557937622070312,-0.3652067184448242,0.712285041809082,-0.22433757781982422
181,49695904.0,9.895536422729492,-1.5718412399291992,2.594196319580078,0.034089088439941406,0.10120296478271484,-0.033023834228515625,-0.5557937622070312,-0.3652067184448242,0.712285041809082,-0.22433757781982422
182,49695924.0,10.0056734085083,-1.3814964294433594,2.839609146118164,0.034089088439941406,0.10120296478271484,-0.033023834228515625,-0.5557937622070312,-0.3652067184448242,0.712285041809082,-0.22433757781982422
183,49695944.0,9.713571548461914,-1.2534027099609375,2.718698501586914,0.034089088439941406,0.10120296478271484,-0.033023834228515625,-0.5557937622070312,-0.3652067184448242,0.712285041809082,-0.22433757781982422
184,49696064.0,8.933038711547852,-1.4880409240722656,2.840806007385254,-0.03941535949707031,0.06391716003417969,0.03515434265136719,-0.5693454742431641,-0.36960887908935547,0.7077102661132812,-0.1959390640258789
185,49696064.0,8.933038711547852,-1.4880409240722656,2.840806007385254,-0.03941535949707031,0.06391716003417969,0.03515434265136719,-0.5693454742431641,-0.36960887908935547,0.7077102661132812,-0.1959390640258789
186,49696080.0,8.949798583984375,-1.3719186782836914,2.8862972259521484,-0.03941535949707031,0.06391716003417969,0.03515434265136719,-0.5693454742431641,-0.36960887908935547,0.7077102661132812,-0.1959390640258789
187,49696080.0,8.949798583984375,-1.3719186782836914,2.8862972259521484,-0.03941535949707031,0.06391716003417969,0.03515434265136719,-0.5693454742431641,-0.36960887908935547,0.7077102661132812,-0.1959390640258789
188,49696104.0,9.118595123291016,-1.3072738647460938,2.906648635864258,-0.03941535949707031,0.06391716003417969,0.03515434265136719,-0.5693454742431641,-0.36960887908935547,0.7077102661132812,-0.1959390640258789
189,49696104.0,9.118595123291016,-1.3072738647460938,2.906648635864258,-0.03941535949707031,0.06391716003417969,0.03515434265136719,-0.5693454742431641,-0.36960887908935547,0.7077102661132812,-0.1959390640258789
190,49696120.0,9.367599487304688,-1.2031221389770508,3.0239686965942383,-0.03941535949707031,0.06391716003417969,0.03515434265136719,-0.5693454742431641,-0.36960887908935547,0.7077102661132812,-0.1959390640258789
191,49696120.0,9.367599487304688,-1.2031221389770508,3.0239686965942383,-0.03941535949707031,0.06391716003417969,0.03515434265136719,-0.5693454742431641,-0.36960887908935547,0.7077102661132812,-0.1959390640258789
192,49696144.0,9.261054039001465,-1.256993293762207,2.942563056945801,-0.03941535949707031,0.06391716003417969,0.03515434265136719,-0.5693454742431641,-0.36960887908935547,0.7077102661132812,-0.1959390640258789
193,49696144.0,9.261054039001465,-1.256993293762207,2.942563056945801,-0.03941535949707031,0.06391716003417969,0.03515434265136719,-0.5693454742431641,-0.36960887908935547,0.7077102661132812,-0.1959390640258789
194,49696264.0,9.118595123291016,-1.452127456665039,2.7893295288085938,-0.04793834686279297,-0.0287628173828125,-0.196014404296875,-0.5641670227050781,-0.3650341033935547,0.712285041809082,-0.20284461975097656
195,49696280.0,9.23471736907959,-1.3826932907104492,2.725881576538086,-0.04793834686279297,-0.0287628173828125,-0.196014404296875,-0.5641670227050781,-0.3650341033935547,0.712285041809082,-0.20284461975097656
196,49696300.0,9.161691665649414,-1.3348073959350586,2.7605981826782227,-0.04793834686279297,-0.0287628173828125,-0.196014404296875,-0.5641670227050781,-0.3650341033935547,0.712285041809082,-0.20284461975097656
197,49696320.0,9.035992622375488,-1.2845277786254883,2.7665843963623047,-0.04793834686279297,-0.0287628173828125,-0.196014404296875,-0.5641670227050781,-0.3650341033935547,0.712285041809082,-0.20284461975097656
198,49696340.0,9.211971282958984,-1.4030447006225586,2.79172420501709,-0.04793834686279297,-0.0287628173828125,-0.196014404296875,-0.5641670227050781,-0.3650341033935547,0.712285041809082,-0.20284461975097656
199,49696360.0,9.410696029663086,-1.4030447006225586,2.8036956787109375,0.021305084228515625,-0.08415794372558594,-0.21732044219970703,-0.5641670227050781,-0.3650341033935547,0.712285041809082,-0.20284461975097656
200,49696380.0,9.472947120666504,-1.3467788696289062,2.7378530502319336,0.011717796325683594,-0.0809621810913086,-0.19281864166259766,-0.5641670227050781,-0.3650341033935547,0.712285041809082,-0.20284461975097656
201,49696400.0,9.396330833435059,-1.3982563018798828,2.745035171508789,0.0021305084228515625,-0.05539512634277344,-0.1672515869140625,-0.5641670227050781,-0.3650341033935547,0.712285041809082,-0.20284461975097656
202,49696420.0,9.458581924438477,-1.446141242980957,2.784541130065918,0.011717796325683594,-0.060721397399902344,-0.12570476531982422,-0.5641670227050781,-0.3650341033935547,0.712285041809082,-0.20284461975097656
203,49696440.0,9.569915771484375,-1.2737541198730469,2.8815088272094727,0.05965614318847656,-0.061786651611328125,-0.07670116424560547,-0.5641670227050781,-0.3650341033935547,0.712285041809082,-0.20284461975097656
204,49696560.0,9.428653717041016,-0.9864406585693359,2.818060874938965,0.07989692687988281,-0.022370338439941406,0.09374523162841797,-0.5644683837890625,-0.35782623291015625,0.7120695114135742,-0.21523094177246094
205,49696580.0,9.314925193786621,-0.9601039886474609,2.845595359802246,0.07989692687988281,-0.022370338439941406,0.09374523162841797,-0.5644683837890625,-0.35782623291015625,0.7120695114135742,-0.21523094177246094
206,49696600.0,9.359219551086426,-1.011580467224121,2.7941179275512695,0.07989692687988281,-0.022370338439941406,0.09374523162841797,-0.5644683837890625,-0.35782623291015625,0.7120695114135742,-0.21523094177246094
207,49696620.0,9.49449634552002,-0.9122180938720703,2.7893295288085938,0.07989692687988281,-0.022370338439941406,0.09374523162841797,-0.5644683837890625,-0.35782623291015625,0.7120695114135742,-0.21523094177246094
208,49696640.0,9.411893844604492,-0.9636955261230469,2.7426414489746094,0.07989692687988281,-0.022370338439941406,0.09374523162841797,-0.5644683837890625,-0.35782623291015625,0.7120695114135742,-0.21523094177246094
209,49696660.0,9.35443115234375,-1.0558748245239258,2.716303825378418,0.04474163055419922,0.004261016845703125,0.06391716003417969,-0.5644683837890625,-0.35782623291015625,0.7120695114135742,-0.21523094177246094
210,49696680.0,9.40471076965332,-1.0343265533447266,2.6995439529418945,0.07670116424560547,-0.007456779479980469,0.057525634765625,-0.5644683837890625,-0.35782623291015625,0.7120695114135742,-0.21523094177246094
211,49696700.0,9.481327056884766,-0.9457378387451172,2.753415107727051,0.11931324005126953,-0.011717796325683594,0.05539512634277344,-0.5644683837890625,-0.35782623291015625,0.7120695114135742,-0.21523094177246094
212,49696720.0,9.396330833435059,-0.9110212326049805,2.725881576538086,0.12357425689697266,-0.004261016845703125,0.04900360107421875,-0.5644683837890625,-0.35782623291015625,0.7120695114135742,-0.21523094177246094
213,49696740.0,9.26464557647705,-0.9529209136962891,2.716303825378418,0.08735370635986328,0.004261016845703125,0.045806884765625,-0.5644683837890625,-0.35782623291015625,0.7120695114135742,-0.21523094177246094
214,49696760.0,9.302953720092773,-1.011580467224121,2.700741767883301,0.08735370635986328,0.004261016845703125,0.045806884765625,-0.5644683837890625,-0.35782623291015625,0.7120695114135742,-0.21523094177246094
215,49696780.0,9.451398849487305,-1.054677963256836,2.693558692932129,0.08735370635986328,0.004261016845703125,0.045806884765625,-0.5644683837890625,-0.35782623291015625,0.7120695114135742,-0.21523094177246094
216,49696800.0,9.443018913269043,-1.0247488021850586,2.679192543029785,0.08735370635986328,0.004261016845703125,0.045806884765625,-0.5644683837890625,-0.35782623291015625,0.7120695114135742,-0.21523094177246094
217,49696820.0,9.304150581359863,-0.9648923873901367,2.6983470916748047,0.08735370635986328,0.004261016845703125,0.045806884765625,-0.5644683837890625,-0.35782623291015625,0.7120695114135742,-0.21523094177246094
218,49696840.0,9.328093528747559,-0.988835334777832,2.6995439529418945,0.08735370635986328,0.004261016845703125,0.045806884765625,-0.5644683837890625,-0.35782623291015625,0.7120695114135742,-0.21523094177246094
219,49696860.0,9.487313270568848,-0.9648923873901367,2.692361831665039,0.12037849426269531,-0.025567054748535156,-0.0063915252685546875,-0.5644683837890625,-0.35782623291015625,0.7120695114135742,-0.21523094177246094
220,49696880.0,9.493298530578613,-0.9253864288330078,2.6959524154663086,0.1033334732055664,-0.021305084228515625,-0.022370338439941406,-0.5644683837890625,-0.35782623291015625,0.7120695114135742,-0.21523094177246094
221,49696900.0,9.446610450744629,-0.9684839248657227,2.711515426635742,0.0628519058227539,-0.009587287902832031,-0.021305084228515625,-0.5644683837890625,-0.35782623291015625,0.7120695114135742,-0.21523094177246094
222,49696920.0,9.483721733093262,-1.0163688659667969,2.7318668365478516,0.02769756317138672,-0.011717796325683594,-0.022370338439941406,-0.5644683837890625,-0.35782623291015625,0.7120695114135742,-0.21523094177246094
223,49696940.0,9.61540699005127,-1.0259466171264648,2.752218246459961,0.005326271057128906,-0.011717796325683594,-0.00852203369140625,-0.5644683837890625,-0.35782623291015625,0.7120695114135742,-0.21523094177246094
224,49696960.0,9.518438339233398,-1.0043973922729492,2.780949592590332,0.0021305084228515625,0.004261016845703125,0.013848304748535156,-0.5644683837890625,-0.35782623291015625,0.7120695114135742,-0.21523094177246094
225,49696976.0,9.352036476135254,-0.9672861099243164,2.7677812576293945,-0.00852203369140625,0.024501800537109375,0.053264617919921875,-0.5644683837890625,-0.35782623291015625,0.7120695114135742,-0.21523094177246094
226,49697000.0,9.4071044921875,-1.0163688659667969,2.7402467727661133,-0.010652542114257812,0.020239830017089844,0.07350540161132812,-0.5644683837890625,-0.35782623291015625,0.7120695114135742,-0.21523094177246094
227,49697016.0,9.484918594360352,-0.9253864288330078,2.7366552352905273,-0.012783050537109375,0.022370338439941406,0.08841896057128906,-0.5644683837890625,-0.35782623291015625,0.7120695114135742,-0.21523094177246094
228,49697040.0,9.469355583190918,-0.9050350189208984,2.782146453857422,-0.004261016845703125,0.033023834228515625,0.07883167266845703,-0.5644683837890625,-0.35782623291015625,0.7120695114135742,-0.21523094177246094
229,49697060.0,9.37597942352295,-0.8894729614257812,2.7905263900756836,-0.004261016845703125,0.033023834228515625,0.07883167266845703,-0.5644683837890625,-0.35782623291015625,0.7120695114135742,-0.21523094177246094
230,49697080.0,9.296968460083008,-0.9984121322631836,2.729473114013672,-0.004261016845703125,0.033023834228515625,0.07883167266845703,-0.5644683837890625,-0.35782623291015625,0.7120695114135742,-0.21523094177246094
231,49697096.0,9.2550687789917,-1.0367202758789062,2.688770294189453,-0.004261016845703125,0.033023834228515625,0.07883167266845703,-0.5644683837890625,-0.35782623291015625,0.7120695114135742,-0.21523094177246094
232,49697120.0,9.204788208007812,-1.022355079650879,2.7246837615966797,-0.004261016845703125,0.033023834228515625,0.07883167266845703,-0.5644683837890625,-0.35782623291015625,0.7120695114135742,-0.21523094177246094
233,49697136.0,9.296968460083008,-1.0271434783935547,2.7103185653686523,-0.004261016845703125,0.033023834228515625,0.07883167266845703,-0.5644683837890625,-0.35782623291015625,0.7120695114135742,-0.21523094177246094
234,49697160.0,9.304150581359863,-0.9960174560546875,2.632504463195801,0.0063915252685546875,0.012783050537109375,-0.0063915252685546875,-0.5644683837890625,-0.35782623291015625,0.7120695114135742,-0.21523094177246094
235,49697160.0,9.304150581359863,-0.9960174560546875,2.632504463195801,0.0063915252685546875,0.012783050537109375,-0.0063915252685546875,-0.5644683837890625,-0.35782623291015625,0.7120695114135742,-0.21523094177246094
236,49697176.0,9.209577560424805,-1.0893945693969727,2.6372928619384766,-0.00852203369140625,0.01810932159423828,-0.025567054748535156,-0.5644683837890625,-0.35782623291015625,0.7120695114135742,-0.21523094177246094
237,49697176.0,9.209577560424805,-1.0893945693969727,2.6372928619384766,-0.00852203369140625,0.01810932159423828,-0.025567054748535156,-0.5644683837890625,-0.35782623291015625,0.7120695114135742,-0.21523094177246094
238,49697196.0,9.383162498474121,-1.2162914276123047,2.6444759368896484,-0.014913558959960938,-0.004261016845703125,-0.03728485107421875,-0.5644683837890625,-0.35782623291015625,0.7120695114135742,-0.21523094177246094
239,49697196.0,9.383162498474121,-1.2162914276123047,2.6444759368896484,-0.014913558959960938,-0.004261016845703125,-0.03728485107421875,-0.5644683837890625,-0.35782623291015625,0.7120695114135742,-0.21523094177246094
240,49697216.0,9.488510131835938,-1.1779823303222656,2.682784080505371,0.01810932159423828,-0.024501800537109375,-0.030893325805664062,-0.5644683837890625,-0.35782623291015625,0.7120695114135742,-0.21523094177246094
241,49697216.0,9.488510131835938,-1.1779823303222656,2.682784080505371,0.01810932159423828,-0.024501800537109375,-0.030893325805664062,-0.5644683837890625,-0.35782623291015625,0.7120695114135742,-0.21523094177246094
242,49697236.0,9.465764999389648,-1.139674186706543,2.634899139404297,0.03621959686279297,-0.023435592651367188,-0.022370338439941406,-0.5644683837890625,-0.35782623291015625,0.7120695114135742,-0.21523094177246094
243,49697236.0,9.465764999389648,-1.139674186706543,2.634899139404297,0.03621959686279297,-0.023435592651367188,-0.022370338439941406,-0.5644683837890625,-0.35782623291015625,0.7120695114135742,-0.21523094177246094
244,49697360.0,9.471750259399414,-1.1887569427490234,2.717501640319824,0.045806884765625,-0.042611122131347656,-0.0031957626342773438,-0.5644683837890625,-0.35782623291015625,0.7120695114135742,-0.21523094177246094
245,49697376.0,9.469355583190918,-1.2091083526611328,2.7139101028442383,0.05646038055419922,-0.04793834686279297,-0.004261016845703125,-0.5644683837890625,-0.35782623291015625,0.7120695114135742,-0.21523094177246094
246,49697400.0,9.429850578308105,-1.1911516189575195,2.7330636978149414,0.08948421478271484,-0.033023834228515625,-0.0031957626342773438,-0.5644683837890625,-0.35782623291015625,0.7120695114135742,-0.21523094177246094
247,49697416.0,9.560338020324707,-1.1564340591430664,2.770174980163574,0.10652923583984375,-0.05539512634277344,0.005326271057128906,-0.5644683837890625,-0.35782623291015625,0.7120695114135742,-0.21523094177246094
248,49697436.0,9.47414493560791,-1.145660400390625,2.788132667541504,0.11824703216552734,-0.052199363708496094,0.0063915252685546875,-0.5644683837890625,-0.35782623291015625,0.7120695114135742,-0.21523094177246094
249,49697456.0,9.417879104614258,-1.0858030319213867,2.782146453857422,0.11824703216552734,-0.04474163055419922,0.0,-0.5644683837890625,-0.35782623291015625,0.7120695114135742,-0.21523094177246094
250,49697456.0,9.417879104614258,-1.0858030319213867,2.782146453857422,0.11824703216552734,-0.04474163055419922,0.0,-0.5644683837890625,-0.35782623291015625,0.7120695114135742,-0.21523094177246094
251,49697476.0,9.379570960998535,-1.0929861068725586,2.814469337463379,0.11718177795410156,-0.042611122131347656,-0.005326271057128906,-0.5644683837890625,-0.35782623291015625,0.7120695114135742,-0.21523094177246094
252,49697476.0,9.379570960998535,-1.0929861068725586,2.814469337463379,0.11718177795410156,-0.042611122131347656,-0.005326271057128906,-0.5644683837890625,-0.35782623291015625,0.7120695114135742,-0.21523094177246094
253,49697496.0,9.364007949829102,-1.0355234146118164,2.880311965942383,0.10226821899414062,-0.030893325805664062,-0.0031957626342773438,-0.5644683837890625,-0.35782623291015625,0.7120695114135742,-0.21523094177246094
254,49697496.0,9.364007949829102,-1.0355234146118164,2.880311965942383,0.10226821899414062,-0.030893325805664062,-0.0031957626342773438,-0.5644683837890625,-0.35782623291015625,0.7120695114135742,-0.21523094177246094
255,49697516.0,9.387950897216797,-0.950526237487793,2.880311965942383,0.07776641845703125,-0.02769756317138672,0.00852203369140625,-0.5644683837890625,-0.35782623291015625,0.7120695114135742,-0.21523094177246094
256,49697516.0,9.387950897216797,-0.950526237487793,2.880311965942383,0.07776641845703125,-0.02769756317138672,0.00852203369140625,-0.5644683837890625,-0.35782623291015625,0.7120695114135742,-0.21523094177246094
257,49697536.0,9.313728332519531,-1.0103836059570312,2.7941179275512695,0.014913558959960938,-0.005326271057128906,0.033023834228515625,-0.5644683837890625,-0.35782623291015625,0.7120695114135742,-0.21523094177246094
258,49697536.0,9.313728332519531,-1.0103836059570312,2.7941179275512695,0.014913558959960938,-0.005326271057128906,0.033023834228515625,-0.5644683837890625,-0.35782623291015625,0.7120695114135742,-0.21523094177246094
259,49697656.0,9.500481605529785,-1.0690431594848633,2.627716064453125,0.034089088439941406,0.03728485107421875,0.12890052795410156,-0.5644683837890625,-0.35782623291015625,0.7120695114135742,-0.21523094177246094
260,49697656.0,9.500481605529785,-1.0690431594848633,2.627716064453125,0.034089088439941406,0.03728485107421875,0.12890052795410156,-0.5644683837890625,-0.35782623291015625,0.7120695114135742,-0.21523094177246094
261,49697656.0,9.500481605529785,-1.0690431594848633,2.627716064453125,0.034089088439941406,0.03728485107421875,0.12890052795410156,-0.5644683837890625,-0.35782623291015625,0.7120695114135742,-0.21523094177246094
262,49697676.0,9.550761222839355,-1.0259466171264648,2.5870132446289062,0.05539512634277344,0.033023834228515625,0.11718177795410156,-0.5644683837890625,-0.35782623291015625,0.7120695114135742,-0.21523094177246094
263,49697676.0,9.550761222839355,-1.0259466171264648,2.5870132446289062,0.05539512634277344,0.033023834228515625,0.11718177795410156,-0.5644683837890625,-0.35782623291015625,0.7120695114135742,-0.21523094177246094
264,49697676.0,9.550761222839355,-1.0259466171264648,2.5870132446289062,0.05539512634277344,0.033023834228515625,0.11718177795410156,-0.5644683837890625,-0.35782623291015625,0.7120695114135742,-0.21523094177246094
265,49697696.0,9.452595710754395,-1.0977745056152344,2.528353691101074,0.042611122131347656,0.040480613708496094,0.10652923583984375,-0.5644683837890625,-0.35782623291015625,0.7120695114135742,-0.21523094177246094
266,49697696.0,9.452595710754395,-1.0977745056152344,2.528353691101074,0.042611122131347656,0.040480613708496094,0.10652923583984375,-0.5644683837890625,-0.35782623291015625,0.7120695114135742,-0.21523094177246094
267,49697696.0,9.452595710754395,-1.0977745056152344,2.528353691101074,0.042611122131347656,0.040480613708496094,0.10652923583984375,-0.5644683837890625,-0.35782623291015625,0.7120695114135742,-0.21523094177246094
268,49697716.0,9.330488204956055,-1.2186851501464844,2.500819206237793,0.020239830017089844,0.03728485107421875,0.10013771057128906,-0.5644683837890625,-0.35782623291015625,0.7120695114135742,-0.21523094177246094
269,49697716.0,9.330488204956055,-1.2186851501464844,2.500819206237793,0.020239830017089844,0.03728485107421875,0.10013771057128906,-0.5644683837890625,-0.35782623291015625,0.7120695114135742,-0.21523094177246094
270,49697716.0,9.330488204956055,-1.2186851501464844,2.500819206237793,0.020239830017089844,0.03728485107421875,0.10013771057128906,-0.5644683837890625,-0.35782623291015625,0.7120695114135742,-0.21523094177246094
271,49697736.0,9.359219551086426,-1.3431873321533203,2.506805419921875,0.02769756317138672,0.022370338439941406,0.10120296478271484,-0.5644683837890625,-0.35782623291015625,0.7120695114135742,-0.21523094177246094
272,49697736.0,9.359219551086426,-1.3431873321533203,2.506805419921875,0.02769756317138672,0.022370338439941406,0.10120296478271484,-0.5644683837890625,-0.35782623291015625,0.7120695114135742,-0.21523094177246094
273,49697736.0,9.359219551086426,-1.3431873321533203,2.506805419921875,0.02769756317138672,0.022370338439941406,0.10120296478271484,-0.5644683837890625,-0.35782623291015625,0.7120695114135742,-0.21523094177246094
274,49697856.0,9.397527694702148,-1.3000907897949219,2.6947555541992188,0.1736431121826172,-0.021305084228515625,0.16512012481689453,-0.5644683837890625,-0.35782623291015625,0.7120695114135742,-0.21523094177246094
275,49697876.0,9.282602310180664,-1.3120622634887695,2.6995439529418945,0.1736431121826172,-0.0170440673828125,0.15766334533691406,-0.5644683837890625,-0.35782623291015625,0.7120695114135742,-0.21523094177246094
276,49697896.0,9.262250900268555,-1.2581911087036133,2.7977094650268555,0.1736431121826172,-0.02769756317138672,0.1384878158569336,-0.5644683837890625,-0.35782623291015625,0.7120695114135742,-0.21523094177246094
277,49697916.0,9.319713592529297,-1.2450227737426758,2.818060874938965,0.1491413116455078,-0.03515434265136719,0.11718177795410156,-0.5644683837890625,-0.35782623291015625,0.7120695114135742,-0.21523094177246094
278,49697936.0,9.276617050170898,-1.2725563049316406,2.7977094650268555,0.13103103637695312,-0.03621959686279297,0.10226821899414062,-0.5644683837890625,-0.35782623291015625,0.7120695114135742,-0.21523094177246094
279,49697956.0,9.289785385131836,-1.2522048950195312,2.853975296020508,0.11718177795410156,-0.030893325805664062,0.10013771057128906,-0.5644683837890625,-0.35782623291015625,0.7120695114135742,-0.21523094177246094
280,49697976.0,9.329291343688965,-1.2390365600585938,2.84320068359375,0.11185550689697266,-0.034089088439941406,0.08948421478271484,-0.5644683837890625,-0.35782623291015625,0.7120695114135742,-0.21523094177246094
281,49697996.0,9.371191024780273,-1.201925277709961,2.847989082336426,0.0916147232055664,-0.030893325805664062,0.07776641845703125,-0.5644683837890625,-0.35782623291015625,0.7120695114135742,-0.21523094177246094
282,49698016.0,9.274222373962402,-1.2234735488891602,2.8707351684570312,0.06604766845703125,-0.024501800537109375,0.060721397399902344,-0.5644683837890625,-0.35782623291015625,0.7120695114135742,-0.21523094177246094
283,49698036.0,9.190423011779785,-1.3527650833129883,2.838412284851074,0.05859088897705078,-0.01810932159423828,0.042611122131347656,-0.5644683837890625,-0.35782623291015625,0.7120695114135742,-0.21523094177246094
284,49698156.0,9.368796348571777,-1.3000907897949219,2.904254913330078,0.05859088897705078,-0.01810932159423828,0.042611122131347656,-0.5551462173461914,-0.41242218017578125,0.6836280822753906,-0.23327159881591797
285,49698156.0,9.368796348571777,-1.3000907897949219,2.904254913330078,0.05859088897705078,-0.01810932159423828,0.042611122131347656,-0.5551462173461914,-0.41242218017578125,0.6836280822753906,-0.23327159881591797
286,49698176.0,9.279010772705078,-1.3084707260131836,2.909043312072754,0.05859088897705078,-0.01810932159423828,0.042611122131347656,-0.5551462173461914,-0.41242218017578125,0.6836280822753906,-0.23327159881591797
287,49698176.0,9.279010772705078,-1.3084707260131836,2.909043312072754,0.05859088897705078,-0.01810932159423828,0.042611122131347656,-0.5551462173461914,-0.41242218017578125,0.6836280822753906,-0.23327159881591797
288,49698192.0,9.21556282043457,-1.321639060974121,2.873128890991211,0.05859088897705078,-0.01810932159423828,0.042611122131347656,-0.5551462173461914,-0.41242218017578125,0.6836280822753906,-0.23327159881591797
289,49698192.0,9.21556282043457,-1.321639060974121,2.873128890991211,0.05859088897705078,-0.01810932159423828,0.042611122131347656,-0.5551462173461914,-0.41242218017578125,0.6836280822753906,-0.23327159881591797
290,49698216.0,9.195211410522461,-1.3156538009643555,2.79172420501709,0.05859088897705078,-0.01810932159423828,0.042611122131347656,-0.5551462173461914,-0.41242218017578125,0.6836280822753906,-0.23327159881591797
291,49698216.0,9.195211410522461,-1.3156538009643555,2.79172420501709,0.05859088897705078,-0.01810932159423828,0.042611122131347656,-0.5551462173461914,-0.41242218017578125,0.6836280822753906,-0.23327159881591797
292,49698232.0,9.250279426574707,-1.2498111724853516,2.7462329864501953,0.05859088897705078,-0.01810932159423828,0.042611122131347656,-0.5551462173461914,-0.41242218017578125,0.6836280822753906,-0.23327159881591797
293,49698232.0,9.250279426574707,-1.2498111724853516,2.7462329864501953,0.05859088897705078,-0.01810932159423828,0.042611122131347656,-0.5551462173461914,-0.41242218017578125,0.6836280822753906,-0.23327159881591797
294,49698256.0,9.390344619750977,-1.2031221389770508,2.6696157455444336,-0.004261016845703125,0.03515434265136719,0.023435592651367188,-0.5536794662475586,-0.41237831115722656,0.6847066879272461,-0.2334442138671875
295,49698276.0,9.395133018493652,-1.2103052139282227,2.657644271850586,-0.03621959686279297,0.03621959686279297,0.034089088439941406,-0.5536355972290039,-0.41242218017578125,0.6849231719970703,-0.23288345336914062
296,49698296.0,9.35443115234375,-1.2450227737426758,2.572648048400879,-0.06817817687988281,0.04793834686279297,0.02769756317138672,-0.5537652969360352,-0.41220569610595703,0.6852245330810547,-0.2321491241455078
297,49698312.0,9.387950897216797,-1.2869224548339844,2.559478759765625,-0.07670116424560547,0.030893325805664062,0.022370338439941406,-0.5539379119873047,-0.4119901657104492,0.6854410171508789,-0.2314586639404297
298,49698336.0,9.40590763092041,-1.2797393798828125,2.5774364471435547,-0.05539512634277344,0.01810932159423828,0.01810932159423828,-0.5541105270385742,-0.4118175506591797,0.6855268478393555,-0.23102760314941406
299,49698456.0,9.54716968536377,-1.3336105346679688,2.6408843994140625,-0.034089088439941406,-0.02769756317138672,-0.009587287902832031,-0.5541105270385742,-0.4118175506591797,0.6855268478393555,-0.23102760314941406
300,49698472.0,9.431047439575195,-1.3862848281860352,2.6696157455444336,-0.04900360107421875,-0.021305084228515625,-0.00852203369140625,-0.5541105270385742,-0.4118175506591797,0.6855268478393555,-0.23102760314941406
301,49698496.0,9.359219551086426,-1.4221982955932617,2.7246837615966797,-0.04900360107421875,-0.0287628173828125,-0.011717796325683594,-0.5541105270385742,-0.4118175506591797,0.6855268478393555,-0.23102760314941406
302,49698512.0,9.353233337402344,-1.3934669494628906,2.752218246459961,-0.021305084228515625,-0.03621959686279297,-0.021305084228515625,-0.5541105270385742,-0.4118175506591797,0.6855268478393555,-0.23102760314941406
303,49698532.0,9.366402626037598,-1.3599472045898438,2.779752731323242,0.004261016845703125,-0.03941535949707031,-0.030893325805664062,-0.5541105270385742,-0.4118175506591797,0.6855268478393555,-0.23102760314941406
304,49698552.0,9.312531471252441,-1.3503704071044922,2.8252439498901367,0.004261016845703125,-0.03941535949707031,-0.030893325805664062,-0.5564413070678711,-0.4087963104248047,0.6854410171508789,-0.2312002182006836
305,49698572.0,9.277813911437988,-1.357553482055664,2.871932029724121,0.004261016845703125,-0.03941535949707031,-0.030893325805664062,-0.5564842224121094,-0.40840816497802734,0.6854839324951172,-0.23158836364746094
306,49698592.0,9.33647346496582,-1.3419904708862305,2.853975296020508,0.004261016845703125,-0.03941535949707031,-0.030893325805664062,-0.5565710067749023,-0.40793323516845703,0.6856136322021484,-0.23176097869873047
307,49698612.0,9.392739295959473,-1.351567268371582,2.8372154235839844,0.004261016845703125,-0.03941535949707031,-0.030893325805664062,-0.5566997528076172,-0.40737247467041016,0.6858291625976562,-0.23189067840576172
308,49698632.0,9.399922370910645,-1.3802986145019531,2.853975296020508,0.004261016845703125,-0.03941535949707031,-0.030893325805664062,-0.5567865371704102,-0.40685462951660156,0.6860017776489258,-0.23189067840576172
309,49698652.0,9.328093528747559,-1.3767070770263672,2.836017608642578,-0.03515434265136719,-0.0063915252685546875,-0.03515434265136719,-0.5567865371704102,-0.40685462951660156,0.6860017776489258,-0.23189067840576172
310,49698672.0,9.361613273620605,-1.358750343322754,2.806089401245117,-0.031958580017089844,0.0010652542114257812,-0.021305084228515625,-0.5567865371704102,-0.40685462951660156,0.6860017776489258,-0.23189067840576172
311,49698692.0,9.498086929321289,-1.3300189971923828,2.8048925399780273,-0.021305084228515625,-0.0010652542114257812,-0.013848304748535156,-0.5567865371704102,-0.40685462951660156,0.6860017776489258,-0.23189067840576172
312,49698712.0,9.40351390838623,-1.262979507446289,2.7905263900756836,-0.0170440673828125,0.014913558959960938,-0.0063915252685546875,-0.5567865371704102,-0.40685462951660156,0.6860017776489258,-0.23189067840576172
313,49698732.0,9.371191024780273,-1.264176368713379,2.7306699752807617,-0.026632308959960938,0.020239830017089844,-0.004261016845703125,-0.5567865371704102,-0.40685462951660156,0.6860017776489258,-0.23189067840576172
314,49698852.0,9.434638977050781,-1.2773447036743164,2.6432790756225586,-0.04900360107421875,0.019174575805664062,-0.019174575805664062,-0.5567865371704102,-0.40685462951660156,0.6860017776489258,-0.23189067840576172
315,49698852.0,9.434638977050781,-1.2773447036743164,2.6432790756225586,-0.04900360107421875,0.019174575805664062,-0.019174575805664062,-0.5567865371704102,-0.40685462951660156,0.6860017776489258,-0.23189067840576172
316,49698872.0,9.377176284790039,-1.230656623840332,2.6552505493164062,-0.04900360107421875,0.019174575805664062,-0.019174575805664062,-0.5567865371704102,-0.40685462951660156,0.6860017776489258,-0.23189067840576172
317,49698872.0,9.377176284790039,-1.230656623840332,2.6552505493164062,-0.04900360107421875,0.019174575805664062,-0.019174575805664062,-0.5567865371704102,-0.40685462951660156,0.6860017776489258,-0.23189067840576172
318,49698892.0,9.251477241516113,-1.2426280975341797,2.626519203186035,-0.04900360107421875,0.019174575805664062,-0.019174575805664062,-0.5567865371704102,-0.40685462951660156,0.6860017776489258,-0.23189067840576172
319,49698892.0,9.251477241516113,-1.2426280975341797,2.626519203186035,-0.04900360107421875,0.019174575805664062,-0.019174575805664062,-0.5567865371704102,-0.40685462951660156,0.6860017776489258,-0.23189067840576172
320,49698912.0,9.342459678649902,-1.2486133575439453,2.6468706130981445,-0.04900360107421875,0.019174575805664062,-0.019174575805664062,-0.5567865371704102,-0.40685462951660156,0.6860017776489258,-0.23189067840576172
321,49698912.0,9.342459678649902,-1.2486133575439453,2.6468706130981445,-0.04900360107421875,0.019174575805664062,-0.019174575805664062,-0.5567865371704102,-0.40685462951660156,0.6860017776489258,-0.23189067840576172
322,49698932.0,9.392739295959473,-1.2438249588012695,2.630110740661621,-0.04900360107421875,0.019174575805664062,-0.019174575805664062,-0.5567865371704102,-0.40685462951660156,0.6860017776489258,-0.23189067840576172
323,49698932.0,9.392739295959473,-1.2438249588012695,2.630110740661621,-0.04900360107421875,0.019174575805664062,-0.019174575805664062,-0.5567865371704102,-0.40685462951660156,0.6860017776489258,-0.23189067840576172
324,49699052.0,9.348444938659668,-1.2976961135864258,2.72348690032959,0.021305084228515625,-0.014913558959960938,-0.05006885528564453,-0.5567865371704102,-0.40685462951660156,0.6860017776489258,-0.23189067840576172
325,49699072.0,9.37597942352295,-1.3671302795410156,2.745035171508789,0.0010652542114257812,-0.021305084228515625,-0.041545867919921875,-0.5567865371704102,-0.40685462951660156,0.6860017776489258,-0.23189067840576172
326,49699092.0,9.441822052001953,-1.3491735458374023,2.7402467727661133,-0.0031957626342773438,-0.023435592651367188,-0.030893325805664062,-0.5567865371704102,-0.40685462951660156,0.6860017776489258,-0.23189067840576172
327,49699112.0,9.42745590209961,-1.332413673400879,2.7390499114990234,0.009587287902832031,-0.021305084228515625,-0.022370338439941406,-0.5567865371704102,-0.40685462951660156,0.6860017776489258,-0.23189067840576172
328,49699132.0,9.391542434692383,-1.3048791885375977,2.7677812576293945,0.010652542114257812,-0.010652542114257812,-0.010652542114257812,-0.5567865371704102,-0.40685462951660156,0.6860017776489258,-0.23189067840576172
329,49699252.0,9.380767822265625,-1.270162582397461,2.7426414489746094,0.010652542114257812,-0.010652542114257812,-0.010652542114257812,-0.5567436218261719,-0.4009418487548828,0.6894111633300781,-0.23227882385253906
330,49699252.0,9.380767822265625,-1.270162582397461,2.7426414489746094,0.010652542114257812,-0.010652542114257812,-0.010652542114257812,-0.5567436218261719,-0.4009418487548828,0.6894111633300781,-0.23227882385253906
331,49699272.0,9.396330833435059,-1.2462196350097656,2.745035171508789,0.010652542114257812,-0.010652542114257812,-0.010652542114257812,-0.5567436218261719,-0.4009418487548828,0.6894111633300781,-0.23227882385253906
332,49699272.0,9.396330833435059,-1.2462196350097656,2.745035171508789,0.010652542114257812,-0.010652542114257812,-0.010652542114257812,-0.5567436218261719,-0.4009418487548828,0.6894111633300781,-0.23227882385253906
333,49699288.0,9.329291343688965,-1.2174882888793945,2.715106964111328,0.010652542114257812,-0.010652542114257812,-0.010652542114257812,-0.5567436218261719,-0.4009418487548828,0.6894111633300781,-0.23227882385253906
334,49699288.0,9.329291343688965,-1.2174882888793945,2.715106964111328,0.010652542114257812,-0.010652542114257812,-0.010652542114257812,-0.5567436218261719,-0.4009418487548828,0.6894111633300781,-0.23227882385253906
335,49699312.0,9.326896667480469,-1.2067136764526367,2.6803903579711914,0.010652542114257812,-0.010652542114257812,-0.010652542114257812,-0.5567436218261719,-0.4009418487548828,0.6894111633300781,-0.23227882385253906
336,49699312.0,9.326896667480469,-1.2067136764526367,2.6803903579711914,0.010652542114257812,-0.010652542114257812,-0.010652542114257812,-0.5567436218261719,-0.4009418487548828,0.6894111633300781,-0.23227882385253906
337,49699328.0,9.42745590209961,-1.1959400177001953,2.664827346801758,0.010652542114257812,-0.010652542114257812,-0.010652542114257812,-0.5567436218261719,-0.4009418487548828,0.6894111633300781,-0.23227882385253906
338,49699328.0,9.42745590209961,-1.1959400177001953,2.664827346801758,0.010652542114257812,-0.010652542114257812,-0.010652542114257812,-0.5567436218261719,-0.4009418487548828,0.6894111633300781,-0.23227882385253906
339,49699448.0,9.415484428405762,-1.227065086364746,2.660038948059082,0.004261016845703125,-0.004261016845703125,-0.01810932159423828,-0.5564413070678711,-0.4015026092529297,0.6894540786743164,-0.23197650909423828
340,49699472.0,9.329291343688965,-1.2282629013061523,2.682784080505371,0.004261016845703125,-0.004261016845703125,-0.01810932159423828,-0.5564413070678711,-0.4014596939086914,0.6894979476928711,-0.23197650909423828
341,49699488.0,9.359219551086426,-1.1887569427490234,2.7055301666259766,0.004261016845703125,-0.004261016845703125,-0.01810932159423828,-0.5564842224121094,-0.4014596939086914,0.6894111633300781,-0.23210620880126953
342,49699508.0,9.396330833435059,-1.1731939315795898,2.686375617980957,0.004261016845703125,-0.004261016845703125,-0.01810932159423828,-0.5565271377563477,-0.40137290954589844,0.6893253326416016,-0.23232173919677734
343,49699528.0,9.379570960998535,-1.1648139953613281,2.7067270278930664,0.004261016845703125,-0.004261016845703125,-0.01810932159423828,-0.5565271377563477,-0.4012870788574219,0.6894111633300781,-0.2324085235595703
344,49699648.0,9.512453079223633,-1.3922700881958008,2.8970718383789062,0.004261016845703125,-0.010652542114257812,-0.013848304748535156,-0.5565271377563477,-0.4012870788574219,0.6894111633300781,-0.2324085235595703
345,49699648.0,9.512453079223633,-1.3922700881958008,2.8970718383789062,0.004261016845703125,-0.010652542114257812,-0.013848304748535156,-0.5565271377563477,-0.4012870788574219,0.6894111633300781,-0.2324085235595703
346,49699672.0,9.531606674194336,-1.6496543884277344,3.021574020385742,0.004261016845703125,-0.010652542114257812,-0.013848304748535156,-0.5565271377563477,-0.4012870788574219,0.6894111633300781,-0.2324085235595703
347,49699672.0,9.531606674194336,-1.6496543884277344,3.021574020385742,0.004261016845703125,-0.010652542114257812,-0.013848304748535156,-0.5565271377563477,-0.4012870788574219,0.6894111633300781,-0.2324085235595703
348,49699688.0,9.486115455627441,-2.135692596435547,3.240650177001953,0.004261016845703125,-0.010652542114257812,-0.013848304748535156,-0.5565271377563477,-0.4012870788574219,0.6894111633300781,-0.2324085235595703
349,49699688.0,9.486115455627441,-2.135692596435547,3.240650177001953,0.004261016845703125,-0.010652542114257812,-0.013848304748535156,-0.5565271377563477,-0.4012870788574219,0.6894111633300781,-0.2324085235595703
350,49699712.0,9.918282508850098,-2.624124526977539,3.554300308227539,0.004261016845703125,-0.010652542114257812,-0.013848304748535156,-0.5565271377563477,-0.4012870788574219,0.6894111633300781,-0.2324085235595703
351,49699712.0,9.918282508850098,-2.624124526977539,3.554300308227539,0.004261016845703125,-0.010652542114257812,-0.013848304748535156,-0.5565271377563477,-0.4012870788574219,0.6894111633300781,-0.2324085235595703
352,49699728.0,10.85564136505127,-3.9361867904663086,4.573063850402832,0.004261016845703125,-0.010652542114257812,-0.013848304748535156,-0.5565271377563477,-0.4012870788574219,0.6894111633300781,-0.2324085235595703
353,49699728.0,10.85564136505127,-3.9361867904663086,4.573063850402832,0.004261016845703125,-0.010652542114257812,-0.013848304748535156,-0.5565271377563477,-0.4012870788574219,0.6894111633300781,-0.2324085235595703
354,49699748.0,11.532023429870605,-4.8699541091918945,5.827664375305176,0.004261016845703125,-0.010652542114257812,-0.013848304748535156,-0.5565271377563477,-0.4012870788574219,0.6894111633300781,-0.2324085235595703
355,49699748.0,11.532023429870605,-4.8699541091918945,5.827664375305176,0.004261016845703125,-0.010652542114257812,-0.013848304748535156,-0.5565271377563477,-0.4012870788574219,0.6894111633300781,-0.2324085235595703
356,49699768.0,12.680078506469727,-6.147299766540527,7.025999069213867,-0.5134725570678711,0.19814491271972656,1.2037849426269531,-0.5565271377563477,-0.4012870788574219,0.6894111633300781,-0.2324085235595703
357,49699768.0,12.680078506469727,-6.147299766540527,7.025999069213867,-0.5134725570678711,0.19814491271972656,1.2037849426269531,-0.5565271377563477,-0.4012870788574219,0.6894111633300781,-0.2324085235595703
358,49699768.0,12.680078506469727,-6.147299766540527,7.025999069213867,-0.5134725570678711,0.19814491271972656,1.2037849426269531,-0.5565271377563477,-0.4012870788574219,0.6894111633300781,-0.2324085235595703
359,49699788.0,14.116642951965332,-7.005647659301758,7.430630683898926,-0.25140953063964844,0.3068046569824219,1.8877058029174805,-0.5565271377563477,-0.4012870788574219,0.6894111633300781,-0.2324085235595703
360,49699788.0,14.116642951965332,-7.005647659301758,7.430630683898926,-0.25140953063964844,0.3068046569824219,1.8877058029174805,-0.5565271377563477,-0.4012870788574219,0.6894111633300781,-0.2324085235595703
361,49699788.0,14.116642951965332,-7.005647659301758,7.430630683898926,-0.25140953063964844,0.3068046569824219,1.8877058029174805,-0.5565271377563477,-0.4012870788574219,0.6894111633300781,-0.2324085235595703
362,49699808.0,15.03604507446289,-7.925048828125,6.158074378967285,0.47086048126220703,0.3760490417480469,2.676025390625,-0.5565271377563477,-0.4012870788574219,0.6894111633300781,-0.2324085235595703
363,49699808.0,15.03604507446289,-7.925048828125,6.158074378967285,0.47086048126220703,0.3760490417480469,2.676025390625,-0.5565271377563477,-0.4012870788574219,0.6894111633300781,-0.2324085235595703
364,49699808.0,15.03604507446289,-7.925048828125,6.158074378967285,0.47086048126220703,0.3760490417480469,2.676025390625,-0.5565271377563477,-0.4012870788574219,0.6894111633300781,-0.2324085235595703
365,49699828.0,16.60908317565918,-8.413480758666992,5.900689125061035,0.7606210708618164,0.40587806701660156,3.7285385131835938,-0.5565271377563477,-0.4012870788574219,0.6894111633300781,-0.2324085235595703
366,49699828.0,16.60908317565918,-8.413480758666992,5.900689125061035,0.7606210708618164,0.40587806701660156,3.7285385131835938,-0.5565271377563477,-0.4012870788574219,0.6894111633300781,-0.2324085235595703
367,49699828.0,16.60908317565918,-8.413480758666992,5.900689125061035,0.7606210708618164,0.40587806701660156,3.7285385131835938,-0.5565271377563477,-0.4012870788574219,0.6894111633300781,-0.2324085235595703
368,49700068.0,-0.7218732833862305,-2.4625110626220703,1.7837343215942383,0.7840576171875,0.726531982421875,6.002947807312012,-0.5565271377563477,-0.4012870788574219,0.6894111633300781,-0.2324085235595703
369,49700068.0,-0.7218732833862305,-2.4625110626220703,1.7837343215942383,0.7840576171875,0.726531982421875,6.002947807312012,-0.5565271377563477,-0.4012870788574219,0.6894111633300781,-0.2324085235595703
370,49700088.0,-1.5694465637207031,-2.995237350463867,2.1189327239990234,1.0077705383300781,0.8298654556274414,5.586416244506836,-0.5565271377563477,-0.4012870788574219,0.6894111633300781,-0.2324085235595703
371,49700088.0,-1.5694465637207031,-2.995237350463867,2.1189327239990234,1.0077705383300781,0.8298654556274414,5.586416244506836,-0.5565271377563477,-0.4012870788574219,0.6894111633300781,-0.2324085235595703
372,49700108.0,-2.097384452819824,-3.2382564544677734,1.7609882354736328,0.6604833602905273,0.9363956451416016,5.051637649536133,-0.5565271377563477,-0.4012870788574219,0.6894111633300781,-0.2324085235595703
373,49700108.0,-2.097384452819824,-3.2382564544677734,1.7609882354736328,0.6604833602905273,0.9363956451416016,5.051637649536133,-0.5565271377563477,-0.4012870788574219,0.6894111633300781,-0.2324085235595703
374,49700128.0,-2.281743049621582,-4.334834098815918,-0.6500453948974609,0.3355684280395508,0.8277349472045898,4.419916152954102,-0.5565271377563477,-0.4012870788574219,0.6894111633300781,-0.2324085235595703
375,49700128.0,-2.281743049621582,-4.334834098815918,-0.6500453948974609,0.3355684280395508,0.8277349472045898,4.419916152954102,-0.5565271377563477,-0.4012870788574219,0.6894111633300781,-0.2324085235595703
376,49700148.0,-2.630110740661621,-5.540350914001465,0.5674428939819336,0.5049505233764648,0.8042984008789062,4.011907577514648,-0.5565271377563477,-0.4012870788574219,0.6894111633300781,-0.2324085235595703
377,49700148.0,-2.630110740661621,-5.540350914001465,0.5674428939819336,0.5049505233764648,0.8042984008789062,4.011907577514648,-0.5565271377563477,-0.4012870788574219,0.6894111633300781,-0.2324085235595703
378,49700168.0,-2.7354583740234375,-5.2099409103393555,1.7681713104248047,0.6668758392333984,0.8106908798217773,3.4547576904296875,-0.5565271377563477,-0.4012870788574219,0.6894111633300781,-0.2324085235595703
379,49700168.0,-2.7354583740234375,-5.2099409103393555,1.7681713104248047,0.6668758392333984,0.8106908798217773,3.4547576904296875,-0.5565271377563477,-0.4012870788574219,0.6894111633300781,-0.2324085235595703
380,49700188.0,-3.2011451721191406,-2.873128890991211,0.7099018096923828,0.9694194793701172,0.9672889709472656,3.0083980560302734,-0.5565271377563477,-0.4012870788574219,0.6894111633300781,-0.2324085235595703
381,49700188.0,-3.2011451721191406,-2.873128890991211,0.7099018096923828,0.9694194793701172,0.9672889709472656,3.0083980560302734,-0.5565271377563477,-0.4012870788574219,0.6894111633300781,-0.2324085235595703
382,49700208.0,-4.482081413269043,-2.9844627380371094,0.6656074523925781,0.8522367477416992,1.078080177307129,2.6461973190307617,-0.5565271377563477,-0.4012870788574219,0.6894111633300781,-0.2324085235595703
383,49700208.0,-4.482081413269043,-2.9844627380371094,0.6656074523925781,0.8522367477416992,1.078080177307129,2.6461973190307617,-0.5565271377563477,-0.4012870788574219,0.6894111633300781,-0.2324085235595703
384,49700228.0,-4.676017761230469,-4.170825958251953,1.5838127136230469,0.3057394027709961,0.874608039855957,2.45444393157959,-0.5565271377563477,-0.4012870788574219,0.6894111633300781,-0.2324085235595703
385,49700228.0,-4.676017761230469,-4.170825958251953,1.5838127136230469,0.3057394027709961,0.874608039855957,2.45444393157959,-0.5565271377563477,-0.4012870788574219,0.6894111633300781,-0.2324085235595703
386,49700248.0,-4.948965072631836,-4.947768211364746,0.24900436401367188,0.3057394027709961,0.874608039855957,2.45444393157959,-0.5565271377563477,-0.4012870788574219,0.6894111633300781,-0.2324085235595703
387,49700268.0,-6.229902267456055,-3.1712160110473633,1.351567268371582,0.3057394027709961,0.874608039855957,2.45444393157959,-0.5565271377563477,-0.4012870788574219,0.6894111633300781,-0.2324085235595703
388,49700288.0,-7.16606330871582,-1.6017694473266602,1.4928302764892578,0.3057394027709961,0.874608039855957,2.45444393157959,-0.5565271377563477,-0.4012870788574219,0.6894111633300781,-0.2324085235595703
389,49700304.0,-7.417462348937988,-3.307689666748047,1.941756248474121,0.3057394027709961,0.874608039855957,2.45444393157959,-0.5565271377563477,-0.4012870788574219,0.6894111633300781,-0.2324085235595703
390,49700328.0,-6.762628555297852,-3.903864860534668,2.437371253967285,0.3057394027709961,0.874608039855957,2.45444393157959,-0.5565271377563477,-0.4012870788574219,0.6894111633300781,-0.2324085235595703
391,49700344.0,-7.174443244934082,-4.1552629470825195,1.7166948318481445,0.3057394027709961,0.874608039855957,2.45444393157959,-0.5565271377563477,-0.4012870788574219,0.6894111633300781,-0.2324085235595703
392,49700368.0,-13.085907936096191,2.098581314086914,-29.507041931152344,0.3057394027709961,0.874608039855957,2.45444393157959,-0.5565271377563477,-0.4012870788574219,0.6894111633300781,-0.2324085235595703
393,49700388.0,2.0854129791259766,8.40390396118164,24.96031379699707,0.3057394027709961,0.874608039855957,2.45444393157959,-0.5565271377563477,-0.4012870788574219,0.6894111633300781,-0.2324085235595703
394,49700408.0,0.010773658752441406,1.7178916931152344,1.4317760467529297,0.3057394027709961,0.874608039855957,2.45444393157959,-0.5565271377563477,-0.4012870788574219,0.6894111633300781,-0.2324085235595703
395,49700428.0,-12.043201446533203,-5.261418342590332,-9.677658081054688,0.3057394027709961,0.874608039855957,2.45444393157959,-0.5565271377563477,-0.4012870788574219,0.6894111633300781,-0.2324085235595703
396,49700448.0,-12.574729919433594,-0.41899776458740234,-0.7158880233764648,0.3057394027709961,0.874608039855957,2.45444393157959,-0.5565271377563477,-0.4012870788574219,0.6894111633300781,-0.2324085235595703
397,49700468.0,-4.550318717956543,0.5387115478515625,0.33519840240478516,3.4430389404296875,-0.8969793319702148,-0.736119270324707,-0.5565271377563477,-0.4012870788574219,0.6894111633300781,-0.2324085235595703
398,49700488.0,-5.9892778396606445,-0.950526237487793,0.2657642364501953,2.7953386306762695,-0.4218568801879883,-0.9300041198730469,-0.5565271377563477,-0.4012870788574219,0.6894111633300781,-0.2324085235595703
399,49700504.0,-7.625764846801758,-2.6468706130981445,-0.5925827026367188,1.7524127960205078,-0.4942970275878906,-1.4296283721923828,-0.5565271377563477,-0.4012870788574219,0.6894111633300781,-0.2324085235595703
400,49700528.0,-6.451373100280762,-1.2976961135864258,-0.803278923034668,1.6362953186035156,-1.4349546432495117,-1.3028573989868164,-0.5565271377563477,-0.4012870788574219,0.6894111633300781,-0.2324085235595703
401,49700544.0,-5.476902961730957,-0.43815135955810547,0.25858116149902344,1.7715883255004883,-1.8877058029174805,-1.7098007202148438,-0.5565271377563477,-0.4012870788574219,0.6894111633300781,-0.2324085235595703
402,49700568.0,-4.851997375488281,-1.828028678894043,0.8379955291748047,1.3731670379638672,-2.1263322830200195,-1.997431755065918,-0.14000606536865234,-0.7702474594116211,0.065643310546875,0.618718147277832
403,49700588.0,-4.042732238769531,-2.5475082397460938,0.5111770629882812,0.8959140777587891,-2.4981212615966797,-2.30423641204834,-0.1501483917236328,-0.7852239608764648,0.0852804183959961,0.5946788787841797
404,49700608.0,-3.8511905670166016,-1.416213035583496,0.13886737823486328,0.5699329376220703,-2.744204521179199,-2.64406681060791,-0.16482257843017578,-0.7994232177734375,0.10578060150146484,0.5679206848144531
405,49700624.0,-3.5722570419311523,-1.6987371444702148,0.336395263671875,0.3685922622680664,-2.8773670196533203,-3.122385025024414,-0.18329429626464844,-0.8125858306884766,0.1287841796875,0.5380544662475586
406,49700648.0,-2.1404809951782227,-3.295718193054199,0.2921009063720703,0.38457202911376953,-3.2044124603271484,-3.530393600463867,-0.2030172348022461,-0.8254470825195312,0.15398883819580078,0.5037441253662109
407,49700664.0,-1.0953798294067383,-3.5052175521850586,0.22745609283447266,0.38457202911376953,-3.2044124603271484,-3.530393600463867,-0.2030172348022461,-0.8254470825195312,0.15398883819580078,0.5037441253662109
408,49700688.0,-0.4620943069458008,-2.6959524154663086,2.4182167053222656,0.38457202911376953,-3.2044124603271484,-3.530393600463867,-0.2030172348022461,-0.8254470825195312,0.15398883819580078,0.5037441253662109
409,49700704.0,0.6847620010375977,-4.228288650512695,6.917058944702148,0.38457202911376953,-3.2044124603271484,-3.530393600463867,-0.2030172348022461,-0.8254470825195312,0.15398883819580078,0.5037441253662109
410,49700724.0,1.3312158584594727,-9.261054039001465,5.909069061279297,0.38457202911376953,-3.2044124603271484,-3.530393600463867,-0.2030172348022461,-0.8254470825195312,0.15398883819580078,0.5037441253662109
411,49700744.0,-0.614130973815918,-6.6357316970825195,4.352790832519531,0.38457202911376953,-3.2044124603271484,-3.530393600463867,-0.2030172348022461,-0.8254470825195312,0.15398883819580078,0.5037441253662109
412,49700768.0,-0.9445409774780273,-1.8519706726074219,4.568275451660156,1.6235122680664062,-3.1639318466186523,-4.542426109313965,-0.2030172348022461,-0.8254470825195312,0.15398883819580078,0.5037441253662109
413,49700784.0,0.578216552734375,-0.7518014907836914,6.939805030822754,-0.5230598449707031,-3.526132583618164,-4.587167739868164,-0.2030172348022461,-0.8254470825195312,0.15398883819580078,0.5037441253662109
414,49700804.0,3.7195053100585938,-6.009629249572754,7.0702924728393555,-2.5077085494995117,-3.6305313110351562,-4.945107460021973,-0.2030172348022461,-0.8254470825195312,0.15398883819580078,0.5037441253662109
415,49700824.0,3.9349899291992188,-9.864411354064941,6.035965919494629,-1.8536157608032227,-2.622760772705078,-5.205039978027344,-0.2030172348022461,-0.8254470825195312,0.15398883819580078,0.5037441253662109
416,49700844.0,3.1592445373535156,-8.78459358215332,7.0439558029174805,0.39948558807373047,-1.9739952087402344,-5.606657028198242,-0.2030172348022461,-0.8254470825195312,0.15398883819580078,0.5037441253662109
417,49700864.0,2.9856605529785156,-4.1025896072387695,8.090253829956055,2.188119888305664,-2.1146135330200195,-5.68442440032959,-0.2030172348022461,-0.8254470825195312,0.15398883819580078,0.5037441253662109
418,49700888.0,5.037553787231445,-3.871541976928711,10.844866752624512,2.277604103088379,-2.6344785690307617,-5.756864547729492,-0.2030172348022461,-0.8254470825195312,0.15398883819580078,0.5037441253662109
419,49700904.0,7.799349784851074,-6.180819511413574,8.280598640441895,1.0695571899414062,-2.9476757049560547,-5.43940544128418,-0.2030172348022461,-0.8254470825195312,0.15398883819580078,0.5037441253662109
420,49700924.0,9.568717956542969,-3.6345081329345703,5.771398544311523,0.23756027221679688,-3.3034849166870117,-5.4617767333984375,-0.2030172348022461,-0.8254470825195312,0.15398883819580078,0.5037441253662109
421,49700944.0,12.664515495300293,-1.1025629043579102,3.523174285888672,-0.3174581527709961,-3.583658218383789,-5.635419845581055,-0.2030172348022461,-0.8254470825195312,0.15398883819580078,0.5037441253662109
422,49701264.0,9.428653717041016,-0.6715936660766602,3.6285228729248047,1.2868785858154297,0.16938209533691406,0.6519613265991211,-0.5660219192504883,-0.2605476379394531,0.7483224868774414,-0.2274017333984375
423,49701264.0,9.428653717041016,-0.6715936660766602,3.6285228729248047,1.2868785858154297,0.16938209533691406,0.6519613265991211,-0.5660219192504883,-0.2605476379394531,0.7483224868774414,-0.2274017333984375
424,49701284.0,9.490904808044434,-0.18555545806884766,3.2657899856567383,0.7563600540161133,0.1438150405883789,0.4367713928222656,-0.5660219192504883,-0.2605476379394531,0.7483224868774414,-0.2274017333984375
425,49701284.0,9.490904808044434,-0.18555545806884766,3.2657899856567383,0.7563600540161133,0.1438150405883789,0.4367713928222656,-0.5660219192504883,-0.2605476379394531,0.7483224868774414,-0.2274017333984375
426,49701304.0,9.226337432861328,-0.7470130920410156,2.8599605560302734,0.7563600540161133,0.1438150405883789,0.4367713928222656,-0.5660219192504883,-0.2605476379394531,0.7483224868774414,-0.2274017333984375
427,49701304.0,9.226337432861328,-0.7470130920410156,2.8599605560302734,0.7563600540161133,0.1438150405883789,0.4367713928222656,-0.5660219192504883,-0.2605476379394531,0.7483224868774414,-0.2274017333984375
428,49701324.0,9.300559997558594,-1.3048791885375977,2.53433895111084,0.7563600540161133,0.1438150405883789,0.4367713928222656,-0.5660219192504883,-0.2605476379394531,0.7483224868774414,-0.2274017333984375
429,49701324.0,9.300559997558594,-1.3048791885375977,2.53433895111084,0.7563600540161133,0.1438150405883789,0.4367713928222656,-0.5660219192504883,-0.2605476379394531,0.7483224868774414,-0.2274017333984375
430,49701344.0,9.713571548461914,-1.1181259155273438,2.353571891784668,-0.5805864334106445,0.09694194793701172,0.3355684280395508,-0.5660219192504883,-0.2605476379394531,0.7483224868774414,-0.2274017333984375
431,49701344.0,9.713571548461914,-1.1181259155273438,2.353571891784668,-0.5805864334106445,0.09694194793701172,0.3355684280395508,-0.5660219192504883,-0.2605476379394531,0.7483224868774414,-0.2274017333984375
432,49701364.0,9.516044616699219,-1.0822114944458008,2.073441505432129,-0.5805864334106445,0.09694194793701172,0.3355684280395508,-0.5660219192504883,-0.2605476379394531,0.7483224868774414,-0.2274017333984375
433,49701384.0,9.156903266906738,-1.4509296417236328,1.9573192596435547,-0.5805864334106445,0.09694194793701172,0.3355684280395508,-0.5660219192504883,-0.2605476379394531,0.7483224868774414,-0.2274017333984375
434,49701404.0,9.275420188903809,-1.485647201538086,2.1668176651000977,-0.5805864334106445,0.09694194793701172,0.3355684280395508,-0.5660219192504883,-0.2605476379394531,0.7483224868774414,-0.2274017333984375
435,49701424.0,9.480130195617676,-1.2103052139282227,2.34279727935791,-0.5805864334106445,0.09694194793701172,0.3355684280395508,-0.5660219192504883,-0.2605476379394531,0.7483224868774414,-0.2274017333984375
436,49701444.0,9.290982246398926,-1.0043973922729492,2.343994140625,-0.5805864334106445,0.09694194793701172,0.3355684280395508,-0.5660219192504883,-0.2605476379394531,0.7483224868774414,-0.2274017333984375
437,49701464.0,9.148523330688477,-1.1779823303222656,2.316460609436035,0.11505126953125,0.08948421478271484,0.5912389755249023,-0.5660219192504883,-0.2605476379394531,0.7483224868774414,-0.2274017333984375
438,49701484.0,9.267040252685547,-1.3084707260131836,2.4038515090942383,0.1033334732055664,0.009587287902832031,0.5848474502563477,-0.5660219192504883,-0.2605476379394531,0.7483224868774414,-0.2274017333984375
439,49701504.0,9.410696029663086,-1.1624202728271484,2.5714502334594727,0.1906881332397461,-0.04367637634277344,0.5358438491821289,-0.5660219192504883,-0.2605476379394531,0.7483224868774414,-0.2274017333984375
440,49701524.0,9.30654525756836,-1.139674186706543,2.401456832885742,0.27271556854248047,-0.061786651611328125,0.48257923126220703,-0.5660219192504883,-0.2605476379394531,0.7483224868774414,-0.2274017333984375
441,49701544.0,9.107820510864258,-1.1312942504882812,2.434976577758789,0.31319713592529297,-0.07244014739990234,0.4090738296508789,-0.5660219192504883,-0.2605476379394531,0.7483224868774414,-0.2274017333984375
442,49701764.0,9.358022689819336,-1.510787010192871,3.064671516418457,0.3110666275024414,-0.1374225616455078,-0.0170440673828125,-0.5797901153564453,-0.3820381164550781,0.6869077682495117,-0.21449756622314453
443,49701764.0,9.358022689819336,-1.510787010192871,3.064671516418457,0.3110666275024414,-0.1374225616455078,-0.0170440673828125,-0.5797901153564453,-0.3820381164550781,0.6869077682495117,-0.21449756622314453
444,49701784.0,9.417879104614258,-1.419804573059082,2.8922834396362305,0.2780418395996094,-0.09907245635986328,-0.0010652542114257812,-0.5797901153564453,-0.3820381164550781,0.6869077682495117,-0.21449756622314453
445,49701784.0,9.417879104614258,-1.419804573059082,2.8922834396362305,0.2780418395996094,-0.09907245635986328,-0.0010652542114257812,-0.5797901153564453,-0.3820381164550781,0.6869077682495117,-0.21449756622314453
446,49701800.0,9.434638977050781,-1.347975730895996,2.783344268798828,0.14807605743408203,-0.07670116424560547,0.0170440673828125,-0.5797901153564453,-0.3820381164550781,0.6869077682495117,-0.21449756622314453
447,49701800.0,9.434638977050781,-1.347975730895996,2.783344268798828,0.14807605743408203,-0.07670116424560547,0.0170440673828125,-0.5797901153564453,-0.3820381164550781,0.6869077682495117,-0.21449756622314453
448,49701824.0,9.277813911437988,-1.508392333984375,2.751021385192871,-0.0021305084228515625,-0.04367637634277344,0.014913558959960938,-0.5797901153564453,-0.3820381164550781,0.6869077682495117,-0.21449756622314453
449,49701824.0,9.277813911437988,-1.508392333984375,2.751021385192871,-0.0021305084228515625,-0.04367637634277344,0.014913558959960938,-0.5797901153564453,-0.3820381164550781,0.6869077682495117,-0.21449756622314453
450,49701840.0,9.329291343688965,-1.67120361328125,2.874326705932617,-0.0980072021484375,-0.04687213897705078,0.005326271057128906,-0.5797901153564453,-0.3820381164550781,0.6869077682495117,-0.21449756622314453
451,49701840.0,9.329291343688965,-1.67120361328125,2.874326705932617,-0.0980072021484375,-0.04687213897705078,0.005326271057128906,-0.5797901153564453,-0.3820381164550781,0.6869077682495117,-0.21449756622314453
452,49701960.0,9.42745590209961,-1.6460638046264648,2.656447410583496,0.05859088897705078,-0.07989692687988281,-0.03941535949707031,-0.5797901153564453,-0.3820381164550781,0.6869077682495117,-0.21449756622314453
453,49701984.0,9.483721733093262,-1.7083148956298828,2.6720104217529297,0.0862884521484375,-0.07883167266845703,-0.023435592651367188,-0.5797901153564453,-0.3820381164550781,0.6869077682495117,-0.21449756622314453
454,49702000.0,9.457385063171387,-1.6987371444702148,2.7366552352905273,0.11292076110839844,-0.07350540161132812,-0.014913558959960938,-0.5797901153564453,-0.3820381164550781,0.6869077682495117,-0.21449756622314453
455,49702020.0,9.33527660369873,-1.6041631698608398,2.7953147888183594,0.12996578216552734,-0.057525634765625,-0.0010652542114257812,-0.5797901153564453,-0.3820381164550781,0.6869077682495117,-0.21449756622314453
456,49702040.0,9.362811088562012,-1.5323352813720703,2.7366552352905273,0.11398601531982422,-0.045806884765625,0.01810932159423828,-0.5797901153564453,-0.3820381164550781,0.6869077682495117,-0.21449756622314453
457,49702060.0,9.538789749145508,-1.5095901489257812,2.661235809326172,0.11398601531982422,-0.045806884765625,0.01810932159423828,-0.5797901153564453,-0.3820381164550781,0.6869077682495117,-0.21449756622314453
458,49702080.0,9.459778785705566,-1.6185293197631836,2.719895362854004,0.11398601531982422,-0.045806884765625,0.01810932159423828,-0.5797901153564453,-0.3820381164550781,0.6869077682495117,-0.21449756622314453
459,49702100.0,9.183239936828613,-1.6783857345581055,2.7318668365478516,0.11398601531982422,-0.045806884765625,0.01810932159423828,-0.5797901153564453,-0.3820381164550781,0.6869077682495117,-0.21449756622314453
460,49702120.0,9.100637435913086,-1.697540283203125,2.7617950439453125,0.11398601531982422,-0.045806884765625,0.01810932159423828,-0.5797901153564453,-0.3820381164550781,0.6869077682495117,-0.21449756622314453
461,49702140.0,9.319713592529297,-1.7059202194213867,2.660038948059082,0.11398601531982422,-0.045806884765625,0.01810932159423828,-0.5797901153564453,-0.3820381164550781,0.6869077682495117,-0.21449756622314453
462,49702260.0,9.553155899047852,-1.5754318237304688,2.6109561920166016,0.0745706558227539,-0.042611122131347656,-0.07670116424560547,-0.5697774887084961,-0.3974885940551758,0.6794843673706055,-0.2359905242919922
463,49702280.0,9.372387886047363,-1.6783857345581055,2.624124526977539,0.0745706558227539,-0.042611122131347656,-0.07670116424560547,-0.5697774887084961,-0.3974885940551758,0.6794843673706055,-0.2359905242919922
464,49702300.0,9.282602310180664,-1.6161346435546875,2.664827346801758,0.0745706558227539,-0.042611122131347656,-0.07670116424560547,-0.5697774887084961,-0.3974885940551758,0.6794843673706055,-0.2359905242919922
465,49702320.0,9.372387886047363,-1.5969810485839844,2.5798301696777344,0.0745706558227539,-0.042611122131347656,-0.07670116424560547,-0.5697774887084961,-0.3974885940551758,0.6794843673706055,-0.2359905242919922
466,49702340.0,9.438230514526367,-1.4688873291015625,2.5522966384887695,0.0745706558227539,-0.042611122131347656,-0.07670116424560547,-0.5697774887084961,-0.3974885940551758,0.6794843673706055,-0.2359905242919922
467,49702360.0,9.396330833435059,-1.4569158554077148,2.5774364471435547,0.022370338439941406,0.0,0.010652542114257812,-0.5697774887084961,-0.3974885940551758,0.6794843673706055,-0.2359905242919922
468,49702360.0,9.396330833435059,-1.4569158554077148,2.5774364471435547,0.022370338439941406,0.0,0.010652542114257812,-0.5697774887084961,-0.3974885940551758,0.6794843673706055,-0.2359905242919922
469,49702380.0,9.252674102783203,-1.5778264999389648,2.595393180847168,-0.031958580017089844,0.012783050537109375,-0.0010652542114257812,-0.5697774887084961,-0.3974885940551758,0.6794843673706055,-0.2359905242919922
470,49702380.0,9.252674102783203,-1.5778264999389648,2.595393180847168,-0.031958580017089844,0.012783050537109375,-0.0010652542114257812,-0.5697774887084961,-0.3974885940551758,0.6794843673706055,-0.2359905242919922
471,49702400.0,9.231125831604004,-1.5658550262451172,2.597787857055664,-0.024501800537109375,0.0021305084228515625,-0.019174575805664062,-0.5697774887084961,-0.3974885940551758,0.6794843673706055,-0.2359905242919922
472,49702400.0,9.231125831604004,-1.5658550262451172,2.597787857055664,-0.024501800537109375,0.0021305084228515625,-0.019174575805664062,-0.5697774887084961,-0.3974885940551758,0.6794843673706055,-0.2359905242919922
473,49702420.0,9.379570960998535,-1.5215606689453125,2.558281898498535,0.005326271057128906,-0.024501800537109375,-0.026632308959960938,-0.5697774887084961,-0.3974885940551758,0.6794843673706055,-0.2359905242919922
474,49702420.0,9.379570960998535,-1.5215606689453125,2.558281898498535,0.005326271057128906,-0.024501800537109375,-0.026632308959960938,-0.5697774887084961,-0.3974885940551758,0.6794843673706055,-0.2359905242919922
475,49702440.0,9.42745590209961,-1.5191669464111328,2.53194522857666,0.005326271057128906,-0.0287628173828125,-0.03728485107421875,-0.5697774887084961,-0.3974885940551758,0.6794843673706055,-0.2359905242919922
476,49702440.0,9.42745590209961,-1.5191669464111328,2.53194522857666,0.005326271057128906,-0.0287628173828125,-0.03728485107421875,-0.5697774887084961,-0.3974885940551758,0.6794843673706055,-0.2359905242919922
477,49702460.0,9.320911407470703,-1.606557846069336,2.563070297241211,-0.007456779479980469,-0.0063915252685546875,-0.05113410949707031,-0.5697774887084961,-0.3974885940551758,0.6794843673706055,-0.2359905242919922
478,49702480.0,9.281405448913574,-1.6783857345581055,2.5822248458862305,-0.01597881317138672,-0.007456779479980469,-0.04793834686279297,-0.5697774887084961,-0.3974885940551758,0.6794843673706055,-0.2359905242919922
479,49702500.0,9.317319869995117,-1.546701431274414,2.6133499145507812,0.013848304748535156,-0.019174575805664062,-0.03621959686279297,-0.5697774887084961,-0.3974885940551758,0.6794843673706055,-0.2359905242919922
480,49702520.0,9.438230514526367,-1.4688873291015625,2.561873435974121,0.022370338439941406,-0.025567054748535156,-0.021305084228515625,-0.5697774887084961,-0.3974885940551758,0.6794843673706055,-0.2359905242919922
481,49702536.0,9.445413589477539,-1.5131807327270508,2.525959014892578,-0.014913558959960938,-0.022370338439941406,-0.020239830017089844,-0.5697774887084961,-0.3974885940551758,0.6794843673706055,-0.2359905242919922
482,49702660.0,9.341261863708496,-1.580221176147461,2.535536766052246,0.0063915252685546875,-0.0287628173828125,-0.010652542114257812,-0.5696048736572266,-0.397705078125,0.6807365417480469,-0.2324514389038086
483,49702680.0,9.415484428405762,-1.6520490646362305,2.53314208984375,0.0063915252685546875,-0.0287628173828125,-0.010652542114257812,-0.5696048736572266,-0.397705078125,0.6807365417480469,-0.2324514389038086
484,49702700.0,9.501678466796875,-1.5203638076782227,2.570253372192383,0.0063915252685546875,-0.0287628173828125,-0.010652542114257812,-0.5696048736572266,-0.397705078125,0.6807365417480469,-0.2324514389038086
485,49702720.0,9.478933334350586,-1.5167722702026367,2.528353691101074,0.0063915252685546875,-0.0287628173828125,-0.010652542114257812,-0.5696048736572266,-0.397705078125,0.6807365417480469,-0.2324514389038086
486,49702740.0,9.380767822265625,-1.4988155364990234,2.53314208984375,0.0063915252685546875,-0.0287628173828125,-0.010652542114257812,-0.5696048736572266,-0.397705078125,0.6807365417480469,-0.2324514389038086
487,49702760.0,9.337671279907227,-1.537123680114746,2.5606765747070312,0.05006885528564453,-0.022370338439941406,0.024501800537109375,-0.5696048736572266,-0.397705078125,0.6807365417480469,-0.2324514389038086
488,49702780.0,9.433442115783691,-1.3982563018798828,2.5870132446289062,0.06604766845703125,-0.034089088439941406,0.020239830017089844,-0.5696048736572266,-0.397705078125,0.6807365417480469,-0.2324514389038086
489,49702800.0,9.505270004272461,-1.4221982955932617,2.537930488586426,0.07563591003417969,-0.03728485107421875,0.01597881317138672,-0.5696048736572266,-0.397705078125,0.6807365417480469,-0.2324514389038086
490,49702820.0,9.381964683532715,-1.4569158554077148,2.5487051010131836,0.045806884765625,-0.024501800537109375,0.020239830017089844,-0.5696048736572266,-0.397705078125,0.6807365417480469,-0.2324514389038086
491,49702840.0,9.312531471252441,-1.423396110534668,2.5091991424560547,0.03515434265136719,-0.01597881317138672,0.013848304748535156,-0.5696048736572266,-0.397705078125,0.6807365417480469,-0.2324514389038086
492,49702960.0,9.466961860656738,-1.1875600814819336,2.4984254837036133,0.16938209533691406,-0.04793834686279297,-0.011717796325683594,-0.5696048736572266,-0.397705078125,0.6807365417480469,-0.2324514389038086
493,49702976.0,9.441822052001953,-1.2462196350097656,2.499622344970703,0.16938209533691406,-0.04793834686279297,-0.011717796325683594,-0.5696048736572266,-0.397705078125,0.6807365417480469,-0.2324514389038086
494,49702996.0,9.360416412353516,-1.4389581680297852,2.5427188873291016,0.16938209533691406,-0.04793834686279297,-0.011717796325683594,-0.5696048736572266,-0.397705078125,0.6807365417480469,-0.2324514389038086
495,49703016.0,9.380767822265625,-1.5347299575805664,2.525959014892578,0.16938209533691406,-0.04793834686279297,-0.011717796325683594,-0.5696048736572266,-0.397705078125,0.6807365417480469,-0.2324514389038086
496,49703036.0,9.441822052001953,-1.4509296417236328,2.53194522857666,0.16938209533691406,-0.04793834686279297,-0.011717796325683594,-0.5696048736572266,-0.397705078125,0.6807365417480469,-0.2324514389038086
497,49703056.0,9.390344619750977,-1.455718994140625,2.473285675048828,0.05006885528564453,-0.021305084228515625,0.0,-0.5696048736572266,-0.397705078125,0.6807365417480469,-0.2324514389038086
498,49703076.0,9.417879104614258,-1.4186077117919922,2.5187768936157227,0.07137489318847656,-0.023435592651367188,-0.0021305084228515625,-0.5696048736572266,-0.397705078125,0.6807365417480469,-0.2324514389038086
499,49703096.0,9.459778785705566,-1.3539619445800781,2.5163822174072266,0.07670116424560547,-0.025567054748535156,-0.013848304748535156,-0.5696048736572266,-0.397705078125,0.6807365417480469,-0.2324514389038086
500,49703116.0,9.457385063171387,-1.3443851470947266,2.5307483673095703,0.057525634765625,-0.01810932159423828,-0.019174575805664062,-0.5696048736572266,-0.397705078125,0.6807365417480469,-0.2324514389038086
501,49703136.0,9.498086929321289,-1.4186077117919922,2.4852561950683594,0.022370338439941406,-0.021305084228515625,-0.021305084228515625,-0.5696048736572266,-0.397705078125,0.6807365417480469,-0.2324514389038086
502,49703160.0,9.392739295959473,-1.4748725891113281,2.4469480514526367,0.022370338439941406,-0.021305084228515625,-0.021305084228515625,-0.5696048736572266,-0.397705078125,0.6807365417480469,-0.2324514389038086
503,49703176.0,9.380767822265625,-1.5610666275024414,2.508002281188965,0.022370338439941406,-0.021305084228515625,-0.021305084228515625,-0.5696048736572266,-0.397705078125,0.6807365417480469,-0.2324514389038086
504,49703196.0,9.480130195617676,-1.3994531631469727,2.539128303527832,0.022370338439941406,-0.021305084228515625,-0.021305084228515625,-0.5696048736572266,-0.397705078125,0.6807365417480469,-0.2324514389038086
505,49703216.0,9.47653865814209,-1.270162582397461,2.4948339462280273,0.022370338439941406,-0.021305084228515625,-0.021305084228515625,-0.5696048736572266,-0.397705078125,0.6807365417480469,-0.2324514389038086
506,49703236.0,9.410696029663086,-1.3982563018798828,2.503213882446289,0.022370338439941406,-0.021305084228515625,-0.021305084228515625,-0.5696048736572266,-0.397705078125,0.6807365417480469,-0.2324514389038086
507,49703256.0,9.387950897216797,-1.4976186752319336,2.4864540100097656,-0.061786651611328125,0.004261016845703125,0.004261016845703125,-0.5696048736572266,-0.397705078125,0.6807365417480469,-0.2324514389038086
508,49703276.0,9.445413589477539,-1.5227584838867188,2.496030807495117,-0.03941535949707031,-0.0010652542114257812,0.007456779479980469,-0.5696048736572266,-0.397705078125,0.6807365417480469,-0.2324514389038086
509,49703296.0,9.510058403015137,-1.3970584869384766,2.4936370849609375,0.025567054748535156,-0.00852203369140625,0.00852203369140625,-0.5696048736572266,-0.397705078125,0.6807365417480469,-0.2324514389038086
510,49703316.0,9.450201988220215,-1.3240337371826172,2.502017021179199,0.042611122131347656,-0.005326271057128906,0.00852203369140625,-0.5696048736572266,-0.397705078125,0.6807365417480469,-0.2324514389038086
511,49703336.0,9.42745590209961,-1.383890151977539,2.4924392700195312,0.005326271057128906,-0.0010652542114257812,0.005326271057128906,-0.5696048736572266,-0.397705078125,0.6807365417480469,-0.2324514389038086
512,49703456.0,9.447807312011719,-1.4892387390136719,2.4469480514526367,-0.01597881317138672,-0.005326271057128906,0.011717796325683594,-0.5662813186645508,-0.4078035354614258,0.6740903854370117,-0.24207592010498047
513,49703476.0,9.471750259399414,-1.5024070739746094,2.3954715728759766,0.004261016845703125,-0.004261016845703125,0.0170440673828125,-0.5662813186645508,-0.4078035354614258,0.6740903854370117,-0.24207592010498047
514,49703496.0,9.440624237060547,-1.5000123977661133,2.369133949279785,0.03621959686279297,-0.010652542114257812,0.033023834228515625,-0.5662813186645508,-0.4078035354614258,0.6740903854370117,-0.24207592010498047
515,49703516.0,9.463370323181152,-1.4868440628051758,2.3715286254882812,0.1033334732055664,-0.022370338439941406,0.02982807159423828,-0.5662813186645508,-0.4078035354614258,0.6740903854370117,-0.24207592010498047
516,49703536.0,9.492101669311523,-1.1935453414916992,2.468496322631836,0.16831684112548828,-0.03515434265136719,0.023435592651367188,-0.5662813186645508,-0.4078035354614258,0.6740903854370117,-0.24207592010498047
517,49703556.0,9.408302307128906,-1.1312942504882812,2.4253997802734375,0.15446758270263672,-0.025567054748535156,0.010652542114257812,-0.5662813186645508,-0.4078035354614258,0.6740903854370117,-0.24207592010498047
518,49703556.0,9.408302307128906,-1.1312942504882812,2.4253997802734375,0.15446758270263672,-0.025567054748535156,0.010652542114257812,-0.5662813186645508,-0.4078035354614258,0.6740903854370117,-0.24207592010498047
519,49703576.0,9.409499168395996,-1.2067136764526367,2.401456832885742,0.04687213897705078,-0.020239830017089844,0.004261016845703125,-0.5662813186645508,-0.4078035354614258,0.6740903854370117,-0.24207592010498047
520,49703576.0,9.409499168395996,-1.2067136764526367,2.401456832885742,0.04687213897705078,-0.020239830017089844,0.004261016845703125,-0.5662813186645508,-0.4078035354614258,0.6740903854370117,-0.24207592010498047
521,49703596.0,9.4968900680542,-1.3360052108764648,2.433779716491699,-0.01597881317138672,-0.030893325805664062,-0.011717796325683594,-0.5662813186645508,-0.4078035354614258,0.6740903854370117,-0.24207592010498047
522,49703596.0,9.4968900680542,-1.3360052108764648,2.433779716491699,-0.01597881317138672,-0.030893325805664062,-0.011717796325683594,-0.5662813186645508,-0.4078035354614258,0.6740903854370117,-0.24207592010498047
523,49703616.0,9.444215774536133,-1.4437475204467773,2.4206113815307617,0.0,-0.024501800537109375,-0.023435592651367188,-0.5662813186645508,-0.4078035354614258,0.6740903854370117,-0.24207592010498047
524,49703616.0,9.444215774536133,-1.4437475204467773,2.4206113815307617,0.0,-0.024501800537109375,-0.023435592651367188,-0.5662813186645508,-0.4078035354614258,0.6740903854370117,-0.24207592010498047
525,49703636.0,9.371191024780273,-1.3671302795410156,2.41103458404541,0.06604766845703125,-0.0287628173828125,-0.022370338439941406,-0.5662813186645508,-0.4078035354614258,0.6740903854370117,-0.24207592010498047
526,49703636.0,9.371191024780273,-1.3671302795410156,2.41103458404541,0.06604766845703125,-0.0287628173828125,-0.022370338439941406,-0.5662813186645508,-0.4078035354614258,0.6740903854370117,-0.24207592010498047
527,49703756.0,9.511256217956543,-1.3192453384399414,2.4948339462280273,0.020239830017089844,-0.026632308959960938,-0.004261016845703125,-0.5662813186645508,-0.4078035354614258,0.6740903854370117,-0.24207592010498047
528,49703756.0,9.511256217956543,-1.3192453384399414,2.4948339462280273,0.020239830017089844,-0.026632308959960938,-0.004261016845703125,-0.5662813186645508,-0.4078035354614258,0.6740903854370117,-0.24207592010498047
529,49703776.0,9.469355583190918,-1.347975730895996,2.5056076049804688,-0.009587287902832031,-0.007456779479980469,-0.0010652542114257812,-0.5662813186645508,-0.4078035354614258,0.6740903854370117,-0.24207592010498047
530,49703776.0,9.469355583190918,-1.347975730895996,2.5056076049804688,-0.009587287902832031,-0.007456779479980469,-0.0010652542114257812,-0.5662813186645508,-0.4078035354614258,0.6740903854370117,-0.24207592010498047
531,49703796.0,9.471750259399414,-1.4329729080200195,2.4900455474853516,-0.026632308959960938,0.0,-0.0010652542114257812,-0.5662813186645508,-0.4078035354614258,0.6740903854370117,-0.24207592010498047
532,49703796.0,9.471750259399414,-1.4329729080200195,2.4900455474853516,-0.026632308959960938,0.0,-0.0010652542114257812,-0.5662813186645508,-0.4078035354614258,0.6740903854370117,-0.24207592010498047
533,49703816.0,9.489706993103027,-1.3707218170166016,2.499622344970703,-0.013848304748535156,-0.0063915252685546875,0.0,-0.5662813186645508,-0.4078035354614258,0.6740903854370117,-0.24207592010498047
534,49703816.0,9.489706993103027,-1.3707218170166016,2.499622344970703,-0.013848304748535156,-0.0063915252685546875,0.0,-0.5662813186645508,-0.4078035354614258,0.6740903854370117,-0.24207592010498047
535,49703836.0,9.490904808044434,-1.3467788696289062,2.499622344970703,0.005326271057128906,-0.0010652542114257812,0.004261016845703125,-0.5662813186645508,-0.4078035354614258,0.6740903854370117,-0.24207592010498047
536,49703836.0,9.490904808044434,-1.3467788696289062,2.499622344970703,0.005326271057128906,-0.0010652542114257812,0.004261016845703125,-0.5662813186645508,-0.4078035354614258,0.6740903854370117,-0.24207592010498047
537,49703856.0,9.52681827545166,-1.298893928527832,2.4565258026123047,0.005326271057128906,-0.0010652542114257812,0.004261016845703125,-0.5662813186645508,-0.4078035354614258,0.6740903854370117,-0.24207592010498047
538,49703876.0,9.432244300842285,-1.3539619445800781,2.4888477325439453,0.005326271057128906,-0.0010652542114257812,0.004261016845703125,-0.5662813186645508,-0.4078035354614258,0.6740903854370117,-0.24207592010498047
539,49703896.0,9.389147758483887,-1.3994531631469727,2.4469480514526367,0.005326271057128906,-0.0010652542114257812,0.004261016845703125,-0.5662813186645508,-0.4078035354614258,0.6740903854370117,-0.24207592010498047
540,49703916.0,9.441822052001953,-1.347975730895996,2.4529342651367188,0.005326271057128906,-0.0010652542114257812,0.004261016845703125,-0.5662813186645508,-0.4078035354614258,0.6740903854370117,-0.24207592010498047
541,49703936.0,9.478933334350586,-1.3108654022216797,2.443356513977051,0.005326271057128906,-0.0010652542114257812,0.004261016845703125,-0.5662813186645508,-0.4078035354614258,0.6740903854370117,-0.24207592010498047
542,49703956.0,9.472947120666504,-1.3084707260131836,2.417019844055176,0.005326271057128906,-0.0010652542114257812,0.004261016845703125,-0.5662813186645508,-0.4078035354614258,0.6740903854370117,-0.24207592010498047
543,49703976.0,9.45618724822998,-1.357553482055664,2.4230051040649414,0.005326271057128906,-0.0010652542114257812,0.004261016845703125,-0.5662813186645508,-0.4078035354614258,0.6740903854370117,-0.24207592010498047
544,49703996.0,9.470553398132324,-1.3755102157592773,2.3942737579345703,0.005326271057128906,-0.0010652542114257812,0.004261016845703125,-0.5662813186645508,-0.4078035354614258,0.6740903854370117,-0.24207592010498047
545,49704016.0,9.452595710754395,-1.3671302795410156,2.4277944564819336,0.005326271057128906,-0.0010652542114257812,0.004261016845703125,-0.5662813186645508,-0.4078035354614258,0.6740903854370117,-0.24207592010498047
546,49704036.0,9.458581924438477,-1.321639060974121,2.4002599716186523,0.005326271057128906,-0.0010652542114257812,0.004261016845703125,-0.5662813186645508,-0.4078035354614258,0.6740903854370117,-0.24207592010498047
547,49704056.0,9.429850578308105,-1.3192453384399414,2.383500099182129,0.0021305084228515625,0.007456779479980469,0.005326271057128906,-0.5662813186645508,-0.4078035354614258,0.6740903854370117,-0.24207592010498047
548,49704072.0,9.440624237060547,-1.3372020721435547,2.442159652709961,-0.007456779479980469,0.004261016845703125,-0.005326271057128906,-0.5662813186645508,-0.4078035354614258,0.6740903854370117,-0.24207592010498047
549,49704096.0,9.443018913269043,-1.3623418807983398,2.3966684341430664,-0.007456779479980469,0.0021305084228515625,-0.011717796325683594,-0.5662813186645508,-0.4078035354614258,0.6740903854370117,-0.24207592010498047
550,49704112.0,9.396330833435059,-1.3623418807983398,2.3954715728759766,-0.011717796325683594,0.0010652542114257812,-0.00852203369140625,-0.5662813186645508,-0.4078035354614258,0.6740903854370117,-0.24207592010498047
551,49704136.0,9.429850578308105,-1.3503704071044922,2.3990631103515625,-0.0010652542114257812,-0.007456779479980469,-0.0063915252685546875,-0.5662813186645508,-0.4078035354614258,0.6740903854370117,-0.24207592010498047
552,49704152.0,9.415484428405762,-1.3383989334106445,2.3858938217163086,0.011717796325683594,-0.004261016845703125,-0.004261016845703125,-0.5662813186645508,-0.4078035354614258,0.6740903854370117,-0.24207592010498047
553,49704176.0,9.447807312011719,-1.2785425186157227,2.4218082427978516,0.005326271057128906,-0.0063915252685546875,-0.009587287902832031,-0.5662813186645508,-0.4078035354614258,0.6740903854370117,-0.24207592010498047
554,49704192.0,9.390344619750977,-1.3312158584594727,2.377513885498047,-0.012783050537109375,-0.0010652542114257812,-0.0063915252685546875,-0.5662813186645508,-0.4078035354614258,0.6740903854370117,-0.24207592010498047
555,49704216.0,9.449005126953125,-1.2426280975341797,2.4146251678466797,-0.0287628173828125,-0.0063915252685546875,-0.0063915252685546875,-0.5662813186645508,-0.4078035354614258,0.6740903854370117,-0.24207592010498047
556,49704232.0,9.516044616699219,-1.357553482055664,2.440962791442871,-0.03728485107421875,-0.0031957626342773438,-0.01597881317138672,-0.5662813186645508,-0.4078035354614258,0.6740903854370117,-0.24207592010498047
557,49704256.0,9.507664680480957,-1.5215606689453125,2.324840545654297,-0.03728485107421875,-0.0031957626342773438,-0.01597881317138672,-0.5662813186645508,-0.4078035354614258,0.6740903854370117,-0.24207592010498047
558,49704256.0,9.507664680480957,-1.5215606689453125,2.324840545654297,-0.03728485107421875,-0.0031957626342773438,-0.01597881317138672,-0.5662813186645508,-0.4078035354614258,0.6740903854370117,-0.24207592010498047
559,49704272.0,9.353233337402344,-1.3048791885375977,2.3846969604492188,-0.03728485107421875,-0.0031957626342773438,-0.01597881317138672,-0.5662813186645508,-0.4078035354614258,0.6740903854370117,-0.24207592010498047
560,49704272.0,9.353233337402344,-1.3048791885375977,2.3846969604492188,-0.03728485107421875,-0.0031957626342773438,-0.01597881317138672,-0.5662813186645508,-0.4078035354614258,0.6740903854370117,-0.24207592010498047
561,49704296.0,9.465764999389648,-1.2677679061889648,2.444554328918457,-0.03728485107421875,-0.0031957626342773438,-0.01597881317138672,-0.5662813186645508,-0.4078035354614258,0.6740903854370117,-0.24207592010498047
562,49704296.0,9.465764999389648,-1.2677679061889648,2.444554328918457,-0.03728485107421875,-0.0031957626342773438,-0.01597881317138672,-0.5662813186645508,-0.4078035354614258,0.6740903854370117,-0.24207592010498047
563,49704312.0,9.573507308959961,-1.136082649230957,2.4589195251464844,-0.03728485107421875,-0.0031957626342773438,-0.01597881317138672,-0.5662813186645508,-0.4078035354614258,0.6740903854370117,-0.24207592010498047
564,49704312.0,9.573507308959961,-1.136082649230957,2.4589195251464844,-0.03728485107421875,-0.0031957626342773438,-0.01597881317138672,-0.5662813186645508,-0.4078035354614258,0.6740903854370117,-0.24207592010498047
565,49704336.0,9.463370323181152,-1.3455820083618164,2.4265966415405273,-0.03728485107421875,-0.0031957626342773438,-0.01597881317138672,-0.5662813186645508,-0.4078035354614258,0.6740903854370117,-0.24207592010498047
