,timestamp,accel_x,accel_y,accel_z,gyro_x,gyro_y,gyro_z,ori_scalar,ori_x,ori_y,ori_z
0,46782612.0,9.18443775177002,-1.0307350158691406,2.0159788131713867,0.18642616271972656,-0.05539512634277344,-0.14274978637695312,0.4285621643066406,0.6173362731933594,-0.4851865768432617,0.4470338821411133
1,46782632.0,9.152114868164062,-1.0163688659667969,2.1428756713867188,0.11185550689697266,-0.045806884765625,-0.15872859954833984,0.4273099899291992,0.617034912109375,-0.48531627655029297,0.4485445022583008
2,46782652.0,9.28499698638916,-1.054677963256836,2.318854331970215,0.030893325805664062,-0.06817817687988281,-0.13955307006835938,0.4266195297241211,0.6163444519042969,-0.485748291015625,0.44966602325439453
3,46782672.0,9.346051216125488,-1.0905914306640625,2.22428035736084,-0.013848304748535156,-0.05859088897705078,-0.09374523162841797,0.42644691467285156,0.6156539916992188,-0.4861793518066406,0.4502706527709961
4,46782692.0,9.073103904724121,-1.132491111755371,2.1763954162597656,-0.0010652542114257812,-0.03835010528564453,-0.04367637634277344,0.42649078369140625,0.6153078079223633,-0.4862661361694336,0.4505729675292969
5,46782712.0,9.003669738769531,-1.2067136764526367,2.2422380447387695,0.053264617919921875,-0.05539512634277344,-0.0063915252685546875,0.42644691467285156,0.6153078079223633,-0.48592090606689453,0.4509611129760742
6,46782732.0,9.298165321350098,-1.0822114944458008,2.348782539367676,0.053264617919921875,-0.05539512634277344,-0.0063915252685546875,0.42644691467285156,0.6153078079223633,-0.48592090606689453,0.4509611129760742
7,46782752.0,9.399922370910645,-0.8332071304321289,2.3715286254882812,0.053264617919921875,-0.05539512634277344,-0.0063915252685546875,0.42644691467285156,0.6153078079223633,-0.48592090606689453,0.4509611129760742
8,46782772.0,9.132960319519043,-0.8990497589111328,2.3344173431396484,0.053264617919921875,-0.05539512634277344,-0.0063915252685546875,0.42644691467285156,0.6153078079223633,-0.48592090606689453,0.4509611129760742
9,46782792.0,9.067117691040039,-1.0355234146118164,2.34279727935791,0.053264617919921875,-0.05539512634277344,-0.0063915252685546875,0.42644691467285156,0.6153078079223633,-0.48592090606689453,0.4509611129760742
10,46782812.0,9.220351219177246,-1.0498886108398438,2.4230051040649414,0.053264617919921875,-0.05539512634277344,-0.0063915252685546875,0.42644691467285156,0.6153078079223633,-0.48592090606689453,0.4509611129760742
11,46782832.0,9.281405448913574,-0.9589061737060547,2.315262794494629,0.053264617919921875,-0.05539512634277344,-0.0063915252685546875,0.42644691467285156,0.6153078079223633,-0.48592090606689453,0.4509611129760742
12,46782952.0,8.99409294128418,-0.956512451171875,2.417019844055176,0.004261016845703125,0.030893325805664062,0.05859088897705078,0.4250659942626953,0.6228179931640625,-0.47651195526123047,0.4520835876464844
13,46782972.0,9.107820510864258,-1.0702400207519531,2.433779716491699,0.004261016845703125,0.030893325805664062,0.05859088897705078,0.4250659942626953,0.6228179931640625,-0.47651195526123047,0.4520835876464844
14,46782992.0,9.213168144226074,-1.0582685470581055,2.347585678100586,0.004261016845703125,0.030893325805664062,0.05859088897705078,0.4250659942626953,0.6228179931640625,-0.47651195526123047,0.4520835876464844
15,46783012.0,9.28499698638916,-1.037917137145996,2.258997917175293,0.004261016845703125,0.030893325805664062,0.05859088897705078,0.4250659942626953,0.6228179931640625,-0.47651195526123047,0.4520835876464844
16,46783032.0,9.21436595916748,-0.9397525787353516,2.2829408645629883,0.004261016845703125,0.030893325805664062,0.05859088897705078,0.4250659942626953,0.6228179931640625,-0.47651195526123047,0.4520835876464844
17,46783152.0,9.04437255859375,-1.1504487991333008,2.3451919555664062,0.0,0.010652542114257812,0.041545867919921875,0.4253253936767578,0.6266593933105469,-0.4737062454223633,0.44940757751464844
18,46783172.0,9.0754976272583,-0.950526237487793,2.266180992126465,0.0,0.010652542114257812,0.041545867919921875,0.4253253936767578,0.6266593933105469,-0.4737062454223633,0.44940757751464844
19,46783192.0,9.063526153564453,-0.9577093124389648,2.22308349609375,0.0,0.010652542114257812,0.041545867919921875,0.4253253936767578,0.6266593933105469,-0.4737062454223633,0.44940757751464844
20,46783212.0,9.155706405639648,-1.015172004699707,2.286531448364258,0.0,0.010652542114257812,0.041545867919921875,0.4253253936767578,0.6266593933105469,-0.4737062454223633,0.44940757751464844
21,46783232.0,9.120988845825195,-1.132491111755371,2.328432083129883,0.0,0.010652542114257812,0.041545867919921875,0.4253253936767578,0.6266593933105469,-0.4737062454223633,0.44940757751464844
22,46783448.0,9.136551856994629,-1.116929054260254,2.2721662521362305,-0.004261016845703125,-0.004261016845703125,0.00852203369140625,0.42420291900634766,0.6284713745117188,-0.47249794006347656,0.4492349624633789
23,46783472.0,9.052752494812012,-1.0869998931884766,2.3116722106933594,0.005326271057128906,0.0170440673828125,0.045806884765625,0.42420291900634766,0.6284713745117188,-0.47249794006347656,0.4492349624633789
24,46783488.0,9.194014549255371,-1.136082649230957,2.390683174133301,-0.022370338439941406,0.0,0.02769756317138672,0.42420291900634766,0.6284713745117188,-0.47249794006347656,0.4492349624633789
25,46783512.0,9.160494804382324,-1.054677963256836,2.2949113845825195,-0.019174575805664062,-0.005326271057128906,0.012783050537109375,0.42420291900634766,0.6284713745117188,-0.47249794006347656,0.4492349624633789
26,46783528.0,9.02402114868164,-1.0678462982177734,2.254209518432617,-0.025567054748535156,0.0063915252685546875,0.004261016845703125,0.42420291900634766,0.6284713745117188,-0.47249794006347656,0.4492349624633789
27,46783552.0,8.99768352508545,-1.1013660430908203,2.310474395751953,-0.03941535949707031,0.0021305084228515625,0.0021305084228515625,0.42420291900634766,0.6284713745117188,-0.47249794006347656,0.4492349624633789
28,46783568.0,9.107820510864258,-1.1265058517456055,2.354768753051758,-0.026632308959960938,-0.012783050537109375,0.004261016845703125,0.42627429962158203,0.6301975250244141,-0.4709444046020508,0.4464731216430664
29,46783592.0,9.191619873046875,-1.0702400207519531,2.3344173431396484,-0.010652542114257812,-0.020239830017089844,0.005326271057128906,0.42644691467285156,0.6301116943359375,-0.4709444046020508,0.4464731216430664
30,46783608.0,9.050357818603516,-0.9960174560546875,2.2709693908691406,-0.013848304748535156,-0.0031957626342773438,0.004261016845703125,0.42644691467285156,0.6300687789916992,-0.47098731994628906,0.4464731216430664
31,46783632.0,9.086272239685059,-1.1253089904785156,2.328432083129883,-0.04687213897705078,-0.0021305084228515625,-0.0010652542114257812,0.4266633987426758,0.6298961639404297,-0.4711599349975586,0.4462566375732422
32,46783748.0,9.130566596984863,-1.2126998901367188,2.3607540130615234,-0.061786651611328125,-0.01597881317138672,-0.005326271057128906,0.42895030975341797,0.6284284591674805,-0.4726276397705078,0.4446601867675781
33,46783768.0,8.989303588867188,-1.1612224578857422,2.3451919555664062,-0.03621959686279297,-0.0031957626342773438,0.013848304748535156,0.42895030975341797,0.6284284591674805,-0.4726276397705078,0.4446601867675781
34,46783788.0,8.851633071899414,-1.1217174530029297,2.3092775344848633,-0.022370338439941406,0.004261016845703125,0.0170440673828125,0.42895030975341797,0.6284284591674805,-0.4726276397705078,0.4446601867675781
35,46783808.0,8.956981658935547,-1.2869224548339844,2.2733631134033203,-0.025567054748535156,-0.009587287902832031,0.007456779479980469,0.42895030975341797,0.6284284591674805,-0.4726276397705078,0.4446601867675781
36,46783828.0,9.16767692565918,-1.3563566207885742,2.248223304748535,-0.011717796325683594,-0.02769756317138672,0.0010652542114257812,0.42895030975341797,0.6284284591674805,-0.4726276397705078,0.4446601867675781
37,46783948.0,9.282602310180664,-1.3707218170166016,2.381105422973633,0.020239830017089844,-0.021305084228515625,-0.0170440673828125,0.4303312301635742,0.6288604736328125,-0.47098731994628906,0.4444875717163086
38,46783968.0,9.182043075561523,-1.3407936096191406,2.439764976501465,0.07244014739990234,-0.013848304748535156,0.03835010528564453,0.4303312301635742,0.6288604736328125,-0.47098731994628906,0.4444875717163086
39,46783988.0,9.1868314743042,-1.426987648010254,2.5056076049804688,0.03941535949707031,-0.007456779479980469,0.04793834686279297,0.4303312301635742,0.6288604736328125,-0.47098731994628906,0.4444875717163086
40,46784008.0,9.308939933776855,-1.3467788696289062,2.554690361022949,0.05006885528564453,-0.013848304748535156,0.06711292266845703,0.4303312301635742,0.6288604736328125,-0.47098731994628906,0.4444875717163086
41,46784028.0,9.201197624206543,-1.295302391052246,2.4876508712768555,0.06604766845703125,0.013848304748535156,0.07670116424560547,0.4303312301635742,0.6288604736328125,-0.47098731994628906,0.4444875717163086
42,46784148.0,9.156903266906738,-1.5431098937988281,2.511593818664551,0.04474163055419922,0.040480613708496094,0.09374523162841797,0.4298133850097656,0.637578010559082,-0.46529102325439453,0.4384450912475586
43,46784168.0,9.23591423034668,-1.3719186782836914,2.588210105895996,0.04474163055419922,0.040480613708496094,0.09374523162841797,0.4298133850097656,0.637578010559082,-0.46529102325439453,0.4384450912475586
44,46784188.0,9.330488204956055,-1.3096675872802734,2.4146251678466797,0.04474163055419922,0.040480613708496094,0.09374523162841797,0.4298133850097656,0.637578010559082,-0.46529102325439453,0.4384450912475586
45,46784208.0,9.246688842773438,-1.387481689453125,2.346388816833496,0.04474163055419922,0.040480613708496094,0.09374523162841797,0.4298133850097656,0.637578010559082,-0.46529102325439453,0.4384450912475586
46,46784228.0,9.020429611206055,-1.5059986114501953,2.437371253967285,0.04474163055419922,0.040480613708496094,0.09374523162841797,0.4298133850097656,0.637578010559082,-0.46529102325439453,0.4384450912475586
47,46784348.0,8.940220832824707,-1.6137409210205078,2.468496322631836,0.12357425689697266,0.10120296478271484,0.15659809112548828,0.4303312301635742,0.6505250930786133,-0.4605436325073242,0.42377185821533203
48,46784368.0,8.865999221801758,-1.7478199005126953,2.569056510925293,0.12357425689697266,0.10120296478271484,0.15659809112548828,0.4303312301635742,0.6505250930786133,-0.4605436325073242,0.42377185821533203
49,46784388.0,8.80494499206543,-1.7705659866333008,2.564268112182617,0.12357425689697266,0.10120296478271484,0.15659809112548828,0.4303312301635742,0.6505250930786133,-0.4605436325073242,0.42377185821533203
50,46784408.0,8.885152816772461,-1.7286663055419922,2.5846195220947266,0.12357425689697266,0.10120296478271484,0.15659809112548828,0.4303312301635742,0.6505250930786133,-0.4605436325073242,0.42377185821533203
51,46784428.0,9.059934616088867,-1.8088741302490234,2.6073646545410156,0.12357425689697266,0.10120296478271484,0.15659809112548828,0.4303312301635742,0.6505250930786133,-0.4605436325073242,0.42377185821533203
52,46784448.0,8.991698265075684,-1.828028678894043,2.5894079208374023,0.12357425689697266,0.10120296478271484,0.15659809112548828,0.4303312301635742,0.6505250930786133,-0.4605436325073242,0.42377185821533203
53,46784464.0,8.842056274414062,-1.9142217636108398,2.630110740661621,-0.08948421478271484,0.0916147232055664,0.07776641845703125,0.4303312301635742,0.6505250930786133,-0.4605436325073242,0.42377185821533203
54,46784488.0,8.75466537475586,-1.9585161209106445,2.616941452026367,-0.13422679901123047,0.08522319793701172,0.08735370635986328,0.4303312301635742,0.6505250930786133,-0.4605436325073242,0.42377185821533203
55,46784504.0,8.675653457641602,-1.9956274032592773,2.6803903579711914,-0.1374225616455078,0.0692434310913086,0.10120296478271484,0.4303312301635742,0.6505250930786133,-0.4605436325073242,0.42377185821533203
56,46784528.0,8.730722427368164,-2.005204200744629,2.72109317779541,-0.11185550689697266,0.05646038055419922,0.12037849426269531,0.4303312301635742,0.6505250930786133,-0.4605436325073242,0.42377185821533203
57,46784648.0,8.802550315856934,-1.915419578552246,2.7869348526000977,-0.06711292266845703,0.00852203369140625,0.0809621810913086,0.43676185607910156,0.6601934432983398,-0.45519161224365234,0.40767383575439453
58,46784668.0,8.723539352416992,-2.0207672119140625,2.8599605560302734,-0.06711292266845703,0.00852203369140625,0.0809621810913086,0.43676185607910156,0.6601934432983398,-0.45519161224365234,0.40767383575439453
59,46784688.0,8.729525566101074,-2.0542869567871094,2.938971519470215,-0.06711292266845703,0.00852203369140625,0.0809621810913086,0.43676185607910156,0.6601934432983398,-0.45519161224365234,0.40767383575439453
60,46784704.0,8.818113327026367,-1.8627452850341797,2.904254913330078,-0.06711292266845703,0.00852203369140625,0.0809621810913086,0.43676185607910156,0.6601934432983398,-0.45519161224365234,0.40767383575439453
61,46784728.0,8.790578842163086,-1.8004941940307617,2.8048925399780273,-0.06711292266845703,0.00852203369140625,0.0809621810913086,0.43676185607910156,0.6601934432983398,-0.45519161224365234,0.40767383575439453
62,46784744.0,8.652908325195312,-1.884293556213379,2.806089401245117,-0.06711292266845703,0.00852203369140625,0.0809621810913086,0.43676185607910156,0.6601934432983398,-0.45519161224365234,0.40767383575439453
63,46784768.0,8.723539352416992,-1.9082365036010742,2.8515806198120117,0.040480613708496094,-0.007456779479980469,-0.026632308959960938,0.43676185607910156,0.6601934432983398,-0.45519161224365234,0.40767383575439453
64,46784784.0,8.895927429199219,-1.9477424621582031,2.8048925399780273,0.052199363708496094,-0.02982807159423828,-0.04900360107421875,0.43676185607910156,0.6601934432983398,-0.45519161224365234,0.40767383575439453
65,46784804.0,8.97733211517334,-1.9537277221679688,2.7342615127563477,0.07244014739990234,-0.03941535949707031,-0.05006885528564453,0.43676185607910156,0.6601934432983398,-0.45519161224365234,0.40767383575439453
66,46784824.0,8.899518966674805,-1.9345731735229492,2.777358055114746,0.11292076110839844,-0.033023834228515625,-0.05646038055419922,0.43676185607910156,0.6601934432983398,-0.45519161224365234,0.40767383575439453
67,46784844.0,8.8336763381958,-1.9345731735229492,2.8228492736816406,0.12783527374267578,-0.03515434265136719,-0.06604766845703125,0.43676185607910156,0.6601934432983398,-0.45519161224365234,0.40767383575439453
68,46784864.0,8.757059097290039,-1.8747167587280273,2.8276376724243164,0.1331615447998047,-0.034089088439941406,-0.07883167266845703,0.43676185607910156,0.6601934432983398,-0.45519161224365234,0.40767383575439453
69,46784884.0,8.880364418029785,-1.7729597091674805,2.754612922668457,0.1214437484741211,-0.025567054748535156,-0.07670116424560547,0.43676185607910156,0.6601934432983398,-0.45519161224365234,0.40767383575439453
70,46784904.0,8.814521789550781,-1.8112688064575195,2.7103185653686523,0.05965614318847656,-0.014913558959960938,-0.07350540161132812,0.43676185607910156,0.6601934432983398,-0.45519161224365234,0.40767383575439453
71,46784924.0,8.363201141357422,-1.9058418273925781,2.7677812576293945,-0.007456779479980469,0.02769756317138672,-0.06817817687988281,0.43676185607910156,0.6601934432983398,-0.45519161224365234,0.40767383575439453
72,46784944.0,8.28538703918457,-1.9070396423339844,2.754612922668457,-0.0021305084228515625,0.022370338439941406,-0.04687213897705078,0.43676185607910156,0.6601934432983398,-0.45519161224365234,0.40767383575439453
73,46784944.0,8.28538703918457,-1.9070396423339844,2.754612922668457,-0.0021305084228515625,0.022370338439941406,-0.04687213897705078,0.43676185607910156,0.6601934432983398,-0.45519161224365234,0.40767383575439453
74,46784968.0,8.509251594543457,-1.8304224014282227,2.6684188842773438,-0.0021305084228515625,0.022370338439941406,-0.04687213897705078,0.43676185607910156,0.6601934432983398,-0.45519161224365234,0.40767383575439453
75,46784968.0,8.509251594543457,-1.8304224014282227,2.6684188842773438,-0.0021305084228515625,0.022370338439941406,-0.04687213897705078,0.43676185607910156,0.6601934432983398,-0.45519161224365234,0.40767383575439453
76,46784984.0,8.682836532592773,-1.7406368255615234,2.6049699783325195,-0.0021305084228515625,0.022370338439941406,-0.04687213897705078,0.43676185607910156,0.6601934432983398,-0.45519161224365234,0.40767383575439453
77,46784984.0,8.682836532592773,-1.7406368255615234,2.6049699783325195,-0.0021305084228515625,0.022370338439941406,-0.04687213897705078,0.43676185607910156,0.6601934432983398,-0.45519161224365234,0.40767383575439453
78,46785004.0,8.910292625427246,-1.7202863693237305,2.5678586959838867,-0.0021305084228515625,0.022370338439941406,-0.04687213897705078,0.43676185607910156,0.6601934432983398,-0.45519161224365234,0.40767383575439453
79,46785004.0,8.910292625427246,-1.7202863693237305,2.5678586959838867,-0.0021305084228515625,0.022370338439941406,-0.04687213897705078,0.43676185607910156,0.6601934432983398,-0.45519161224365234,0.40767383575439453
80,46785024.0,9.07669448852539,-1.8016910552978516,2.6001815795898438,-0.0021305084228515625,0.022370338439941406,-0.04687213897705078,0.43676185607910156,0.6601934432983398,-0.45519161224365234,0.40767383575439453
81,46785024.0,9.07669448852539,-1.8016910552978516,2.6001815795898438,-0.0021305084228515625,0.022370338439941406,-0.04687213897705078,0.43676185607910156,0.6601934432983398,-0.45519161224365234,0.40767383575439453
82,46785044.0,9.09345531463623,-1.8519706726074219,2.595393180847168,-0.0021305084228515625,0.022370338439941406,-0.04687213897705078,0.43676185607910156,0.6601934432983398,-0.45519161224365234,0.40767383575439453
83,46785064.0,9.067117691040039,-1.880702018737793,2.564268112182617,-0.07030868530273438,-0.010652542114257812,-0.07883167266845703,0.43676185607910156,0.6601934432983398,-0.45519161224365234,0.40767383575439453
84,46785084.0,8.873181343078613,-1.822042465209961,2.572648048400879,-0.042611122131347656,-0.01810932159423828,-0.07244014739990234,0.43676185607910156,0.6601934432983398,-0.45519161224365234,0.40767383575439453
85,46785104.0,8.646923065185547,-1.824437141418457,2.596590042114258,-0.0170440673828125,-0.024501800537109375,-0.07989692687988281,0.43676185607910156,0.6601934432983398,-0.45519161224365234,0.40767383575439453
86,46785124.0,8.724736213684082,-1.8651399612426758,2.6157445907592773,0.019174575805664062,-0.04687213897705078,-0.08841896057128906,0.43676185607910156,0.6601934432983398,-0.45519161224365234,0.40767383575439453
87,46785144.0,8.880364418029785,-1.8316192626953125,2.779752731323242,0.045806884765625,-0.061786651611328125,-0.0862884521484375,0.43676185607910156,0.6601934432983398,-0.45519161224365234,0.40767383575439453
88,46785144.0,8.880364418029785,-1.8316192626953125,2.779752731323242,0.045806884765625,-0.061786651611328125,-0.0862884521484375,0.43676185607910156,0.6601934432983398,-0.45519161224365234,0.40767383575439453
89,46785164.0,8.73431396484375,-1.6412744522094727,2.7989063262939453,0.034089088439941406,-0.034089088439941406,-0.08415794372558594,0.43676185607910156,0.6601934432983398,-0.45519161224365234,0.40767383575439453
90,46785164.0,8.73431396484375,-1.6412744522094727,2.7989063262939453,0.034089088439941406,-0.034089088439941406,-0.08415794372558594,0.43676185607910156,0.6601934432983398,-0.45519161224365234,0.40767383575439453
91,46785184.0,8.693611145019531,-1.6867656707763672,2.7091217041015625,-0.041545867919921875,-0.010652542114257812,-0.07350540161132812,0.43676185607910156,0.6601934432983398,-0.45519161224365234,0.40767383575439453
92,46785184.0,8.693611145019531,-1.6867656707763672,2.7091217041015625,-0.041545867919921875,-0.010652542114257812,-0.07350540161132812,0.43676185607910156,0.6601934432983398,-0.45519161224365234,0.40767383575439453
93,46785204.0,8.831281661987305,-1.883096694946289,2.717501640319824,-0.12996578216552734,-0.01597881317138672,-0.05646038055419922,0.43676185607910156,0.6601934432983398,-0.45519161224365234,0.40767383575439453
94,46785204.0,8.831281661987305,-1.883096694946289,2.717501640319824,-0.12996578216552734,-0.01597881317138672,-0.05646038055419922,0.43676185607910156,0.6601934432983398,-0.45519161224365234,0.40767383575439453
95,46785224.0,9.032401084899902,-1.8316192626953125,2.7079238891601562,-0.1491413116455078,-0.010652542114257812,-0.04687213897705078,0.43676185607910156,0.6601934432983398,-0.45519161224365234,0.40767383575439453
96,46785224.0,9.032401084899902,-1.8316192626953125,2.7079238891601562,-0.1491413116455078,-0.010652542114257812,-0.04687213897705078,0.43676185607910156,0.6601934432983398,-0.45519161224365234,0.40767383575439453
97,46785244.0,9.135354995727539,-1.8172540664672852,2.717501640319824,-0.14168357849121094,-0.0021305084228515625,-0.041545867919921875,0.43676185607910156,0.6601934432983398,-0.45519161224365234,0.40767383575439453
98,46785264.0,9.172466278076172,-1.818450927734375,2.7306699752807617,-0.14168357849121094,-0.0021305084228515625,-0.041545867919921875,0.43676185607910156,0.6601934432983398,-0.45519161224365234,0.40767383575439453
99,46785284.0,9.049160957336426,-1.9561223983764648,2.693558692932129,-0.14168357849121094,-0.0021305084228515625,-0.041545867919921875,0.43676185607910156,0.6601934432983398,-0.45519161224365234,0.40767383575439453
100,46785304.0,9.013246536254883,-1.9345731735229492,2.6660242080688477,-0.14168357849121094,-0.0021305084228515625,-0.041545867919921875,0.43676185607910156,0.6601934432983398,-0.45519161224365234,0.40767383575439453
101,46785320.0,9.032401084899902,-1.8914766311645508,2.6372928619384766,-0.14168357849121094,-0.0021305084228515625,-0.041545867919921875,0.43676185607910156,0.6601934432983398,-0.45519161224365234,0.40767383575439453
102,46785344.0,9.007261276245117,-1.7969026565551758,2.6049699783325195,-0.14168357849121094,-0.0021305084228515625,-0.041545867919921875,0.43676185607910156,0.6601934432983398,-0.45519161224365234,0.40767383575439453
103,46785344.0,9.007261276245117,-1.7969026565551758,2.6049699783325195,-0.14168357849121094,-0.0021305084228515625,-0.041545867919921875,0.43676185607910156,0.6601934432983398,-0.45519161224365234,0.40767383575439453
104,46785364.0,8.865999221801758,-1.847182273864746,2.6157445907592773,-0.08415794372558594,-0.0170440673828125,0.02769756317138672,0.43676185607910156,0.6601934432983398,-0.45519161224365234,0.40767383575439453
105,46785364.0,8.865999221801758,-1.847182273864746,2.6157445907592773,-0.08415794372558594,-0.0170440673828125,0.02769756317138672,0.43676185607910156,0.6601934432983398,-0.45519161224365234,0.40767383575439453
106,46785384.0,8.891139030456543,-1.8818998336791992,2.6337013244628906,-0.11505126953125,-0.02982807159423828,0.024501800537109375,0.43676185607910156,0.6601934432983398,-0.45519161224365234,0.40767383575439453
107,46785384.0,8.891139030456543,-1.8818998336791992,2.6337013244628906,-0.11505126953125,-0.02982807159423828,0.024501800537109375,0.43676185607910156,0.6601934432983398,-0.45519161224365234,0.40767383575439453
108,46785404.0,8.967755317687988,-1.9357709884643555,2.631307601928711,-0.0980072021484375,-0.054329872131347656,0.010652542114257812,0.43676185607910156,0.6601934432983398,-0.45519161224365234,0.40767383575439453
109,46785404.0,8.967755317687988,-1.9357709884643555,2.631307601928711,-0.0980072021484375,-0.054329872131347656,0.010652542114257812,0.43676185607910156,0.6601934432983398,-0.45519161224365234,0.40767383575439453
110,46785424.0,8.947403907775879,-1.919011116027832,2.631307601928711,-0.06817817687988281,-0.05539512634277344,0.012783050537109375,0.43676185607910156,0.6601934432983398,-0.45519161224365234,0.40767383575439453
111,46785424.0,8.947403907775879,-1.919011116027832,2.631307601928711,-0.06817817687988281,-0.05539512634277344,0.012783050537109375,0.43676185607910156,0.6601934432983398,-0.45519161224365234,0.40767383575439453
112,46785544.0,8.867196083068848,-1.8316192626953125,2.7127132415771484,-0.054329872131347656,-0.061786651611328125,0.0170440673828125,0.43676185607910156,0.6601934432983398,-0.45519161224365234,0.40767383575439453
113,46785564.0,8.911490440368652,-1.9010534286499023,2.6983470916748047,-0.0031957626342773438,-0.054329872131347656,-0.005326271057128906,0.43676185607910156,0.6601934432983398,-0.45519161224365234,0.40767383575439453
114,46785584.0,8.948601722717285,-1.9573192596435547,2.7402467727661133,-0.022370338439941406,-0.05539512634277344,-0.023435592651367188,0.43676185607910156,0.6601934432983398,-0.45519161224365234,0.40767383575439453
115,46785604.0,8.948601722717285,-1.9142217636108398,2.7318668365478516,-0.01597881317138672,-0.04367637634277344,-0.03728485107421875,0.43676185607910156,0.6601934432983398,-0.45519161224365234,0.40767383575439453
116,46785624.0,8.877969741821289,-2.0016136169433594,2.7677812576293945,-0.012783050537109375,-0.03941535949707031,-0.040480613708496094,0.43676185607910156,0.6601934432983398,-0.45519161224365234,0.40767383575439453
117,46785640.0,8.860013008117676,-2.039921760559082,2.711515426635742,-0.004261016845703125,-0.03728485107421875,-0.034089088439941406,0.43676185607910156,0.6601934432983398,-0.45519161224365234,0.40767383575439453
118,46785664.0,8.8767728805542,-2.036330223083496,2.7330636978149414,0.03515434265136719,-0.03515434265136719,-0.02769756317138672,0.43676185607910156,0.6601934432983398,-0.45519161224365234,0.40767383575439453
119,46785680.0,8.97493839263916,-2.038724899291992,2.7318668365478516,0.07030868530273438,-0.034089088439941406,-0.011717796325683594,0.43676185607910156,0.6601934432983398,-0.45519161224365234,0.40767383575439453
120,46785704.0,9.04676628112793,-1.9381647109985352,2.667222023010254,0.08735370635986328,-0.0287628173828125,0.005326271057128906,0.43676185607910156,0.6601934432983398,-0.45519161224365234,0.40767383575439453
121,46785720.0,9.002472877502441,-1.8890819549560547,2.6480674743652344,0.06817817687988281,-0.00852203369140625,0.01597881317138672,0.43676185607910156,0.6601934432983398,-0.45519161224365234,0.40767383575439453
122,46785744.0,9.033597946166992,-1.9740791320800781,2.656447410583496,0.022370338439941406,-0.0021305084228515625,0.02769756317138672,0.43676185607910156,0.6601934432983398,-0.45519161224365234,0.40767383575439453
123,46785760.0,9.027612686157227,-1.952530860900879,2.661235809326172,0.019174575805664062,0.004261016845703125,0.040480613708496094,0.43676185607910156,0.6601934432983398,-0.45519161224365234,0.40767383575439453
124,46785784.0,9.059934616088867,-1.9082365036010742,2.598984718322754,0.03621959686279297,0.007456779479980469,0.057525634765625,0.43676185607910156,0.6601934432983398,-0.45519161224365234,0.40767383575439453
125,46785800.0,9.02641487121582,-1.848379135131836,2.596590042114258,0.023435592651367188,0.011717796325683594,0.06711292266845703,0.43676185607910156,0.6601934432983398,-0.45519161224365234,0.40767383575439453
126,46785824.0,8.889941215515137,-1.8675336837768555,2.60257625579834,0.004261016845703125,0.022370338439941406,0.0692434310913086,0.43676185607910156,0.6601934432983398,-0.45519161224365234,0.40767383575439453
127,46785840.0,8.781002044677734,-1.8292255401611328,2.6396875381469727,0.012783050537109375,0.0287628173828125,0.0692434310913086,0.43676185607910156,0.6601934432983398,-0.45519161224365234,0.40767383575439453
128,46785864.0,8.763045310974121,-1.7849311828613281,2.53433895111084,0.012783050537109375,0.0287628173828125,0.0692434310913086,0.43676185607910156,0.6601934432983398,-0.45519161224365234,0.40767383575439453
129,46785880.0,8.821704864501953,-1.7047233581542969,2.4768762588500977,0.012783050537109375,0.0287628173828125,0.0692434310913086,0.43676185607910156,0.6601934432983398,-0.45519161224365234,0.40767383575439453
130,46785904.0,8.842056274414062,-1.7753543853759766,2.510396957397461,0.012783050537109375,0.0287628173828125,0.0692434310913086,0.43676185607910156,0.6601934432983398,-0.45519161224365234,0.40767383575439453
131,46785920.0,8.907898902893066,-1.8687305450439453,2.528353691101074,0.012783050537109375,0.0287628173828125,0.0692434310913086,0.43676185607910156,0.6601934432983398,-0.45519161224365234,0.40767383575439453
132,46786040.0,8.848041534423828,-1.886688232421875,2.572648048400879,-0.004261016845703125,-0.0010652542114257812,-0.033023834228515625,0.4390068054199219,0.6531581878662109,-0.4575653076171875,0.41388797760009766
133,46786060.0,8.877969741821289,-1.880702018737793,2.6372928619384766,-0.004261016845703125,-0.0010652542114257812,-0.033023834228515625,0.4390068054199219,0.6531581878662109,-0.4575653076171875,0.41388797760009766
134,46786080.0,8.880364418029785,-1.9178133010864258,2.664827346801758,-0.004261016845703125,-0.0010652542114257812,-0.033023834228515625,0.4390068054199219,0.6531581878662109,-0.4575653076171875,0.41388797760009766
135,46786100.0,8.928250312805176,-1.9178133010864258,2.634899139404297,-0.004261016845703125,-0.0010652542114257812,-0.033023834228515625,0.4390068054199219,0.6531581878662109,-0.4575653076171875,0.41388797760009766
136,46786120.0,9.002472877502441,-1.8615484237670898,2.6552505493164062,-0.004261016845703125,-0.0010652542114257812,-0.033023834228515625,0.4390068054199219,0.6531581878662109,-0.4575653076171875,0.41388797760009766
137,46786140.0,8.980923652648926,-1.7969026565551758,2.6360960006713867,-0.004261016845703125,-0.0010652542114257812,-0.033023834228515625,0.4390068054199219,0.6531581878662109,-0.4575653076171875,0.41388797760009766
138,46786160.0,8.936630249023438,-1.8040857315063477,2.679192543029785,0.024501800537109375,-0.012783050537109375,0.011717796325683594,0.4390068054199219,0.6531581878662109,-0.4575653076171875,0.41388797760009766
139,46786180.0,8.90550422668457,-1.8627452850341797,2.700741767883301,0.014913558959960938,-0.01810932159423828,0.00852203369140625,0.4390068054199219,0.6531581878662109,-0.4575653076171875,0.41388797760009766
140,46786200.0,8.852829933166504,-1.8447885513305664,2.6396875381469727,0.02982807159423828,-0.01810932159423828,0.007456779479980469,0.4390068054199219,0.6531581878662109,-0.4575653076171875,0.41388797760009766
141,46786220.0,8.851633071899414,-1.8399991989135742,2.6001815795898438,0.03515434265136719,-0.020239830017089844,0.011717796325683594,0.4390068054199219,0.6531581878662109,-0.4575653076171875,0.41388797760009766
142,46786240.0,8.7869873046875,-1.8399991989135742,2.6396875381469727,0.020239830017089844,-0.00852203369140625,0.012783050537109375,0.4390068054199219,0.6531581878662109,-0.4575653076171875,0.41388797760009766
143,46786260.0,8.85402774810791,-1.9106311798095703,2.6109561920166016,0.0031957626342773438,-0.0063915252685546875,0.01810932159423828,0.4390068054199219,0.6531581878662109,-0.4575653076171875,0.41388797760009766
144,46786280.0,8.950995445251465,-1.9118280410766602,2.563070297241211,0.0031957626342773438,-0.0063915252685546875,0.01810932159423828,0.4389629364013672,0.6535463333129883,-0.4560546875,0.41496753692626953
145,46786300.0,8.916278839111328,-1.9226016998291016,2.572648048400879,0.0031957626342773438,-0.0063915252685546875,0.01810932159423828,0.43904972076416016,0.6537189483642578,-0.45570945739746094,0.41496753692626953
146,46786320.0,8.922264099121094,-1.8699283599853516,2.5786333084106445,0.0031957626342773438,-0.0063915252685546875,0.01810932159423828,0.43904972076416016,0.6540212631225586,-0.4552345275878906,0.41496753692626953
147,46786340.0,8.950995445251465,-1.7933111190795898,2.606167793273926,0.0031957626342773438,-0.0063915252685546875,0.01810932159423828,0.43904972076416016,0.6543664932250977,-0.45471668243408203,0.41514015197753906
148,46786360.0,8.9450101852417,-1.8388023376464844,2.6145477294921875,0.033023834228515625,-0.020239830017089844,0.02769756317138672,0.43904972076416016,0.6543664932250977,-0.45471668243408203,0.41514015197753906
149,46786380.0,8.942615509033203,-1.7909173965454102,2.620532989501953,0.01810932159423828,-0.021305084228515625,0.010652542114257812,0.43904972076416016,0.6543664932250977,-0.45471668243408203,0.41514015197753906
150,46786400.0,8.968952178955078,-1.7980995178222656,2.6815872192382812,0.011717796325683594,-0.02769756317138672,-0.012783050537109375,0.43904972076416016,0.6543664932250977,-0.45471668243408203,0.41514015197753906
151,46786420.0,8.933038711547852,-1.8076772689819336,2.6408843994140625,-0.010652542114257812,-0.023435592651367188,-0.031958580017089844,0.43904972076416016,0.6543664932250977,-0.45471668243408203,0.41514015197753906
152,46786440.0,8.860013008117676,-1.8316192626953125,2.625321388244629,-0.03728485107421875,-0.022370338439941406,-0.04793834686279297,0.43904972076416016,0.6543664932250977,-0.45471668243408203,0.41514015197753906
153,46786560.0,8.867196083068848,-1.8435907363891602,2.6157445907592773,-0.023435592651367188,-0.0063915252685546875,-0.013848304748535156,0.43904972076416016,0.6543664932250977,-0.45471668243408203,0.41514015197753906
154,46786580.0,8.860013008117676,-1.884293556213379,2.616941452026367,-0.021305084228515625,0.005326271057128906,-0.005326271057128906,0.43904972076416016,0.6543664932250977,-0.45471668243408203,0.41514015197753906
155,46786600.0,8.978529930114746,-1.8064794540405273,2.5151853561401367,0.020239830017089844,-0.005326271057128906,0.0031957626342773438,0.43904972076416016,0.6543664932250977,-0.45471668243408203,0.41514015197753906
156,46786620.0,8.984515190124512,-1.727468490600586,2.53194522857666,0.033023834228515625,-0.0031957626342773438,0.0021305084228515625,0.43904972076416016,0.6543664932250977,-0.45471668243408203,0.41514015197753906
157,46786640.0,8.99409294128418,-1.765777587890625,2.469694137573242,0.009587287902832031,0.005326271057128906,0.0021305084228515625,0.43904972076416016,0.6543664932250977,-0.45471668243408203,0.41514015197753906
158,46786660.0,9.037189483642578,-1.814859390258789,2.4529342651367188,-0.01597881317138672,0.0,0.0031957626342773438,0.43904972076416016,0.6543664932250977,-0.45471668243408203,0.41514015197753906
159,46786680.0,8.971346855163574,-1.828028678894043,2.439764976501465,-0.007456779479980469,-0.005326271057128906,0.007456779479980469,0.43904972076416016,0.6543664932250977,-0.45471668243408203,0.41514015197753906
160,46786700.0,8.972543716430664,-1.8100709915161133,2.469694137573242,0.005326271057128906,-0.014913558959960938,0.013848304748535156,0.43904972076416016,0.6543664932250977,-0.45471668243408203,0.41514015197753906
161,46786720.0,8.953390121459961,-1.7849311828613281,2.478074073791504,0.0063915252685546875,-0.024501800537109375,0.0170440673828125,0.43904972076416016,0.6543664932250977,-0.45471668243408203,0.41514015197753906
162,46786740.0,8.899518966674805,-1.8519706726074219,2.506805419921875,-0.010652542114257812,-0.02769756317138672,0.019174575805664062,0.43904972076416016,0.6543664932250977,-0.45471668243408203,0.41514015197753906
163,46786760.0,8.928250312805176,-1.8878850936889648,2.4840593338012695,-0.011717796325683594,-0.034089088439941406,0.019174575805664062,0.43904972076416016,0.6543664932250977,-0.45471668243408203,0.41514015197753906
164,46786780.0,8.936630249023438,-1.8388023376464844,2.5834217071533203,-0.011717796325683594,-0.034089088439941406,0.019174575805664062,0.43904972076416016,0.6543664932250977,-0.45471668243408203,0.41514015197753906
165,46786800.0,8.986909866333008,-1.8364086151123047,2.5798301696777344,-0.011717796325683594,-0.034089088439941406,0.019174575805664062,0.43904972076416016,0.6543664932250977,-0.45471668243408203,0.41514015197753906
166,46786816.0,8.937827110290527,-1.7945079803466797,2.5427188873291016,-0.011717796325683594,-0.034089088439941406,0.019174575805664062,0.43904972076416016,0.6543664932250977,-0.45471668243408203,0.41514015197753906
167,46786840.0,8.881561279296875,-1.8459854125976562,2.5678586959838867,-0.011717796325683594,-0.034089088439941406,0.019174575805664062,0.43904972076416016,0.6543664932250977,-0.45471668243408203,0.41514015197753906
168,46786860.0,8.893532752990723,-1.883096694946289,2.624124526977539,-0.011717796325683594,-0.034089088439941406,0.019174575805664062,0.43904972076416016,0.6543664932250977,-0.45471668243408203,0.41514015197753906
169,46786880.0,9.014443397521973,-1.8172540664672852,2.6133499145507812,0.03941535949707031,-0.05646038055419922,-0.01810932159423828,0.43904972076416016,0.6543664932250977,-0.45471668243408203,0.41514015197753906
170,46786896.0,8.935432434082031,-1.8459854125976562,2.630110740661621,0.031958580017089844,-0.04793834686279297,-0.019174575805664062,0.43904972076416016,0.6543664932250977,-0.45471668243408203,0.41514015197753906
171,46786920.0,8.868392944335938,-1.8651399612426758,2.6037731170654297,0.0031957626342773438,-0.031958580017089844,-0.012783050537109375,0.43904972076416016,0.6543664932250977,-0.45471668243408203,0.41514015197753906
172,46786936.0,8.92465877532959,-1.9118280410766602,2.6097593307495117,-0.010652542114257812,-0.034089088439941406,-0.0021305084228515625,0.43904972076416016,0.6543664932250977,-0.45471668243408203,0.41514015197753906
173,46786960.0,8.953390121459961,-1.909433364868164,2.626519203186035,0.004261016845703125,-0.02982807159423828,0.010652542114257812,0.43904972076416016,0.6543664932250977,-0.45471668243408203,0.41514015197753906
174,46786960.0,8.953390121459961,-1.909433364868164,2.626519203186035,0.004261016845703125,-0.02982807159423828,0.010652542114257812,0.43904972076416016,0.6543664932250977,-0.45471668243408203,0.41514015197753906
175,46786976.0,9.02641487121582,-1.856760025024414,2.569056510925293,0.03515434265136719,-0.03728485107421875,0.021305084228515625,0.43904972076416016,0.6543664932250977,-0.45471668243408203,0.41514015197753906
176,46786976.0,9.02641487121582,-1.856760025024414,2.569056510925293,0.03515434265136719,-0.03728485107421875,0.021305084228515625,0.43904972076416016,0.6543664932250977,-0.45471668243408203,0.41514015197753906
177,46786996.0,8.931840896606445,-1.8627452850341797,2.5151853561401367,0.04367637634277344,-0.025567054748535156,0.02982807159423828,0.43904972076416016,0.6543664932250977,-0.45471668243408203,0.41514015197753906
178,46786996.0,8.931840896606445,-1.8627452850341797,2.5151853561401367,0.04367637634277344,-0.025567054748535156,0.02982807159423828,0.43904972076416016,0.6543664932250977,-0.45471668243408203,0.41514015197753906
179,46787016.0,8.8767728805542,-1.8555622100830078,2.5810279846191406,0.053264617919921875,-0.0287628173828125,0.024501800537109375,0.43904972076416016,0.6543664932250977,-0.45471668243408203,0.41514015197753906
180,46787016.0,8.8767728805542,-1.8555622100830078,2.5810279846191406,0.053264617919921875,-0.0287628173828125,0.024501800537109375,0.43904972076416016,0.6543664932250977,-0.45471668243408203,0.41514015197753906
181,46787036.0,8.962966918945312,-1.8411970138549805,2.65285587310791,0.06604766845703125,-0.03728485107421875,0.013848304748535156,0.43904972076416016,0.6543664932250977,-0.45471668243408203,0.41514015197753906
182,46787036.0,8.962966918945312,-1.8411970138549805,2.65285587310791,0.06604766845703125,-0.03728485107421875,0.013848304748535156,0.43904972076416016,0.6543664932250977,-0.45471668243408203,0.41514015197753906
183,46787156.0,9.004866600036621,-1.7933111190795898,2.529550552368164,0.0809621810913086,-0.03728485107421875,-0.0021305084228515625,0.43904972076416016,0.6543664932250977,-0.45471668243408203,0.41514015197753906
184,46787176.0,8.949798583984375,-1.7705659866333008,2.5415220260620117,0.0031957626342773438,0.0021305084228515625,0.030893325805664062,0.43904972076416016,0.6543664932250977,-0.45471668243408203,0.41514015197753906
185,46787196.0,8.889941215515137,-1.7801427841186523,2.4912424087524414,-0.031958580017089844,0.013848304748535156,0.031958580017089844,0.43904972076416016,0.6543664932250977,-0.45471668243408203,0.41514015197753906
186,46787216.0,8.892335891723633,-1.822042465209961,2.4888477325439453,-0.05646038055419922,0.012783050537109375,0.034089088439941406,0.43904972076416016,0.6543664932250977,-0.45471668243408203,0.41514015197753906
187,46787236.0,8.915081024169922,-1.8519706726074219,2.468496322631836,-0.03941535949707031,0.010652542114257812,0.03621959686279297,0.43904972076416016,0.6543664932250977,-0.45471668243408203,0.41514015197753906
188,46787256.0,9.003669738769531,-1.8232393264770508,2.4565258026123047,-0.01597881317138672,0.0021305084228515625,0.041545867919921875,0.43904972076416016,0.6543664932250977,-0.45471668243408203,0.41514015197753906
189,46787276.0,8.990501403808594,-1.7909173965454102,2.4529342651367188,-0.01597881317138672,0.0021305084228515625,0.041545867919921875,0.43904972076416016,0.6543664932250977,-0.45471668243408203,0.41514015197753906
190,46787296.0,8.962966918945312,-1.7980995178222656,2.4888477325439453,-0.01597881317138672,0.0021305084228515625,0.041545867919921875,0.43904972076416016,0.6543664932250977,-0.45471668243408203,0.41514015197753906
191,46787316.0,8.979726791381836,-1.7669744491577148,2.449342727661133,-0.01597881317138672,0.0021305084228515625,0.041545867919921875,0.43904972076416016,0.6543664932250977,-0.45471668243408203,0.41514015197753906
192,46787336.0,8.940220832824707,-1.850773811340332,2.4613142013549805,-0.01597881317138672,0.0021305084228515625,0.041545867919921875,0.43904972076416016,0.6543664932250977,-0.45471668243408203,0.41514015197753906
193,46787356.0,8.909095764160156,-1.8878850936889648,2.4888477325439453,-0.01597881317138672,0.0021305084228515625,0.041545867919921875,0.43904972076416016,0.6543664932250977,-0.45471668243408203,0.41514015197753906
194,46787356.0,8.909095764160156,-1.8878850936889648,2.4888477325439453,-0.01597881317138672,0.0021305084228515625,0.041545867919921875,0.43904972076416016,0.6543664932250977,-0.45471668243408203,0.41514015197753906
195,46787376.0,8.915081024169922,-1.9333763122558594,2.5091991424560547,-0.0170440673828125,-0.011717796325683594,-0.00852203369140625,0.43904972076416016,0.6543664932250977,-0.45471668243408203,0.41514015197753906
196,46787376.0,8.915081024169922,-1.9333763122558594,2.5091991424560547,-0.0170440673828125,-0.011717796325683594,-0.00852203369140625,0.43904972076416016,0.6543664932250977,-0.45471668243408203,0.41514015197753906
197,46787396.0,8.92465877532959,-1.9405593872070312,2.448145866394043,-0.0063915252685546875,-0.01597881317138672,0.0010652542114257812,0.43904972076416016,0.6543664932250977,-0.45471668243408203,0.41514015197753906
198,46787396.0,8.92465877532959,-1.9405593872070312,2.448145866394043,-0.0063915252685546875,-0.01597881317138672,0.0010652542114257812,0.43904972076416016,0.6543664932250977,-0.45471668243408203,0.41514015197753906
199,46787416.0,8.95458698272705,-1.9010534286499023,2.5175790786743164,0.010652542114257812,-0.014913558959960938,0.011717796325683594,0.43904972076416016,0.6543664932250977,-0.45471668243408203,0.41514015197753906
200,46787416.0,8.95458698272705,-1.9010534286499023,2.5175790786743164,0.010652542114257812,-0.014913558959960938,0.011717796325683594,0.43904972076416016,0.6543664932250977,-0.45471668243408203,0.41514015197753906
201,46787436.0,8.946207046508789,-1.9046449661254883,2.5175790786743164,0.00852203369140625,-0.014913558959960938,0.0170440673828125,0.43904972076416016,0.6543664932250977,-0.45471668243408203,0.41514015197753906
202,46787436.0,8.946207046508789,-1.9046449661254883,2.5175790786743164,0.00852203369140625,-0.014913558959960938,0.0170440673828125,0.43904972076416016,0.6543664932250977,-0.45471668243408203,0.41514015197753906
203,46787556.0,8.966558456420898,-1.883096694946289,2.48166561126709,0.012783050537109375,-0.014913558959960938,-0.004261016845703125,0.43904972076416016,0.6543664932250977,-0.45471668243408203,0.41514015197753906
204,46787556.0,8.966558456420898,-1.883096694946289,2.48166561126709,0.012783050537109375,-0.014913558959960938,-0.004261016845703125,0.43904972076416016,0.6543664932250977,-0.45471668243408203,0.41514015197753906
205,46787576.0,8.948601722717285,-1.8998565673828125,2.467299461364746,-0.0021305084228515625,-0.011717796325683594,-0.0010652542114257812,0.43904972076416016,0.6543664932250977,-0.45471668243408203,0.41514015197753906
206,46787576.0,8.948601722717285,-1.8998565673828125,2.467299461364746,-0.0021305084228515625,-0.011717796325683594,-0.0010652542114257812,0.43904972076416016,0.6543664932250977,-0.45471668243408203,0.41514015197753906
207,46787596.0,8.928250312805176,-1.9609107971191406,2.473285675048828,-0.034089088439941406,-0.0031957626342773438,0.0021305084228515625,0.43904972076416016,0.6543664932250977,-0.45471668243408203,0.41514015197753906
208,46787596.0,8.928250312805176,-1.9609107971191406,2.473285675048828,-0.034089088439941406,-0.0031957626342773438,0.0021305084228515625,0.43904972076416016,0.6543664932250977,-0.45471668243408203,0.41514015197753906
209,46787616.0,8.923460960388184,-2.0219640731811523,2.5199737548828125,-0.042611122131347656,-0.0010652542114257812,0.009587287902832031,0.43904972076416016,0.6543664932250977,-0.45471668243408203,0.41514015197753906
210,46787616.0,8.923460960388184,-2.0219640731811523,2.5199737548828125,-0.042611122131347656,-0.0010652542114257812,0.009587287902832031,0.43904972076416016,0.6543664932250977,-0.45471668243408203,0.41514015197753906
211,46787632.0,8.885152816772461,-1.9980220794677734,2.497227668762207,-0.0170440673828125,-0.0063915252685546875,0.0170440673828125,0.43904972076416016,0.6543664932250977,-0.45471668243408203,0.41514015197753906
212,46787632.0,8.885152816772461,-1.9980220794677734,2.497227668762207,-0.0170440673828125,-0.0063915252685546875,0.0170440673828125,0.43904972076416016,0.6543664932250977,-0.45471668243408203,0.41514015197753906
213,46787656.0,8.988106727600098,-1.9237995147705078,2.5056076049804688,0.009587287902832031,-0.00852203369140625,0.023435592651367188,0.43904972076416016,0.6543664932250977,-0.45471668243408203,0.41514015197753906
214,46787676.0,8.986909866333008,-1.8627452850341797,2.4948339462280273,0.009587287902832031,-0.00852203369140625,0.023435592651367188,0.43904972076416016,0.6543664932250977,-0.45471668243408203,0.41514015197753906
215,46787696.0,8.909095764160156,-1.8974618911743164,2.5127906799316406,0.009587287902832031,-0.00852203369140625,0.023435592651367188,0.43904972076416016,0.6543664932250977,-0.45471668243408203,0.41514015197753906
216,46787716.0,8.922264099121094,-1.971684455871582,2.474482536315918,0.009587287902832031,-0.00852203369140625,0.023435592651367188,0.43904972076416016,0.6543664932250977,-0.45471668243408203,0.41514015197753906
217,46787736.0,8.948601722717285,-2.011190414428711,2.470890998840332,0.009587287902832031,-0.00852203369140625,0.023435592651367188,0.43904972076416016,0.6543664932250977,-0.45471668243408203,0.41514015197753906
218,46787856.0,8.99409294128418,-1.9585161209106445,2.4876508712768555,-0.009587287902832031,-0.0031957626342773438,0.009587287902832031,0.43904972076416016,0.6543664932250977,-0.45471668243408203,0.41514015197753906
219,46787876.0,8.989303588867188,-1.916616439819336,2.4984254837036133,0.00852203369140625,-0.0021305084228515625,0.0063915252685546875,0.44379711151123047,0.6520795822143555,-0.4497537612915039,0.41893768310546875
220,46787896.0,8.88634967803955,-1.975275993347168,2.4924392700195312,-0.021305084228515625,0.005326271057128906,0.009587287902832031,0.44388294219970703,0.6520357131958008,-0.4497966766357422,0.4188518524169922
221,46787916.0,8.838464736938477,-2.002810478210449,2.4577226638793945,-0.026632308959960938,0.0031957626342773438,0.0031957626342773438,0.44405555725097656,0.6519927978515625,-0.44992637634277344,0.41867923736572266
222,46787936.0,8.9450101852417,-2.002810478210449,2.4888477325439453,-0.0063915252685546875,-0.005326271057128906,0.0031957626342773438,0.44409942626953125,0.6519927978515625,-0.44992637634277344,0.41863536834716797
223,46787952.0,8.972543716430664,-1.9896421432495117,2.4876508712768555,0.02769756317138672,-0.010652542114257812,-0.004261016845703125,0.4440126419067383,0.6520357131958008,-0.4497966766357422,0.41872215270996094
224,46787976.0,8.913884162902832,-1.8974618911743164,2.4840593338012695,0.02769756317138672,-0.010652542114257812,-0.004261016845703125,0.4440126419067383,0.6520357131958008,-0.4497966766357422,0.41872215270996094
225,46787992.0,8.941418647766113,-1.98126220703125,2.4948339462280273,0.02769756317138672,-0.010652542114257812,-0.004261016845703125,0.4440126419067383,0.6520357131958008,-0.4497966766357422,0.41872215270996094
226,46788016.0,8.941418647766113,-2.005204200744629,2.4661026000976562,0.02769756317138672,-0.010652542114257812,-0.004261016845703125,0.4440126419067383,0.6520357131958008,-0.4497966766357422,0.41872215270996094
227,46788032.0,8.899518966674805,-2.0279502868652344,2.4661026000976562,0.02769756317138672,-0.010652542114257812,-0.004261016845703125,0.4440126419067383,0.6520357131958008,-0.4497966766357422,0.41872215270996094
228,46788152.0,8.90550422668457,-1.978867530822754,2.4948339462280273,0.014913558959960938,-0.011717796325683594,-0.0010652542114257812,0.4440126419067383,0.6520357131958008,-0.4497966766357422,0.41872215270996094
229,46788152.0,8.90550422668457,-1.978867530822754,2.4948339462280273,0.014913558959960938,-0.011717796325683594,-0.0010652542114257812,0.4440126419067383,0.6520357131958008,-0.4497966766357422,0.41872215270996094
230,46788176.0,8.92705249786377,-1.9477424621582031,2.508002281188965,0.012783050537109375,-0.010652542114257812,0.0021305084228515625,0.4442281723022461,0.6517772674560547,-0.4495382308959961,0.41919708251953125
231,46788176.0,8.92705249786377,-1.9477424621582031,2.508002281188965,0.012783050537109375,-0.010652542114257812,0.0021305084228515625,0.4442281723022461,0.6517772674560547,-0.4495382308959961,0.41919708251953125
232,46788192.0,8.967755317687988,-1.9884443283081055,2.511593818664551,-0.0010652542114257812,-0.010652542114257812,0.0031957626342773438,0.4442281723022461,0.6517772674560547,-0.4495382308959961,0.41919708251953125
233,46788192.0,8.967755317687988,-1.9884443283081055,2.511593818664551,-0.0010652542114257812,-0.010652542114257812,0.0031957626342773438,0.4442281723022461,0.6517772674560547,-0.4495382308959961,0.41919708251953125
234,46788216.0,8.966558456420898,-1.9968242645263672,2.4948339462280273,-0.01597881317138672,-0.010652542114257812,0.005326271057128906,0.4444007873535156,0.6516904830932617,-0.4495382308959961,0.41919708251953125
235,46788216.0,8.966558456420898,-1.9968242645263672,2.4948339462280273,-0.01597881317138672,-0.010652542114257812,0.005326271057128906,0.4444007873535156,0.6516904830932617,-0.4495382308959961,0.41919708251953125
236,46788232.0,8.894729614257812,-1.9836559295654297,2.499622344970703,-0.0063915252685546875,-0.007456779479980469,0.0021305084228515625,0.4444446563720703,0.6516475677490234,-0.4495811462402344,0.41915321350097656
237,46788232.0,8.894729614257812,-1.9836559295654297,2.499622344970703,-0.0063915252685546875,-0.007456779479980469,0.0021305084228515625,0.4444446563720703,0.6516475677490234,-0.4495811462402344,0.41915321350097656
238,46788256.0,8.948601722717285,-1.9908390045166016,2.5187768936157227,0.0063915252685546875,-0.010652542114257812,0.0021305084228515625,0.4444875717163086,0.6516475677490234,-0.4495811462402344,0.41919708251953125
239,46788272.0,8.998881340026855,-1.9333763122558594,2.529550552368164,0.0063915252685546875,-0.010652542114257812,0.0021305084228515625,0.4444875717163086,0.6516475677490234,-0.4495811462402344,0.41919708251953125
240,46788296.0,8.911490440368652,-1.9381647109985352,2.504410743713379,0.0063915252685546875,-0.010652542114257812,0.0021305084228515625,0.4444875717163086,0.6516475677490234,-0.4495811462402344,0.41919708251953125
241,46788312.0,8.901912689208984,-1.9513330459594727,2.5056076049804688,0.0063915252685546875,-0.010652542114257812,0.0021305084228515625,0.4444875717163086,0.6516475677490234,-0.4495811462402344,0.41919708251953125
242,46788336.0,8.934235572814941,-1.9633045196533203,2.4912424087524414,0.0063915252685546875,-0.010652542114257812,0.0021305084228515625,0.4444875717163086,0.6516475677490234,-0.4495811462402344,0.41919708251953125
243,46788352.0,8.92465877532959,-1.9621076583862305,2.499622344970703,0.0063915252685546875,-0.010652542114257812,0.0021305084228515625,0.4444875717163086,0.6516475677490234,-0.4495811462402344,0.41919708251953125
244,46788372.0,8.92465877532959,-1.9214048385620117,2.500819206237793,0.0063915252685546875,-0.010652542114257812,0.0021305084228515625,0.4444875717163086,0.6516475677490234,-0.4495811462402344,0.41919708251953125
245,46788392.0,8.959375381469727,-1.909433364868164,2.4517364501953125,0.0063915252685546875,-0.010652542114257812,0.0021305084228515625,0.4444875717163086,0.6516475677490234,-0.4495811462402344,0.41919708251953125
246,46788412.0,8.943812370300293,-1.919011116027832,2.48166561126709,0.0063915252685546875,-0.010652542114257812,0.0021305084228515625,0.4444875717163086,0.6516475677490234,-0.4495811462402344,0.41919708251953125
247,46788432.0,8.953390121459961,-1.939361572265625,2.449342727661133,0.0063915252685546875,-0.010652542114257812,0.0021305084228515625,0.4444875717163086,0.6516475677490234,-0.4495811462402344,0.41919708251953125
248,46788552.0,8.915081024169922,-2.009993553161621,2.472087860107422,-0.0287628173828125,-0.0063915252685546875,-0.007456779479980469,0.4444875717163086,0.6516475677490234,-0.4495811462402344,0.41919708251953125
249,46788552.0,8.915081024169922,-2.009993553161621,2.472087860107422,-0.0287628173828125,-0.0063915252685546875,-0.007456779479980469,0.4444875717163086,0.6516475677490234,-0.4495811462402344,0.41919708251953125
250,46788572.0,8.921067237854004,-1.9800643920898438,2.444554328918457,-0.0287628173828125,-0.0063915252685546875,-0.007456779479980469,0.4455232620239258,0.6507844924926758,-0.45044422149658203,0.4185066223144531
251,46788572.0,8.921067237854004,-1.9800643920898438,2.444554328918457,-0.0287628173828125,-0.0063915252685546875,-0.007456779479980469,0.4455232620239258,0.6507844924926758,-0.45044422149658203,0.4185066223144531
252,46788592.0,8.92585563659668,-1.9513330459594727,2.4864540100097656,-0.0287628173828125,-0.0063915252685546875,-0.007456779479980469,0.44556617736816406,0.6507415771484375,-0.4504871368408203,0.41846275329589844
253,46788592.0,8.92585563659668,-1.9513330459594727,2.4864540100097656,-0.0287628173828125,-0.0063915252685546875,-0.007456779479980469,0.44556617736816406,0.6507415771484375,-0.4504871368408203,0.41846275329589844
254,46788612.0,8.92705249786377,-1.9513330459594727,2.4541311264038086,-0.0287628173828125,-0.0063915252685546875,-0.007456779479980469,0.4454803466796875,0.6506547927856445,-0.4505739212036133,0.4185495376586914
255,46788612.0,8.92705249786377,-1.9513330459594727,2.4541311264038086,-0.0287628173828125,-0.0063915252685546875,-0.007456779479980469,0.4454803466796875,0.6506547927856445,-0.4505739212036133,0.4185495376586914
256,46788632.0,8.883955955505371,-1.9321794509887695,2.4361743927001953,-0.0287628173828125,-0.0063915252685546875,-0.007456779479980469,0.44539356231689453,0.6506118774414062,-0.45070362091064453,0.4185495376586914
257,46788632.0,8.883955955505371,-1.9321794509887695,2.4361743927001953,-0.0287628173828125,-0.0063915252685546875,-0.007456779479980469,0.44539356231689453,0.6506118774414062,-0.45070362091064453,0.4185495376586914
258,46788752.0,8.910292625427246,-2.0195703506469727,2.4589195251464844,-0.05006885528564453,-0.009587287902832031,-0.012783050537109375,0.4459114074707031,0.6494464874267578,-0.45160961151123047,0.41889476776123047
259,46788772.0,8.90550422668457,-2.036330223083496,2.474482536315918,-0.05006885528564453,-0.009587287902832031,-0.012783050537109375,0.4459114074707031,0.6494464874267578,-0.45160961151123047,0.41889476776123047
260,46788792.0,8.941418647766113,-2.004007339477539,2.499622344970703,-0.05006885528564453,-0.009587287902832031,-0.012783050537109375,0.4459114074707031,0.6494464874267578,-0.45160961151123047,0.41889476776123047
261,46788812.0,8.891139030456543,-1.9441509246826172,2.4936370849609375,-0.05006885528564453,-0.009587287902832031,-0.012783050537109375,0.4459114074707031,0.6494464874267578,-0.45160961151123047,0.41889476776123047
262,46788832.0,8.889941215515137,-2.0219640731811523,2.4804677963256836,-0.05006885528564453,-0.009587287902832031,-0.012783050537109375,0.4459114074707031,0.6494464874267578,-0.45160961151123047,0.41889476776123047
263,46788852.0,8.934235572814941,-2.0483016967773438,2.470890998840332,-0.05006885528564453,-0.009587287902832031,-0.012783050537109375,0.4459114074707031,0.6494464874267578,-0.45160961151123047,0.41889476776123047
264,46788872.0,8.978529930114746,-2.066258430480957,2.437371253967285,-0.05006885528564453,-0.009587287902832031,-0.012783050537109375,0.4459114074707031,0.6494464874267578,-0.45160961151123047,0.41889476776123047
265,46788888.0,8.961770057678223,-2.099778175354004,2.4804677963256836,-0.05006885528564453,-0.009587287902832031,-0.012783050537109375,0.4459114074707031,0.6494464874267578,-0.45160961151123047,0.41889476776123047
266,46788912.0,9.02521800994873,-2.328432083129883,2.689967155456543,-0.05006885528564453,-0.009587287902832031,-0.012783050537109375,0.4459114074707031,0.6494464874267578,-0.45160961151123047,0.41889476776123047
267,46788928.0,9.273025512695312,-2.7941179275512695,2.968899726867676,-0.05006885528564453,-0.009587287902832031,-0.012783050537109375,0.4459114074707031,0.6494464874267578,-0.45160961151123047,0.41889476776123047
268,46788952.0,9.962576866149902,-4.5694732666015625,3.241847038269043,-0.05006885528564453,-0.009587287902832031,-0.012783050537109375,0.4459114074707031,0.6494464874267578,-0.45160961151123047,0.41889476776123047
269,46788972.0,10.847261428833008,-6.890722274780273,3.9457645416259766,0.7137489318847656,-0.07350540161132812,0.3962898254394531,0.4459114074707031,0.6494464874267578,-0.45160961151123047,0.41889476776123047
270,46788992.0,11.59547233581543,-5.837241172790527,5.51521110534668,2.1657485961914062,0.0170440673828125,0.8011026382446289,0.4459114074707031,0.6494464874267578,-0.45160961151123047,0.41889476776123047
271,46789008.0,13.381601333618164,-3.8152761459350586,6.516017913818359,2.829427719116211,-0.03515434265136719,1.4679784774780273,0.4459114074707031,0.6494464874267578,-0.45160961151123047,0.41889476776123047
272,46789032.0,16.338531494140625,-6.525595664978027,6.026389122009277,1.7662620544433594,-0.007456779479980469,2.622760772705078,0.4459114074707031,0.6494464874267578,-0.45160961151123047,0.41889476776123047
273,46789152.0,5.455354690551758,-10.28580379486084,4.230683326721191,0.24501800537109375,0.6040229797363281,3.9533166885375977,0.5160007476806641,0.8182821273803711,-0.16736888885498047,0.19024181365966797
274,46789172.0,3.4800777435302734,-7.914274215698242,4.901080131530762,-0.736119270324707,2.658980369567871,6.726284027099609,0.5160007476806641,0.8182821273803711,-0.16736888885498047,0.19024181365966797
275,46789192.0,2.7749643325805664,-5.268601417541504,4.953753471374512,0.040480613708496094,2.542862892150879,6.48020076751709,0.5160007476806641,0.8182821273803711,-0.16736888885498047,0.19024181365966797
276,46789208.0,2.133297920227051,-3.0455169677734375,3.3555755615234375,0.08415794372558594,2.4256811141967773,6.320405960083008,0.5160007476806641,0.8182821273803711,-0.16736888885498047,0.19024181365966797
277,46789232.0,1.0929861068725586,-3.561483383178711,2.96291446685791,-0.10226821899414062,2.2871923446655273,6.118000030517578,0.5160007476806641,0.8182821273803711,-0.16736888885498047,0.19024181365966797
278,46789252.0,-0.014365196228027344,-4.233077049255371,1.7765512466430664,-0.21092796325683594,2.072002410888672,6.059408187866211,0.5160007476806641,0.8182821273803711,-0.16736888885498047,0.19024181365966797
279,46789252.0,-0.014365196228027344,-4.233077049255371,1.7765512466430664,-0.21092796325683594,2.072002410888672,6.059408187866211,0.5160007476806641,0.8182821273803711,-0.16736888885498047,0.19024181365966797
280,46789272.0,-0.0658416748046875,-4.114561080932617,0.682368278503418,-0.21092796325683594,2.072002410888672,6.059408187866211,0.5160007476806641,0.8182821273803711,-0.16736888885498047,0.19024181365966797
281,46789272.0,-0.0658416748046875,-4.114561080932617,0.682368278503418,-0.21092796325683594,2.072002410888672,6.059408187866211,0.5160007476806641,0.8182821273803711,-0.16736888885498047,0.19024181365966797
282,46789292.0,-0.31125545501708984,-2.6983470916748047,1.1636171340942383,-0.21092796325683594,2.072002410888672,6.059408187866211,0.5160007476806641,0.8182821273803711,-0.16736888885498047,0.19024181365966797
283,46789292.0,-0.31125545501708984,-2.6983470916748047,1.1636171340942383,-0.21092796325683594,2.072002410888672,6.059408187866211,0.5160007476806641,0.8182821273803711,-0.16736888885498047,0.19024181365966797
284,46789312.0,-2.0566816329956055,-1.5239553451538086,1.416213035583496,-0.21092796325683594,2.072002410888672,6.059408187866211,0.5160007476806641,0.8182821273803711,-0.16736888885498047,0.19024181365966797
285,46789312.0,-2.0566816329956055,-1.5239553451538086,1.416213035583496,-0.21092796325683594,2.072002410888672,6.059408187866211,0.5160007476806641,0.8182821273803711,-0.16736888885498047,0.19024181365966797
286,46789328.0,-3.1113595962524414,-2.60137939453125,0.6668052673339844,-0.21092796325683594,2.072002410888672,6.059408187866211,0.5160007476806641,0.8182821273803711,-0.16736888885498047,0.19024181365966797
287,46789328.0,-3.1113595962524414,-2.60137939453125,0.6668052673339844,-0.21092796325683594,2.072002410888672,6.059408187866211,0.5160007476806641,0.8182821273803711,-0.16736888885498047,0.19024181365966797
288,46789352.0,-3.584228515625,-3.0562915802001953,-0.8212356567382812,-0.21092796325683594,2.072002410888672,6.059408187866211,0.5160007476806641,0.8182821273803711,-0.16736888885498047,0.19024181365966797
289,46789368.0,-4.077449798583984,-3.22149658203125,0.7027187347412109,-0.21092796325683594,2.072002410888672,6.059408187866211,0.5160007476806641,0.8182821273803711,-0.16736888885498047,0.19024181365966797
290,46789392.0,-3.996044158935547,-2.5151853561401367,2.230266571044922,-0.21092796325683594,2.072002410888672,6.059408187866211,0.5160007476806641,0.8182821273803711,-0.16736888885498047,0.19024181365966797
291,46789408.0,-4.228288650512695,-2.686375617980957,1.3683271408081055,-0.21092796325683594,2.072002410888672,6.059408187866211,0.5160007476806641,0.8182821273803711,-0.16736888885498047,0.19024181365966797
292,46789428.0,-5.306909561157227,-3.183187484741211,1.0846061706542969,-0.21092796325683594,2.072002410888672,6.059408187866211,0.5160007476806641,0.8182821273803711,-0.16736888885498047,0.19024181365966797
293,46789548.0,-7.472531318664551,-2.316460609436035,3.4872608184814453,-0.009587287902832031,0.6871156692504883,0.36007022857666016,0.5160007476806641,0.8182821273803711,-0.16736888885498047,0.19024181365966797
294,46789568.0,-7.959765434265137,-2.849186897277832,3.1772022247314453,-0.009587287902832031,0.6871156692504883,0.36007022857666016,0.3828144073486328,0.7616147994995117,0.28790855407714844,-0.4364175796508789
295,46789588.0,-8.561925888061523,-2.314065933227539,1.7921142578125,-0.009587287902832031,0.6871156692504883,0.36007022857666016,0.3848857879638672,0.7582054138183594,0.2857942581176758,-0.4419422149658203
296,46789608.0,-9.522029876708984,-3.489654541015625,1.4581127166748047,-0.009587287902832031,0.6871156692504883,0.36007022857666016,0.38527393341064453,0.7556161880493164,0.2826871871948242,-0.4479408264160156
297,46789628.0,-9.136551856994629,-2.9461545944213867,4.018789291381836,-0.009587287902832031,0.6871156692504883,0.36007022857666016,0.3846702575683594,0.7538461685180664,0.27979564666748047,-0.4532928466796875
298,46789648.0,-9.341261863708496,-3.1879758834838867,2.34279727935791,-0.009587287902832031,0.6871156692504883,0.36007022857666016,0.38695716857910156,0.7506532669067383,0.2787590026855469,-0.45722007751464844
299,46789668.0,-9.71596622467041,-5.01241397857666,2.17160701751709,-0.6189374923706055,0.7350540161132812,0.18109989166259766,0.39226627349853516,0.7449131011962891,0.2794065475463867,-0.46166515350341797
300,46789688.0,-7.3767595291137695,0.4812488555908203,-4.005620956420898,-0.8128213882446289,0.5741949081420898,0.21732044219970703,0.39861011505126953,0.7384824752807617,0.2822122573852539,-0.4649019241333008
301,46789708.0,-17.770305633544922,-12.310162544250488,31.85702133178711,0.7723398208618164,2.5567121505737305,0.6636791229248047,0.4017610549926758,0.7289876937866211,0.27936363220214844,-0.4786701202392578
302,46789728.0,-2.561873435974121,8.132153511047363,10.861626625061035,-9.024129867553711,-1.9505586624145508,0.9672889709472656,0.43201446533203125,0.7087030410766602,0.3088836669921875,-0.46447086334228516
303,46789748.0,-11.664905548095703,-11.606245994567871,-10.039193153381348,-2.1305932998657227,2.042173385620117,-2.4182233810424805,0.47146129608154297,0.6892814636230469,0.3068122863769531,-0.4566164016723633
304,46789748.0,-11.664905548095703,-11.606245994567871,-10.039193153381348,-2.1305932998657227,2.042173385620117,-2.4182233810424805,0.47146129608154297,0.6892814636230469,0.3068122863769531,-0.4566164016723633
305,46789768.0,-10.210384368896484,-8.928250312805176,0.6644105911254883,-2.1305932998657227,2.042173385620117,-2.4182233810424805,0.47146129608154297,0.6892814636230469,0.3068122863769531,-0.4566164016723633
306,46789768.0,-10.210384368896484,-8.928250312805176,0.6644105911254883,-2.1305932998657227,2.042173385620117,-2.4182233810424805,0.47146129608154297,0.6892814636230469,0.3068122863769531,-0.4566164016723633
307,46789788.0,-5.290149688720703,-3.6321144104003906,-1.0079889297485352,-2.1305932998657227,2.042173385620117,-2.4182233810424805,0.47146129608154297,0.6892814636230469,0.3068122863769531,-0.4566164016723633
308,46789788.0,-5.290149688720703,-3.6321144104003906,-1.0079889297485352,-2.1305932998657227,2.042173385620117,-2.4182233810424805,0.47146129608154297,0.6892814636230469,0.3068122863769531,-0.4566164016723633
309,46789808.0,-7.810123443603516,-2.4828624725341797,0.614130973815918,-2.1305932998657227,2.042173385620117,-2.4182233810424805,0.47146129608154297,0.6892814636230469,0.3068122863769531,-0.4566164016723633
310,46789808.0,-7.810123443603516,-2.4828624725341797,0.614130973815918,-2.1305932998657227,2.042173385620117,-2.4182233810424805,0.47146129608154297,0.6892814636230469,0.3068122863769531,-0.4566164016723633
311,46789828.0,-6.957761764526367,-3.4776830673217773,2.3918800354003906,-2.1305932998657227,2.042173385620117,-2.4182233810424805,0.47146129608154297,0.6892814636230469,0.3068122863769531,-0.4566164016723633
312,46789828.0,-6.957761764526367,-3.4776830673217773,2.3918800354003906,-2.1305932998657227,2.042173385620117,-2.4182233810424805,0.47146129608154297,0.6892814636230469,0.3068122863769531,-0.4566164016723633
313,46789948.0,-2.687572479248047,-2.4864540100097656,2.2901229858398438,-0.2950868606567383,-3.7306690216064453,-2.9828310012817383,0.47146129608154297,0.6892814636230469,0.3068122863769531,-0.4566164016723633
314,46789968.0,-1.763382911682129,-4.727495193481445,1.674795150756836,-0.2950868606567383,-3.7306690216064453,-2.9828310012817383,0.47146129608154297,0.6892814636230469,0.3068122863769531,-0.4566164016723633
315,46789988.0,-0.38787174224853516,-6.2346906661987305,1.2126998901367188,-0.2950868606567383,-3.7306690216064453,-2.9828310012817383,0.47146129608154297,0.6892814636230469,0.3068122863769531,-0.4566164016723633
316,46790008.0,0.05865955352783203,-3.405855178833008,3.270578384399414,-0.2950868606567383,-3.7306690216064453,-2.9828310012817383,0.47146129608154297,0.6892814636230469,0.3068122863769531,-0.4566164016723633
317,46790028.0,0.7529993057250977,-1.5191669464111328,7.1708526611328125,-0.2950868606567383,-3.7306690216064453,-2.9828310012817383,0.47146129608154297,0.6892814636230469,0.3068122863769531,-0.4566164016723633
318,46790048.0,1.2186851501464844,-2.417019844055176,7.145712852478027,-0.2950868606567383,-3.7306690216064453,-2.9828310012817383,0.47146129608154297,0.6892814636230469,0.3068122863769531,-0.4566164016723633
319,46790068.0,0.9936237335205078,-3.116147994995117,5.797736167907715,1.7332372665405273,-3.1671276092529297,-4.8982343673706055,0.47146129608154297,0.6892814636230469,0.3068122863769531,-0.4566164016723633
320,46790088.0,1.3300189971923828,-0.22146987915039062,5.699570655822754,1.8365716934204102,-3.102144241333008,-5.00369930267334,0.47146129608154297,0.6892814636230469,0.3068122863769531,-0.4566164016723633
321,46790108.0,2.846792221069336,0.5602598190307617,5.858789443969727,0.7489032745361328,-3.288571357727051,-5.03565788269043,0.47146129608154297,0.6892814636230469,0.3068122863769531,-0.4566164016723633
322,46790128.0,6.1461029052734375,-7.558724403381348,9.323305130004883,-1.2112417221069336,-3.3365097045898438,-5.029266357421875,0.47146129608154297,0.6892814636230469,0.3068122863769531,-0.4566164016723633
323,46790148.0,7.540767669677734,-9.774625778198242,8.271021842956543,-2.065609931945801,-2.873105049133301,-4.886516571044922,0.47146129608154297,0.6892814636230469,0.3068122863769531,-0.4566164016723633
324,46790168.0,5.5882368087768555,-5.024385452270508,7.073884010314941,-2.065609931945801,-2.873105049133301,-4.886516571044922,0.47146129608154297,0.6892814636230469,0.3068122863769531,-0.4566164016723633
325,46790184.0,7.407885551452637,-4.423421859741211,5.361977577209473,-2.065609931945801,-2.873105049133301,-4.886516571044922,0.47146129608154297,0.6892814636230469,0.3068122863769531,-0.4566164016723633
326,46790208.0,12.471776008605957,-10.415094375610352,7.35521125793457,-2.065609931945801,-2.873105049133301,-4.886516571044922,0.47146129608154297,0.6892814636230469,0.3068122863769531,-0.4566164016723633
327,46790224.0,14.992947578430176,-10.224749565124512,9.23711109161377,-2.065609931945801,-2.873105049133301,-4.886516571044922,0.47146129608154297,0.6892814636230469,0.3068122863769531,-0.4566164016723633
328,46790344.0,12.039609909057617,-7.059518814086914,5.432608604431152,-1.751347541809082,-0.6892461776733398,-2.919978141784668,0.47146129608154297,0.6892814636230469,0.3068122863769531,-0.4566164016723633
329,46790364.0,11.644554138183594,-4.857982635498047,3.6081714630126953,-1.751347541809082,-0.6892461776733398,-2.919978141784668,0.47146129608154297,0.6892814636230469,0.3068122863769531,-0.4566164016723633
330,46790404.0,10.623396873474121,-3.799713134765625,3.799713134765625,-1.751347541809082,-0.6892461776733398,-2.919978141784668,0.47146129608154297,0.6892814636230469,0.3068122863769531,-0.4566164016723633
331,46790424.0,10.07750129699707,-5.098607063293457,3.283747673034668,-1.751347541809082,-0.6892461776733398,-2.919978141784668,0.47146129608154297,0.6892814636230469,0.3068122863769531,-0.4566164016723633
332,46790544.0,9.019232749938965,-0.7553930282592773,1.9692907333374023,-1.751347541809082,-0.6892461776733398,-2.919978141784668,0.47146129608154297,0.6892814636230469,0.3068122863769531,-0.4566164016723633
333,46790544.0,9.019232749938965,-0.7553930282592773,1.9692907333374023,-1.751347541809082,-0.6892461776733398,-2.919978141784668,0.47146129608154297,0.6892814636230469,0.3068122863769531,-0.4566164016723633
334,46790568.0,8.771425247192383,-0.7709560394287109,1.915419578552246,-0.0021305084228515625,0.04474163055419922,0.1214437484741211,0.47146129608154297,0.6892814636230469,0.3068122863769531,-0.4566164016723633
335,46790568.0,8.771425247192383,-0.7709560394287109,1.915419578552246,-0.0021305084228515625,0.04474163055419922,0.1214437484741211,0.47146129608154297,0.6892814636230469,0.3068122863769531,-0.4566164016723633
336,46790584.0,8.763045310974121,-1.3970584869384766,1.9106311798095703,-0.2588663101196289,0.060721397399902344,0.022370338439941406,0.47146129608154297,0.6892814636230469,0.3068122863769531,-0.4566164016723633
337,46790584.0,8.763045310974121,-1.3970584869384766,1.9106311798095703,-0.2588663101196289,0.060721397399902344,0.022370338439941406,0.47146129608154297,0.6892814636230469,0.3068122863769531,-0.4566164016723633
338,46790604.0,9.103032112121582,-1.752608299255371,1.6340923309326172,-0.2247772216796875,0.03941535949707031,-0.014913558959960938,0.47146129608154297,0.6892814636230469,0.3068122863769531,-0.4566164016723633
339,46790604.0,9.103032112121582,-1.752608299255371,1.6340923309326172,-0.2247772216796875,0.03941535949707031,-0.014913558959960938,0.47146129608154297,0.6892814636230469,0.3068122863769531,-0.4566164016723633
340,46790624.0,9.047964096069336,-1.4473390579223633,1.6185293197631836,-0.07670116424560547,0.0628519058227539,-0.007456779479980469,0.47146129608154297,0.6892814636230469,0.3068122863769531,-0.4566164016723633
341,46790624.0,9.047964096069336,-1.4473390579223633,1.6185293197631836,-0.07670116424560547,0.0628519058227539,-0.007456779479980469,0.47146129608154297,0.6892814636230469,0.3068122863769531,-0.4566164016723633
342,46790844.0,9.122185707092285,-1.8711252212524414,2.390683174133301,-0.009587287902832031,-0.06817817687988281,0.08841896057128906,0.47146129608154297,0.6892814636230469,0.3068122863769531,-0.4566164016723633
343,46790864.0,9.154508590698242,-1.7777481079101562,2.2470264434814453,0.09374523162841797,-0.054329872131347656,0.08948421478271484,0.42800140380859375,0.6544532775878906,-0.41164493560791016,0.4680519104003906
344,46790884.0,9.001275062561035,-1.786128044128418,2.286531448364258,0.12677001953125,-0.019174575805664062,0.09267997741699219,0.42774200439453125,0.6552295684814453,-0.41034984588623047,0.4683113098144531
345,46790904.0,9.027612686157227,-1.877110481262207,2.378711700439453,0.054329872131347656,-0.025567054748535156,0.11611652374267578,0.42769908905029297,0.6561794281005859,-0.4092283248901367,0.4679222106933594
346,46790924.0,9.122185707092285,-1.8100709915161133,2.431385040283203,0.022370338439941406,-0.04474163055419922,0.11718177795410156,0.42795753479003906,0.6572580337524414,-0.4083213806152344,0.4670591354370117
347,46790944.0,9.047964096069336,-1.856760025024414,2.353571891784668,0.1033334732055664,-0.04474163055419922,0.09587669372558594,0.4276561737060547,0.6584234237670898,-0.4073295593261719,0.4665842056274414
348,46790964.0,8.936630249023438,-1.723876953125,2.2673778533935547,0.1033334732055664,-0.04474163055419922,0.09587669372558594,0.4276561737060547,0.6584234237670898,-0.4073295593261719,0.4665842056274414
349,46790984.0,8.962966918945312,-1.658034324645996,2.296109199523926,0.1033334732055664,-0.04474163055419922,0.09587669372558594,0.4276561737060547,0.6584234237670898,-0.4073295593261719,0.4665842056274414
350,46791004.0,9.154508590698242,-1.788522720336914,2.3667402267456055,0.1033334732055664,-0.04474163055419922,0.09587669372558594,0.4276561737060547,0.6584234237670898,-0.4073295593261719,0.4665842056274414
351,46791024.0,9.243097305297852,-1.789719581604004,2.249420166015625,0.1033334732055664,-0.04474163055419922,0.09587669372558594,0.4276561737060547,0.6584234237670898,-0.4073295593261719,0.4665842056274414
352,46791044.0,9.079089164733887,-1.6173324584960938,2.2206897735595703,0.1033334732055664,-0.04474163055419922,0.09587669372558594,0.4276561737060547,0.6584234237670898,-0.4073295593261719,0.4665842056274414
353,46791044.0,9.079089164733887,-1.6173324584960938,2.2206897735595703,0.1033334732055664,-0.04474163055419922,0.09587669372558594,0.4276561737060547,0.6584234237670898,-0.4073295593261719,0.4665842056274414
354,46791064.0,8.970149993896484,-1.5658550262451172,2.258997917175293,0.1033334732055664,-0.04474163055419922,0.09587669372558594,0.4276561737060547,0.6584234237670898,-0.4073295593261719,0.4665842056274414
355,46791064.0,8.970149993896484,-1.5658550262451172,2.258997917175293,0.1033334732055664,-0.04474163055419922,0.09587669372558594,0.4276561737060547,0.6584234237670898,-0.4073295593261719,0.4665842056274414
356,46791084.0,9.047964096069336,-1.606557846069336,2.3080806732177734,0.1033334732055664,-0.04474163055419922,0.09587669372558594,0.4276561737060547,0.6584234237670898,-0.4073295593261719,0.4665842056274414
357,46791084.0,9.047964096069336,-1.606557846069336,2.3080806732177734,0.1033334732055664,-0.04474163055419922,0.09587669372558594,0.4276561737060547,0.6584234237670898,-0.4073295593261719,0.4665842056274414
358,46791104.0,9.1868314743042,-1.723876953125,2.260194778442383,0.1033334732055664,-0.04474163055419922,0.09587669372558594,0.4276561737060547,0.6584234237670898,-0.4073295593261719,0.4665842056274414
359,46791104.0,9.1868314743042,-1.723876953125,2.260194778442383,0.1033334732055664,-0.04474163055419922,0.09587669372558594,0.4276561737060547,0.6584234237670898,-0.4073295593261719,0.4665842056274414
360,46791124.0,9.068314552307129,-1.762186050415039,2.2793493270874023,0.1033334732055664,-0.04474163055419922,0.09587669372558594,0.4276561737060547,0.6584234237670898,-0.4073295593261719,0.4665842056274414
361,46791124.0,9.068314552307129,-1.762186050415039,2.2793493270874023,0.1033334732055664,-0.04474163055419922,0.09587669372558594,0.4276561737060547,0.6584234237670898,-0.4073295593261719,0.4665842056274414
362,46791144.0,9.004866600036621,-1.7945079803466797,2.315262794494629,0.1033334732055664,-0.04474163055419922,0.09587669372558594,0.4276561737060547,0.6584234237670898,-0.4073295593261719,0.4665842056274414
363,46791164.0,9.068314552307129,-1.8423938751220703,2.321249008178711,0.031958580017089844,-0.021305084228515625,0.06817817687988281,0.4276561737060547,0.6584234237670898,-0.4073295593261719,0.4665842056274414
364,46791184.0,9.040781021118164,-1.8052825927734375,2.316460609436035,0.057525634765625,-0.012783050537109375,0.07137489318847656,0.4276561737060547,0.6584234237670898,-0.4073295593261719,0.4665842056274414
365,46791200.0,8.97374153137207,-1.7837343215942383,2.317657470703125,0.061786651611328125,0.0,0.05965614318847656,0.4276561737060547,0.6584234237670898,-0.4073295593261719,0.4665842056274414
366,46791224.0,9.015641212463379,-1.8100709915161133,2.353571891784668,0.040480613708496094,-0.0010652542114257812,0.04900360107421875,0.4276561737060547,0.6584234237670898,-0.4073295593261719,0.4665842056274414
367,46791244.0,9.057540893554688,-1.8340139389038086,2.317657470703125,0.03941535949707031,0.0010652542114257812,0.03835010528564453,0.4276561737060547,0.6584234237670898,-0.4073295593261719,0.4665842056274414
368,46791264.0,9.080286026000977,-1.8112688064575195,2.2613916397094727,0.03941535949707031,0.0010652542114257812,0.03835010528564453,0.4276561737060547,0.6584234237670898,-0.4073295593261719,0.4665842056274414
369,46791284.0,8.970149993896484,-1.8974618911743164,2.284137725830078,0.03941535949707031,0.0010652542114257812,0.03835010528564453,0.4276561737060547,0.6584234237670898,-0.4073295593261719,0.4665842056274414
370,46791304.0,8.901912689208984,-2.0243587493896484,2.3416004180908203,0.03941535949707031,0.0010652542114257812,0.03835010528564453,0.4276561737060547,0.6584234237670898,-0.4073295593261719,0.4665842056274414
371,46791320.0,8.961770057678223,-1.9704875946044922,2.3655433654785156,0.03941535949707031,0.0010652542114257812,0.03835010528564453,0.4276561737060547,0.6584234237670898,-0.4073295593261719,0.4665842056274414
372,46791344.0,8.99648666381836,-1.9920358657836914,2.29251766204834,0.03941535949707031,0.0010652542114257812,0.03835010528564453,0.4276561737060547,0.6584234237670898,-0.4073295593261719,0.4665842056274414
373,46791344.0,8.99648666381836,-1.9920358657836914,2.29251766204834,0.03941535949707031,0.0010652542114257812,0.03835010528564453,0.4276561737060547,0.6584234237670898,-0.4073295593261719,0.4665842056274414
374,46791364.0,8.960572242736816,-1.8747167587280273,2.3056859970092773,0.07137489318847656,0.020239830017089844,-0.011717796325683594,0.4276561737060547,0.6584234237670898,-0.4073295593261719,0.4665842056274414
375,46791364.0,8.960572242736816,-1.8747167587280273,2.3056859970092773,0.07137489318847656,0.020239830017089844,-0.011717796325683594,0.4276561737060547,0.6584234237670898,-0.4073295593261719,0.4665842056274414
376,46791384.0,8.909095764160156,-1.909433364868164,2.29132080078125,0.022370338439941406,0.031958580017089844,-0.011717796325683594,0.4276561737060547,0.6584234237670898,-0.4073295593261719,0.4665842056274414
377,46791384.0,8.909095764160156,-1.909433364868164,2.29132080078125,0.022370338439941406,0.031958580017089844,-0.011717796325683594,0.4276561737060547,0.6584234237670898,-0.4073295593261719,0.4665842056274414
378,46791404.0,8.934235572814941,-2.008795738220215,2.3356142044067383,-0.03941535949707031,0.02982807159423828,-0.004261016845703125,0.4276561737060547,0.6584234237670898,-0.4073295593261719,0.4665842056274414
379,46791404.0,8.934235572814941,-2.008795738220215,2.3356142044067383,-0.03941535949707031,0.02982807159423828,-0.004261016845703125,0.4276561737060547,0.6584234237670898,-0.4073295593261719,0.4665842056274414
380,46791424.0,9.02521800994873,-1.9968242645263672,2.287729263305664,-0.04367637634277344,0.022370338439941406,0.00852203369140625,0.4276561737060547,0.6584234237670898,-0.4073295593261719,0.4665842056274414
381,46791424.0,9.02521800994873,-1.9968242645263672,2.287729263305664,-0.04367637634277344,0.022370338439941406,0.00852203369140625,0.4276561737060547,0.6584234237670898,-0.4073295593261719,0.4665842056274414
382,46791640.0,8.911490440368652,-1.9501361846923828,2.2949113845825195,-0.02769756317138672,0.0170440673828125,0.007456779479980469,0.42144107818603516,0.6750392913818359,-0.39753246307373047,0.4568309783935547
383,46791640.0,8.911490440368652,-1.9501361846923828,2.2949113845825195,-0.02769756317138672,0.0170440673828125,0.007456779479980469,0.42144107818603516,0.6750392913818359,-0.39753246307373047,0.4568309783935547
384,46791664.0,8.934235572814941,-2.059075355529785,2.3595571517944336,-0.06817817687988281,0.007456779479980469,0.030893325805664062,0.42144107818603516,0.6750392913818359,-0.39753246307373047,0.4568309783935547
385,46791664.0,8.934235572814941,-2.059075355529785,2.3595571517944336,-0.06817817687988281,0.007456779479980469,0.030893325805664062,0.42144107818603516,0.6750392913818359,-0.39753246307373047,0.4568309783935547
386,46791680.0,8.978529930114746,-2.0782299041748047,2.3523740768432617,-0.02769756317138672,-0.010652542114257812,0.034089088439941406,0.42144107818603516,0.6750392913818359,-0.39753246307373047,0.4568309783935547
387,46791680.0,8.978529930114746,-2.0782299041748047,2.3523740768432617,-0.02769756317138672,-0.010652542114257812,0.034089088439941406,0.42144107818603516,0.6750392913818359,-0.39753246307373047,0.4568309783935547
388,46791704.0,8.966558456420898,-1.9369678497314453,2.2697715759277344,0.041545867919921875,-0.010652542114257812,0.02982807159423828,0.42144107818603516,0.6750392913818359,-0.39753246307373047,0.4568309783935547
389,46791704.0,8.966558456420898,-1.9369678497314453,2.2697715759277344,0.041545867919921875,-0.010652542114257812,0.02982807159423828,0.42144107818603516,0.6750392913818359,-0.39753246307373047,0.4568309783935547
390,46791720.0,8.842056274414062,-1.8914766311645508,2.387091636657715,0.05539512634277344,0.00852203369140625,0.020239830017089844,0.42144107818603516,0.6750392913818359,-0.39753246307373047,0.4568309783935547
391,46791720.0,8.842056274414062,-1.8914766311645508,2.387091636657715,0.05539512634277344,0.00852203369140625,0.020239830017089844,0.42144107818603516,0.6750392913818359,-0.39753246307373047,0.4568309783935547
392,46791740.0,8.921067237854004,-1.9992189407348633,2.357163429260254,-0.009587287902832031,0.0063915252685546875,0.024501800537109375,0.42144107818603516,0.6750392913818359,-0.39753246307373047,0.4568309783935547
393,46791760.0,9.034794807434082,-2.138087272644043,2.3703317642211914,-0.009587287902832031,0.0063915252685546875,0.024501800537109375,0.42144107818603516,0.6750392913818359,-0.39753246307373047,0.4568309783935547
394,46791780.0,9.015641212463379,-2.072244644165039,2.3451919555664062,-0.009587287902832031,0.0063915252685546875,0.024501800537109375,0.42144107818603516,0.6750392913818359,-0.39753246307373047,0.4568309783935547
395,46791800.0,8.958178520202637,-2.044710159301758,2.314065933227539,-0.009587287902832031,0.0063915252685546875,0.024501800537109375,0.42144107818603516,0.6750392913818359,-0.39753246307373047,0.4568309783935547
396,46791820.0,8.863604545593262,-1.9261932373046875,2.351177215576172,-0.009587287902832031,0.0063915252685546875,0.024501800537109375,0.42144107818603516,0.6750392913818359,-0.39753246307373047,0.4568309783935547
397,46791840.0,8.855224609375,-1.9932336807250977,2.4182167053222656,-0.009587287902832031,0.0063915252685546875,0.024501800537109375,0.42144107818603516,0.6750392913818359,-0.39753246307373047,0.4568309783935547
398,46791860.0,8.97613525390625,-2.066258430480957,2.48166561126709,-0.009587287902832031,0.0063915252685546875,0.024501800537109375,0.42144107818603516,0.6750392913818359,-0.39753246307373047,0.4568309783935547
399,46791880.0,9.018034934997559,-2.0231618881225586,2.328432083129883,-0.009587287902832031,0.0063915252685546875,0.024501800537109375,0.42144107818603516,0.6750392913818359,-0.39753246307373047,0.4568309783935547
400,46791900.0,8.933038711547852,-1.9932336807250977,2.369133949279785,-0.009587287902832031,0.0063915252685546875,0.024501800537109375,0.42144107818603516,0.6750392913818359,-0.39753246307373047,0.4568309783935547
401,46791920.0,8.915081024169922,-2.006402015686035,2.343994140625,-0.009587287902832031,0.0063915252685546875,0.024501800537109375,0.42144107818603516,0.6750392913818359,-0.39753246307373047,0.4568309783935547
402,46792040.0,8.967755317687988,-2.069849967956543,2.3739233016967773,-0.014913558959960938,-0.0170440673828125,-0.0031957626342773438,0.42144107818603516,0.6750392913818359,-0.39753246307373047,0.4568309783935547
403,46792040.0,8.967755317687988,-2.069849967956543,2.3739233016967773,-0.014913558959960938,-0.0170440673828125,-0.0031957626342773438,0.42144107818603516,0.6750392913818359,-0.39753246307373047,0.4568309783935547
404,46792040.0,8.967755317687988,-2.069849967956543,2.3739233016967773,-0.014913558959960938,-0.0170440673828125,-0.0031957626342773438,0.42144107818603516,0.6750392913818359,-0.39753246307373047,0.4568309783935547
405,46792060.0,8.985712051391602,-2.0494985580444336,2.3032913208007812,0.020239830017089844,-0.021305084228515625,-0.009587287902832031,0.42144107818603516,0.6750392913818359,-0.39753246307373047,0.4568309783935547
406,46792060.0,8.985712051391602,-2.0494985580444336,2.3032913208007812,0.020239830017089844,-0.021305084228515625,-0.009587287902832031,0.42144107818603516,0.6750392913818359,-0.39753246307373047,0.4568309783935547
407,46792060.0,8.985712051391602,-2.0494985580444336,2.3032913208007812,0.020239830017089844,-0.021305084228515625,-0.009587287902832031,0.42144107818603516,0.6750392913818359,-0.39753246307373047,0.4568309783935547
408,46792080.0,8.923460960388184,-2.03273868560791,2.376317024230957,0.022370338439941406,-0.01810932159423828,-0.011717796325683594,0.42144107818603516,0.6750392913818359,-0.39753246307373047,0.4568309783935547
409,46792080.0,8.923460960388184,-2.03273868560791,2.376317024230957,0.022370338439941406,-0.01810932159423828,-0.011717796325683594,0.42144107818603516,0.6750392913818359,-0.39753246307373047,0.4568309783935547
410,46792080.0,8.923460960388184,-2.03273868560791,2.376317024230957,0.022370338439941406,-0.01810932159423828,-0.011717796325683594,0.42144107818603516,0.6750392913818359,-0.39753246307373047,0.4568309783935547
411,46792100.0,8.883955955505371,-2.0818214416503906,2.3703317642211914,0.019174575805664062,-0.011717796325683594,-0.012783050537109375,0.42144107818603516,0.6750392913818359,-0.39753246307373047,0.4568309783935547
412,46792100.0,8.883955955505371,-2.0818214416503906,2.3703317642211914,0.019174575805664062,-0.011717796325683594,-0.012783050537109375,0.42144107818603516,0.6750392913818359,-0.39753246307373047,0.4568309783935547
413,46792100.0,8.883955955505371,-2.0818214416503906,2.3703317642211914,0.019174575805664062,-0.011717796325683594,-0.012783050537109375,0.42144107818603516,0.6750392913818359,-0.39753246307373047,0.4568309783935547
414,46792120.0,8.929447174072266,-2.069849967956543,2.3559656143188477,0.019174575805664062,-0.023435592651367188,-0.011717796325683594,0.42144107818603516,0.6750392913818359,-0.39753246307373047,0.4568309783935547
415,46792120.0,8.929447174072266,-2.069849967956543,2.3559656143188477,0.019174575805664062,-0.023435592651367188,-0.011717796325683594,0.42144107818603516,0.6750392913818359,-0.39753246307373047,0.4568309783935547
416,46792120.0,8.929447174072266,-2.069849967956543,2.3559656143188477,0.019174575805664062,-0.023435592651367188,-0.011717796325683594,0.42144107818603516,0.6750392913818359,-0.39753246307373047,0.4568309783935547
417,46792340.0,8.948601722717285,-2.0554847717285156,2.3344173431396484,0.06604766845703125,-0.021305084228515625,0.0,0.41997337341308594,0.6799592971801758,-0.3926982879638672,0.4550180435180664
418,46792340.0,8.948601722717285,-2.0554847717285156,2.3344173431396484,0.06604766845703125,-0.021305084228515625,0.0,0.41997337341308594,0.6799592971801758,-0.3926982879638672,0.4550180435180664
419,46792360.0,8.883955955505371,-1.9932336807250977,2.29251766204834,0.06604766845703125,-0.021305084228515625,0.0,0.41997337341308594,0.6799592971801758,-0.3926982879638672,0.4550180435180664
420,46792360.0,8.883955955505371,-1.9932336807250977,2.29251766204834,0.06604766845703125,-0.021305084228515625,0.0,0.41997337341308594,0.6799592971801758,-0.3926982879638672,0.4550180435180664
421,46792376.0,8.928250312805176,-2.071046829223633,2.3332204818725586,0.06604766845703125,-0.021305084228515625,0.0,0.41997337341308594,0.6799592971801758,-0.3926982879638672,0.4550180435180664
422,46792376.0,8.928250312805176,-2.071046829223633,2.3332204818725586,0.06604766845703125,-0.021305084228515625,0.0,0.41997337341308594,0.6799592971801758,-0.3926982879638672,0.4550180435180664
423,46792400.0,9.04437255859375,-2.1524524688720703,2.3607540130615234,0.06604766845703125,-0.021305084228515625,0.0,0.41997337341308594,0.6799592971801758,-0.3926982879638672,0.4550180435180664
424,46792400.0,9.04437255859375,-2.1524524688720703,2.3607540130615234,0.06604766845703125,-0.021305084228515625,0.0,0.41997337341308594,0.6799592971801758,-0.3926982879638672,0.4550180435180664
425,46792416.0,9.074300765991211,-2.062666893005371,2.3032913208007812,0.06604766845703125,-0.021305084228515625,0.0,0.41997337341308594,0.6799592971801758,-0.3926982879638672,0.4550180435180664
426,46792416.0,9.074300765991211,-2.062666893005371,2.3032913208007812,0.06604766845703125,-0.021305084228515625,0.0,0.41997337341308594,0.6799592971801758,-0.3926982879638672,0.4550180435180664
427,46792440.0,8.972543716430664,-2.0494985580444336,2.3451919555664062,0.06604766845703125,-0.021305084228515625,0.0,0.41997337341308594,0.6799592971801758,-0.3926982879638672,0.4550180435180664
428,46792456.0,8.843253135681152,-2.1021728515625,2.316460609436035,-0.02982807159423828,0.012783050537109375,0.005326271057128906,0.41945552825927734,0.6803045272827148,-0.39252567291259766,0.4551048278808594
429,46792480.0,8.889941215515137,-2.106961250305176,2.3260374069213867,-0.012783050537109375,0.0,0.0063915252685546875,0.4195423126220703,0.6803483963012695,-0.3926553726196289,0.45493221282958984
430,46792496.0,9.006063461303711,-2.0279502868652344,2.354768753051758,0.0287628173828125,-0.0170440673828125,0.0063915252685546875,0.4194984436035156,0.6803913116455078,-0.39252567291259766,0.4549751281738281
431,46792520.0,8.985712051391602,-1.9621076583862305,2.3332204818725586,0.02982807159423828,-0.004261016845703125,0.004261016845703125,0.4192829132080078,0.6805639266967773,-0.3923530578613281,0.4551048278808594
432,46792536.0,8.935432434082031,-1.9740791320800781,2.3559656143188477,-0.0021305084228515625,0.004261016845703125,-0.007456779479980469,0.41915321350097656,0.6806068420410156,-0.39231014251708984,0.45514774322509766
433,46792556.0,8.893532752990723,-2.109355926513672,2.339205741882324,-0.03515434265136719,0.009587287902832031,-0.011717796325683594,0.4193258285522461,0.6804771423339844,-0.39252567291259766,0.4549751281738281
434,46792648.0,8.893532752990723,-2.0219640731811523,2.375120162963867,-0.03515434265136719,0.009587287902832031,-0.011717796325683594,0.4193258285522461,0.6804771423339844,-0.39252567291259766,0.4549751281738281
435,46792668.0,8.95458698272705,-2.0602731704711914,2.3882884979248047,-0.03515434265136719,0.009587287902832031,-0.011717796325683594,0.4193258285522461,0.6804771423339844,-0.39252567291259766,0.4549751281738281
436,46792688.0,8.964163780212402,-1.9920358657836914,2.3332204818725586,-0.03515434265136719,0.009587287902832031,-0.011717796325683594,0.4193258285522461,0.6804771423339844,-0.39252567291259766,0.4549751281738281
437,46792708.0,8.918672561645508,-1.9621076583862305,2.3715286254882812,-0.03515434265136719,0.009587287902832031,-0.011717796325683594,0.4193258285522461,0.6804771423339844,-0.39252567291259766,0.4549751281738281
438,46792728.0,8.892335891723633,-2.012387275695801,2.3380088806152344,-0.03515434265136719,0.009587287902832031,-0.011717796325683594,0.4193258285522461,0.6804771423339844,-0.39252567291259766,0.4549751281738281
439,46792748.0,8.943812370300293,-2.033935546875,2.340402603149414,-0.03515434265136719,0.009587287902832031,-0.011717796325683594,0.4193258285522461,0.6804771423339844,-0.39252567291259766,0.4549751281738281
440,46792768.0,8.998881340026855,-1.9980220794677734,2.3380088806152344,0.009587287902832031,-0.011717796325683594,-0.014913558959960938,0.4193258285522461,0.6804771423339844,-0.39252567291259766,0.4549751281738281
441,46792768.0,8.998881340026855,-1.9980220794677734,2.3380088806152344,0.009587287902832031,-0.011717796325683594,-0.014913558959960938,0.4193258285522461,0.6804771423339844,-0.39252567291259766,0.4549751281738281
442,46792768.0,8.998881340026855,-1.9980220794677734,2.3380088806152344,0.009587287902832031,-0.011717796325683594,-0.014913558959960938,0.4193258285522461,0.6804771423339844,-0.39252567291259766,0.4549751281738281
443,46792788.0,8.989303588867188,-1.9884443283081055,2.3595571517944336,0.0,-0.011717796325683594,-0.012783050537109375,0.4193258285522461,0.6804771423339844,-0.39252567291259766,0.4549751281738281
444,46792788.0,8.989303588867188,-1.9884443283081055,2.3595571517944336,0.0,-0.011717796325683594,-0.012783050537109375,0.4193258285522461,0.6804771423339844,-0.39252567291259766,0.4549751281738281
445,46792788.0,8.989303588867188,-1.9884443283081055,2.3595571517944336,0.0,-0.011717796325683594,-0.012783050537109375,0.4193258285522461,0.6804771423339844,-0.39252567291259766,0.4549751281738281
446,46792808.0,8.918672561645508,-2.012387275695801,2.3523740768432617,-0.01597881317138672,0.0031957626342773438,-0.01597881317138672,0.4193258285522461,0.6804771423339844,-0.39252567291259766,0.4549751281738281
447,46792808.0,8.918672561645508,-2.012387275695801,2.3523740768432617,-0.01597881317138672,0.0031957626342773438,-0.01597881317138672,0.4193258285522461,0.6804771423339844,-0.39252567291259766,0.4549751281738281
448,46792808.0,8.918672561645508,-2.012387275695801,2.3523740768432617,-0.01597881317138672,0.0031957626342773438,-0.01597881317138672,0.4193258285522461,0.6804771423339844,-0.39252567291259766,0.4549751281738281
449,46792828.0,8.918672561645508,-2.073441505432129,2.351177215576172,-0.013848304748535156,-0.0021305084228515625,-0.022370338439941406,0.4193258285522461,0.6804771423339844,-0.39252567291259766,0.4549751281738281
450,46792828.0,8.918672561645508,-2.073441505432129,2.351177215576172,-0.013848304748535156,-0.0021305084228515625,-0.022370338439941406,0.4193258285522461,0.6804771423339844,-0.39252567291259766,0.4549751281738281
451,46792828.0,8.918672561645508,-2.073441505432129,2.351177215576172,-0.013848304748535156,-0.0021305084228515625,-0.022370338439941406,0.4193258285522461,0.6804771423339844,-0.39252567291259766,0.4549751281738281
452,46792968.0,8.992895126342773,-2.006402015686035,2.343994140625,0.009587287902832031,-0.007456779479980469,-0.01597881317138672,0.4182472229003906,0.6805210113525391,-0.39377689361572266,0.4548454284667969
453,46792988.0,8.913884162902832,-2.139284133911133,2.353571891784668,0.009587287902832031,-0.007456779479980469,-0.01597881317138672,0.4185495376586914,0.6803045272827148,-0.39407920837402344,0.45462989807128906
454,46793008.0,8.8767728805542,-2.1476640701293945,2.3344173431396484,0.009587287902832031,-0.007456779479980469,-0.01597881317138672,0.4188518524169922,0.6801748275756836,-0.39429569244384766,0.45441436767578125
455,46793028.0,8.90311050415039,-2.0351333618164062,2.340402603149414,0.009587287902832031,-0.007456779479980469,-0.01597881317138672,0.4188079833984375,0.6802186965942383,-0.3941659927368164,0.45437049865722656
456,46793048.0,8.978529930114746,-1.9896421432495117,2.3080806732177734,0.009587287902832031,-0.007456779479980469,-0.01597881317138672,0.4185924530029297,0.6804342269897461,-0.3939504623413086,0.4545869827270508
457,46793168.0,8.983318328857422,-1.9764728546142578,2.381105422973633,0.012783050537109375,-0.013848304748535156,0.0031957626342773438,0.4185495376586914,0.6804342269897461,-0.3938636779785156,0.45462989807128906
458,46793168.0,8.983318328857422,-1.9764728546142578,2.381105422973633,0.012783050537109375,-0.013848304748535156,0.0031957626342773438,0.4185495376586914,0.6804342269897461,-0.3938636779785156,0.45462989807128906
459,46793188.0,8.864801406860352,-2.096186637878418,2.343994140625,0.012783050537109375,-0.013848304748535156,0.0031957626342773438,0.4185495376586914,0.6804342269897461,-0.3938636779785156,0.45462989807128906
460,46793188.0,8.864801406860352,-2.096186637878418,2.343994140625,0.012783050537109375,-0.013848304748535156,0.0031957626342773438,0.4185495376586914,0.6804342269897461,-0.3938636779785156,0.45462989807128906
461,46793208.0,8.898321151733398,-2.037527084350586,2.339205741882324,0.012783050537109375,-0.013848304748535156,0.0031957626342773438,0.4185495376586914,0.6804342269897461,-0.3938636779785156,0.45462989807128906
462,46793208.0,8.898321151733398,-2.037527084350586,2.339205741882324,0.012783050537109375,-0.013848304748535156,0.0031957626342773438,0.4185495376586914,0.6804342269897461,-0.3938636779785156,0.45462989807128906
463,46793224.0,9.083877563476562,-1.942953109741211,2.3368120193481445,0.012783050537109375,-0.013848304748535156,0.0031957626342773438,0.4185495376586914,0.6804342269897461,-0.3938636779785156,0.45462989807128906
464,46793224.0,9.083877563476562,-1.942953109741211,2.3368120193481445,0.012783050537109375,-0.013848304748535156,0.0031957626342773438,0.4185495376586914,0.6804342269897461,-0.3938636779785156,0.45462989807128906
465,46793248.0,9.040781021118164,-1.948939323425293,2.348782539367676,0.012783050537109375,-0.013848304748535156,0.0031957626342773438,0.4185495376586914,0.6804342269897461,-0.3938636779785156,0.45462989807128906
466,46793248.0,9.040781021118164,-1.948939323425293,2.348782539367676,0.012783050537109375,-0.013848304748535156,0.0031957626342773438,0.4185495376586914,0.6804342269897461,-0.3938636779785156,0.45462989807128906
467,46793368.0,8.92465877532959,-2.0794267654418945,2.406245231628418,-0.045806884765625,0.007456779479980469,-0.011717796325683594,0.4185495376586914,0.6804342269897461,-0.3938636779785156,0.45462989807128906
468,46793384.0,8.958178520202637,-2.109355926513672,2.3559656143188477,-0.021305084228515625,0.0010652542114257812,-0.0031957626342773438,0.4185495376586914,0.6804342269897461,-0.3938636779785156,0.45462989807128906
469,46793404.0,8.985712051391602,-1.9860506057739258,2.320052146911621,0.009587287902832031,0.0031957626342773438,0.0,0.4185495376586914,0.6804342269897461,-0.3938636779785156,0.45462989807128906
470,46793424.0,8.921067237854004,-2.0423154830932617,2.378711700439453,0.0031957626342773438,0.0170440673828125,0.0010652542114257812,0.4185495376586914,0.6804342269897461,-0.3938636779785156,0.45462989807128906
471,46793444.0,8.942615509033203,-1.9860506057739258,2.351177215576172,-0.0010652542114257812,0.007456779479980469,-0.0170440673828125,0.4185495376586914,0.6804342269897461,-0.3938636779785156,0.45462989807128906
472,46793564.0,9.002472877502441,-1.9621076583862305,2.3356142044067383,0.0031957626342773438,0.0010652542114257812,0.004261016845703125,0.4198007583618164,0.6791391372680664,-0.39610767364501953,0.4534645080566406
473,46793576.0,8.99409294128418,-1.9573192596435547,2.2973060607910156,0.0031957626342773438,0.0010652542114257812,0.004261016845703125,0.4198007583618164,0.6791391372680664,-0.39610767364501953,0.4534645080566406
474,46793584.0,8.930644035339355,-1.9668960571289062,2.2997007369995117,-0.030893325805664062,0.011717796325683594,0.005326271057128906,0.4198007583618164,0.6791391372680664,-0.39610767364501953,0.4534645080566406
475,46793596.0,8.892335891723633,-1.978867530822754,2.306882858276367,-0.030893325805664062,0.011717796325683594,0.005326271057128906,0.4198007583618164,0.6791391372680664,-0.39610767364501953,0.4534645080566406
476,46793604.0,8.870787620544434,-2.0195703506469727,2.317657470703125,-0.03515434265136719,0.00852203369140625,-0.00852203369140625,0.4198007583618164,0.6791391372680664,-0.39610767364501953,0.4534645080566406
477,46793616.0,8.883955955505371,-1.9872474670410156,2.3092775344848633,-0.03515434265136719,0.00852203369140625,-0.00852203369140625,0.4198007583618164,0.6791391372680664,-0.39610767364501953,0.4534645080566406
478,46793624.0,8.910292625427246,-2.006402015686035,2.3056859970092773,-0.013848304748535156,-0.0063915252685546875,-0.025567054748535156,0.4198007583618164,0.6791391372680664,-0.39610767364501953,0.4534645080566406
479,46793632.0,8.949798583984375,-2.037527084350586,2.3044891357421875,-0.013848304748535156,-0.0063915252685546875,-0.025567054748535156,0.4198007583618164,0.6791391372680664,-0.39610767364501953,0.4534645080566406
480,46793644.0,8.97733211517334,-2.029147148132324,2.310474395751953,-0.013848304748535156,-0.012783050537109375,-0.023435592651367188,0.4198007583618164,0.6791391372680664,-0.39610767364501953,0.4534645080566406
481,46793656.0,9.020429611206055,-2.036330223083496,2.321249008178711,-0.013848304748535156,-0.012783050537109375,-0.023435592651367188,0.4198007583618164,0.6791391372680664,-0.39610767364501953,0.4534645080566406
482,46793672.0,9.031203269958496,-2.096186637878418,2.347585678100586,-0.013848304748535156,-0.012783050537109375,-0.023435592651367188,0.420318603515625,0.6784486770629883,-0.39705753326416016,0.4532918930053711
483,46793696.0,9.033597946166992,-2.1883668899536133,2.406245231628418,-0.013848304748535156,-0.012783050537109375,-0.023435592651367188,0.42070770263671875,0.6781473159790039,-0.39727306365966797,0.45316219329833984
484,46793712.0,9.002472877502441,-2.160832405090332,2.4325828552246094,-0.013848304748535156,-0.012783050537109375,-0.023435592651367188,0.42122554779052734,0.6780176162719727,-0.3974027633666992,0.4527311325073242
485,46793732.0,9.000078201293945,-2.128509521484375,2.41342830657959,-0.013848304748535156,-0.012783050537109375,-0.023435592651367188,0.42174339294433594,0.6780605316162109,-0.39735984802246094,0.4522132873535156
486,46793864.0,11.614625930786133,-7.661678314208984,5.194378852844238,-0.013848304748535156,-0.012783050537109375,-0.023435592651367188,0.4223470687866211,0.6781473159790039,-0.3974456787109375,0.45143604278564453
487,46793864.0,11.614625930786133,-7.661678314208984,5.194378852844238,-0.013848304748535156,-0.012783050537109375,-0.023435592651367188,0.4223470687866211,0.6781473159790039,-0.3974456787109375,0.45143604278564453
488,46793884.0,13.38638973236084,-10.23672103881836,5.725907325744629,-0.8064289093017578,0.36646175384521484,2.5513858795166016,0.4223470687866211,0.6781473159790039,-0.3974456787109375,0.45143604278564453
489,46793884.0,13.38638973236084,-10.23672103881836,5.725907325744629,-0.8064289093017578,0.36646175384521484,2.5513858795166016,0.4223470687866211,0.6781473159790039,-0.3974456787109375,0.45143604278564453
490,46793904.0,14.546415328979492,-12.258686065673828,3.991255760192871,-0.7329235076904297,0.40055084228515625,3.4547576904296875,0.4223470687866211,0.6781473159790039,-0.3974456787109375,0.45143604278564453
491,46793904.0,14.546415328979492,-12.258686065673828,3.991255760192871,-0.7329235076904297,0.40055084228515625,3.4547576904296875,0.4223470687866211,0.6781473159790039,-0.3974456787109375,0.45143604278564453
492,46793924.0,15.426311492919922,-14.14657211303711,3.156850814819336,-0.4144001007080078,0.4144001007080078,4.445483207702637,0.4223470687866211,0.6781473159790039,-0.3974456787109375,0.45143604278564453
493,46793924.0,15.426311492919922,-14.14657211303711,3.156850814819336,-0.4144001007080078,0.4144001007080078,4.445483207702637,0.4223470687866211,0.6781473159790039,-0.3974456787109375,0.45143604278564453
494,46793944.0,15.886012077331543,-16.413949966430664,4.2534284591674805,0.2663240432739258,0.5379743576049805,5.450058937072754,0.4223470687866211,0.6781473159790039,-0.3974456787109375,0.45143604278564453
495,46793944.0,15.886012077331543,-16.413949966430664,4.2534284591674805,0.2663240432739258,0.5379743576049805,5.450058937072754,0.4223470687866211,0.6781473159790039,-0.3974456787109375,0.45143604278564453
496,46793964.0,14.582329750061035,-14.563175201416016,4.4653215408325195,0.3685922622680664,0.7840576171875,6.223464012145996,0.4223470687866211,0.6781473159790039,-0.3974456787109375,0.45143604278564453
497,46793984.0,11.297384262084961,-12.650150299072266,2.8300323486328125,0.21199321746826172,1.1696958541870117,6.4556989669799805,0.4223470687866211,0.6781473159790039,-0.3974456787109375,0.45143604278564453
498,46794004.0,8.705582618713379,-13.132596015930176,3.305295944213867,0.3696575164794922,1.486088752746582,6.627211570739746,0.4223470687866211,0.6781473159790039,-0.3974456787109375,0.45143604278564453
499,46794024.0,6.531580924987793,-10.721561431884766,4.794534683227539,0.5923042297363281,1.8142004013061523,6.9499969482421875,0.4223470687866211,0.6781473159790039,-0.3974456787109375,0.45143604278564453
500,46794044.0,4.581443786621094,-6.177227973937988,5.933012008666992,0.4197263717651367,1.9175338745117188,7.108725547790527,0.4223470687866211,0.6781473159790039,-0.3974456787109375,0.45143604278564453
501,46794064.0,2.3296289443969727,-3.46451473236084,3.7506303787231445,0.4197263717651367,1.9175338745117188,7.108725547790527,0.4223470687866211,0.6781473159790039,-0.3974456787109375,0.45143604278564453
502,46794064.0,2.3296289443969727,-3.46451473236084,3.7506303787231445,0.4197263717651367,1.9175338745117188,7.108725547790527,0.4223470687866211,0.6781473159790039,-0.3974456787109375,0.45143604278564453
503,46794080.0,1.1875600814819336,-3.770981788635254,2.0171756744384766,0.4197263717651367,1.9175338745117188,7.108725547790527,0.4223470687866211,0.6781473159790039,-0.3974456787109375,0.45143604278564453
504,46794080.0,1.1875600814819336,-3.770981788635254,2.0171756744384766,0.4197263717651367,1.9175338745117188,7.108725547790527,0.4223470687866211,0.6781473159790039,-0.3974456787109375,0.45143604278564453
505,46794104.0,1.3958616256713867,-4.737071990966797,2.280546188354492,0.4197263717651367,1.9175338745117188,7.108725547790527,0.4223470687866211,0.6781473159790039,-0.3974456787109375,0.45143604278564453
506,46794104.0,1.3958616256713867,-4.737071990966797,2.280546188354492,0.4197263717651367,1.9175338745117188,7.108725547790527,0.4223470687866211,0.6781473159790039,-0.3974456787109375,0.45143604278564453
507,46794120.0,1.1312942504882812,-1.850773811340332,2.4613142013549805,0.4197263717651367,1.9175338745117188,7.108725547790527,0.4223470687866211,0.6781473159790039,-0.3974456787109375,0.45143604278564453
508,46794120.0,1.1312942504882812,-1.850773811340332,2.4613142013549805,0.4197263717651367,1.9175338745117188,7.108725547790527,0.4223470687866211,0.6781473159790039,-0.3974456787109375,0.45143604278564453
509,46794144.0,0.06105327606201172,0.11971282958984375,2.1105527877807617,0.4197263717651367,1.9175338745117188,7.108725547790527,0.4223470687866211,0.6781473159790039,-0.3974456787109375,0.45143604278564453
510,46794144.0,0.06105327606201172,0.11971282958984375,2.1105527877807617,0.4197263717651367,1.9175338745117188,7.108725547790527,0.4223470687866211,0.6781473159790039,-0.3974456787109375,0.45143604278564453
511,46794160.0,-2.006402015686035,-1.1971368789672852,0.7506046295166016,0.29721736907958984,1.5116558074951172,5.4948015213012695,0.4223470687866211,0.6781473159790039,-0.3974456787109375,0.45143604278564453
512,46794184.0,-3.3196611404418945,-3.1125564575195312,0.005985260009765625,-0.12996578216552734,1.3827552795410156,5.06655216217041,0.4223470687866211,0.6781473159790039,-0.3974456787109375,0.45143604278564453
513,46794200.0,-3.5088090896606445,-3.1676254272460938,1.0989713668823242,0.1736431121826172,1.1260185241699219,4.465723991394043,0.4223470687866211,0.6781473159790039,-0.3974456787109375,0.45143604278564453
514,46794224.0,-3.7302799224853516,-3.1676254272460938,0.6476507186889648,0.4261178970336914,1.051447868347168,3.849982261657715,0.4223470687866211,0.6781473159790039,-0.3974456787109375,0.45143604278564453
515,46794240.0,-4.495250701904297,-3.5854263305664062,-0.4968118667602539,0.6327857971191406,1.0652961730957031,3.3418359756469727,0.4223470687866211,0.6781473159790039,-0.3974456787109375,0.45143604278564453
516,46794264.0,-4.89509391784668,-3.4286012649536133,-0.17238712310791016,0.6327857971191406,1.0652961730957031,3.3418359756469727,0.4223470687866211,0.6781473159790039,-0.3974456787109375,0.45143604278564453
517,46794280.0,-5.543942451477051,-2.280546188354492,0.9972152709960938,0.6327857971191406,1.0652961730957031,3.3418359756469727,0.4223470687866211,0.6781473159790039,-0.3974456787109375,0.45143604278564453
518,46794304.0,-5.984489440917969,-2.3990631103515625,1.786128044128418,0.6327857971191406,1.0652961730957031,3.3418359756469727,0.4223470687866211,0.6781473159790039,-0.3974456787109375,0.45143604278564453
519,46794320.0,-6.835654258728027,-3.0131940841674805,1.3012876510620117,0.6327857971191406,1.0652961730957031,3.3418359756469727,0.4223470687866211,0.6781473159790039,-0.3974456787109375,0.45143604278564453
520,46794344.0,-7.0631103515625,-3.768588066101074,0.8104610443115234,0.6327857971191406,1.0652961730957031,3.3418359756469727,0.4223470687866211,0.6781473159790039,-0.3974456787109375,0.45143604278564453
521,46794464.0,-9.390344619750977,-2.097384452819824,2.84439754486084,1.1377363204956055,0.3504819869995117,0.1384878158569336,0.4239006042480469,0.7053794860839844,0.3333549499511719,-0.45998191833496094
522,46794480.0,-8.226727485656738,0.9517240524291992,5.044735908508301,1.1377363204956055,0.3504819869995117,0.1384878158569336,0.4239006042480469,0.7053794860839844,0.3333549499511719,-0.45998191833496094
523,46794500.0,-8.862407684326172,-1.7789459228515625,3.025165557861328,1.1377363204956055,0.3504819869995117,0.1384878158569336,0.4239006042480469,0.7053794860839844,0.3333549499511719,-0.45998191833496094
524,46794520.0,-7.841249465942383,4.767000198364258,-23.552478790283203,1.1377363204956055,0.3504819869995117,0.1384878158569336,0.4239006042480469,0.7053794860839844,0.3333549499511719,-0.45998191833496094
525,46794540.0,1.413818359375,-4.197162628173828,38.34071731567383,1.1377363204956055,0.3504819869995117,0.1384878158569336,0.4239006042480469,0.7053794860839844,0.3333549499511719,-0.45998191833496094
526,46794560.0,-1.8423938751220703,-0.8056726455688477,-0.2130899429321289,-2.1146135330200195,2.123136520385742,-3.4057540893554688,0.4239006042480469,0.7053794860839844,0.3333549499511719,-0.45998191833496094
527,46794580.0,-11.733142852783203,-10.502485275268555,-10.686844825744629,-1.0450553894042969,0.8831310272216797,-0.2833681106567383,0.5080595016479492,0.6597185134887695,0.32480907440185547,-0.4485025405883789
528,46794600.0,-8.244684219360352,-7.484501838684082,-0.705113410949707,2.686677932739258,-0.6626138687133789,-1.5787696838378906,0.5121164321899414,0.6595020294189453,0.3172569274902344,-0.4495382308959961
529,46794620.0,-4.857982635498047,-4.820871353149414,-1.2881193161010742,2.0847854614257812,-1.564920425415039,-1.3380126953125,0.4977445602416992,0.6820745468139648,0.3010721206665039,-0.4431934356689453
530,46794640.0,-6.627351760864258,-4.095406532287598,0.6907482147216797,1.0802106857299805,-1.6171207427978516,-1.6426877975463867,0.4869985580444336,0.702056884765625,0.29015350341796875,-0.43097972869873047
531,46794760.0,-3.057488441467285,-3.8583736419677734,1.4820556640625,-0.678593635559082,-3.462214469909668,-2.979635238647461,0.4869985580444336,0.702056884765625,0.29015350341796875,-0.43097972869873047
532,46794780.0,-2.5127906799316406,-4.016395568847656,0.26935577392578125,-0.7158794403076172,-3.5719404220581055,-3.5197410583496094,0.4869985580444336,0.702056884765625,0.29015350341796875,-0.43097972869873047
533,46794800.0,-1.0690431594848633,-4.82206916809082,3.4429664611816406,0.11079025268554688,-3.685927391052246,-3.8989858627319336,0.4869985580444336,0.702056884765625,0.29015350341796875,-0.43097972869873047
534,46794820.0,0.10295295715332031,-5.379935264587402,5.188392639160156,1.863204002380371,-3.4590187072753906,-4.163180351257324,0.4869985580444336,0.702056884765625,0.29015350341796875,-0.43097972869873047
535,46794840.0,-0.7925043106079102,-3.925413131713867,4.284554481506348,3.0776424407958984,-3.240633010864258,-4.332562446594238,0.4869985580444336,0.702056884765625,0.29015350341796875,-0.43097972869873047
536,46794860.0,-1.453324317932129,-0.10654449462890625,4.522784233093262,2.9604597091674805,-3.6145524978637695,-4.399676322937012,0.4869985580444336,0.702056884765625,0.29015350341796875,-0.43097972869873047
537,46794880.0,0.5147686004638672,0.37470340728759766,5.751047134399414,1.655470848083496,-4.028952598571777,-4.432700157165527,0.4869985580444336,0.702056884765625,0.29015350341796875,-0.43097972869873047
538,46794900.0,3.4549379348754883,-3.312479019165039,7.49647331237793,0.6722021102905273,-3.848917007446289,-4.569058418273926,0.4869985580444336,0.702056884765625,0.29015350341796875,-0.43097972869873047
539,46794920.0,4.193572044372559,-5.6145734786987305,9.0970458984375,0.16831684112548828,-3.419602394104004,-4.630845069885254,0.4869985580444336,0.702056884765625,0.29015350341796875,-0.43097972869873047
540,46794940.0,2.788132667541504,-2.785737991333008,8.103422164916992,-0.3909635543823242,-3.271526336669922,-4.696893692016602,0.4869985580444336,0.702056884765625,0.29015350341796875,-0.43097972869873047
541,46794960.0,4.8112945556640625,-6.900299072265625,9.83448314666748,-1.5574636459350586,-3.235306739807129,-4.621257781982422,0.4869985580444336,0.702056884765625,0.29015350341796875,-0.43097972869873047
542,46794980.0,8.871984481811523,-10.880781173706055,9.698009490966797,-2.89760684967041,-2.9412841796875,-4.129090309143066,0.4869985580444336,0.702056884765625,0.29015350341796875,-0.43097972869873047
543,46795000.0,7.9741315841674805,-11.084294319152832,8.420663833618164,-1.7950248718261719,-1.8131351470947266,-4.296341896057129,0.4869985580444336,0.702056884765625,0.29015350341796875,-0.43097972869873047
544,46795020.0,5.197970390319824,-7.401899337768555,7.585062026977539,-0.26099681854248047,-1.5191125869750977,-4.286754608154297,0.4869985580444336,0.702056884765625,0.29015350341796875,-0.43097972869873047
545,46795040.0,6.021600723266602,-4.110969543457031,5.418243408203125,-0.21518993377685547,-2.1305932998657227,-4.148265838623047,0.4869985580444336,0.702056884765625,0.29015350341796875,-0.43097972869873047
546,46795060.0,10.057150840759277,-2.8156661987304688,5.291346549987793,-0.21518993377685547,-2.1305932998657227,-4.148265838623047,0.4869985580444336,0.702056884765625,0.29015350341796875,-0.43097972869873047
547,46795080.0,14.26748275756836,-9.087469100952148,6.314899444580078,-0.21518993377685547,-2.1305932998657227,-4.148265838623047,0.4869985580444336,0.702056884765625,0.29015350341796875,-0.43097972869873047
548,46795100.0,14.265088081359863,-7.515627861022949,6.817696571350098,-0.21518993377685547,-2.1305932998657227,-4.148265838623047,0.4869985580444336,0.702056884765625,0.29015350341796875,-0.43097972869873047
549,46795120.0,12.561561584472656,-3.9744958877563477,5.980897903442383,-0.21518993377685547,-2.1305932998657227,-4.148265838623047,0.4869985580444336,0.702056884765625,0.29015350341796875,-0.43097972869873047
550,46795136.0,13.588706016540527,-4.006817817687988,4.207937240600586,-0.21518993377685547,-2.1305932998657227,-4.148265838623047,0.4869985580444336,0.702056884765625,0.29015350341796875,-0.43097972869873047
551,46795160.0,14.858868598937988,-4.506024360656738,5.6468963623046875,-1.103647232055664,-2.1998376846313477,-3.499500274658203,0.4869985580444336,0.702056884765625,0.29015350341796875,-0.43097972869873047
552,46795180.0,14.314170837402344,-5.061496734619141,5.5128173828125,-0.9470481872558594,-1.756673812866211,-2.9178476333618164,0.4869985580444336,0.702056884765625,0.29015350341796875,-0.43097972869873047
553,46795200.0,12.33889389038086,-4.966922760009766,4.87474250793457,-0.7350540161132812,-1.1334753036499023,-2.2797346115112305,0.4869985580444336,0.702056884765625,0.29015350341796875,-0.43097972869873047
554,46795220.0,10.740715980529785,-3.951749801635742,4.27497673034668,-0.7425117492675781,-0.6508960723876953,-1.374232292175293,0.4869985580444336,0.702056884765625,0.29015350341796875,-0.43097972869873047
555,46795240.0,9.970956802368164,-2.9904489517211914,4.483279228210449,-0.9065675735473633,-0.3462209701538086,-0.6221332550048828,0.4869985580444336,0.702056884765625,0.29015350341796875,-0.43097972869873047
556,46795260.0,9.534001350402832,-1.5203638076782227,3.8200645446777344,-0.9065675735473633,-0.3462209701538086,-0.6221332550048828,0.4869985580444336,0.702056884765625,0.29015350341796875,-0.43097972869873047
557,46795280.0,9.482524871826172,-0.6344823837280273,3.252621650695801,-0.9065675735473633,-0.3462209701538086,-0.6221332550048828,0.4869985580444336,0.702056884765625,0.29015350341796875,-0.43097972869873047
558,46795300.0,9.304150581359863,-1.1779823303222656,2.96291446685791,-0.9065675735473633,-0.3462209701538086,-0.6221332550048828,0.4869985580444336,0.702056884765625,0.29015350341796875,-0.43097972869873047
559,46795320.0,9.012049674987793,-2.037527084350586,2.440962791442871,-0.9065675735473633,-0.3462209701538086,-0.6221332550048828,0.4869985580444336,0.702056884765625,0.29015350341796875,-0.43097972869873047
560,46795336.0,8.781002044677734,-2.0494985580444336,2.000415802001953,-0.9065675735473633,-0.3462209701538086,-0.6221332550048828,0.4869985580444336,0.702056884765625,0.29015350341796875,-0.43097972869873047
561,46795360.0,8.682836532592773,-1.599374771118164,2.004007339477539,-0.1502065658569336,0.13422679901123047,0.635981559753418,0.4869985580444336,0.702056884765625,0.29015350341796875,-0.43097972869873047
562,46795376.0,8.917475700378418,-1.2785425186157227,2.4325828552246094,0.15872859954833984,0.12570476531982422,0.4506196975708008,0.4869985580444336,0.702056884765625,0.29015350341796875,-0.43097972869873047
563,46795400.0,9.244294166564941,-1.0762262344360352,2.1141443252563477,0.2578010559082031,0.11185550689697266,0.33237171173095703,0.4869985580444336,0.702056884765625,0.29015350341796875,-0.43097972869873047
564,46795416.0,9.251477241516113,-0.7817306518554688,1.7538061141967773,0.14701080322265625,0.1214437484741211,0.31532764434814453,0.4869985580444336,0.702056884765625,0.29015350341796875,-0.43097972869873047
565,46795436.0,9.170071601867676,-1.0439033508300781,1.8052825927734375,-0.04367637634277344,0.13103103637695312,0.2641935348510742,0.4869985580444336,0.702056884765625,0.29015350341796875,-0.43097972869873047
566,46795556.0,9.073103904724121,-1.449732780456543,1.9968242645263672,-0.04367637634277344,0.13103103637695312,0.2641935348510742,0.39226627349853516,0.6815996170043945,-0.3731040954589844,0.4923067092895508
567,46795576.0,8.898321151733398,-1.674795150756836,1.909433364868164,-0.04367637634277344,0.13103103637695312,0.2641935348510742,0.39226627349853516,0.6815996170043945,-0.3731040954589844,0.4923067092895508
