,timestamp,accel_x,accel_y,accel_z,gyro_x,gyro_y,gyro_z,ori_scalar,ori_x,ori_y,ori_z
0,48947344.0,9.794977188110352,-1.818450927734375,2.682784080505371,1.124953269958496,-0.12890052795410156,0.4335756301879883,-0.032067298889160156,-0.2756528854370117,0.9522886276245117,-0.12692928314208984
1,48947364.0,9.902719497680664,-1.6221208572387695,2.285334587097168,1.3028573989868164,-0.07670116424560547,0.41226959228515625,-0.032067298889160156,-0.2756528854370117,0.9522886276245117,-0.12692928314208984
2,48947384.0,9.567521095275879,-1.266571044921875,2.4792709350585938,1.4306936264038086,-0.025567054748535156,0.2652587890625,-0.032067298889160156,-0.2756528854370117,0.9522886276245117,-0.12692928314208984
3,48947392.0,9.4968900680542,-1.1636171340942383,2.77376651763916,1.438150405883789,-0.041545867919921875,0.1906881332397461,-0.032067298889160156,-0.2756528854370117,0.9522886276245117,-0.12692928314208984
4,48947400.0,9.557944297790527,-1.1288995742797852,2.966506004333496,1.416844367980957,-0.07137489318847656,0.11931324005126953,-0.032067298889160156,-0.2756528854370117,0.9522886276245117,-0.12692928314208984
5,48947412.0,9.721952438354492,-1.0594663619995117,2.9653091430664062,1.3710365295410156,-0.10013771057128906,0.053264617919921875,-0.032067298889160156,-0.2756528854370117,0.9522886276245117,-0.12692928314208984
6,48947424.0,9.830891609191895,-1.0391149520874023,2.904254913330078,1.3092498779296875,-0.11079025268554688,0.0031957626342773438,-0.032067298889160156,-0.2756528854370117,0.9522886276245117,-0.12692928314208984
7,48947440.0,9.349641799926758,-0.8164472579956055,2.7893295288085938,1.3092498779296875,-0.11079025268554688,0.0031957626342773438,-0.032067298889160156,-0.2756528854370117,0.9522886276245117,-0.12692928314208984
8,48947464.0,8.321301460266113,-0.6201162338256836,3.010800361633301,1.3092498779296875,-0.11079025268554688,0.0031957626342773438,-0.032067298889160156,-0.2756528854370117,0.9522886276245117,-0.12692928314208984
9,48947480.0,7.7490692138671875,-0.7589845657348633,3.4166297912597656,1.3092498779296875,-0.11079025268554688,0.0031957626342773438,-0.032067298889160156,-0.2756528854370117,0.9522886276245117,-0.12692928314208984
10,48947504.0,8.09384536743164,-1.0295372009277344,3.063473701477051,1.3092498779296875,-0.11079025268554688,0.0031957626342773438,-0.032067298889160156,-0.2756528854370117,0.9522886276245117,-0.12692928314208984
11,48947520.0,8.577488899230957,-1.0391149520874023,2.536733627319336,1.3092498779296875,-0.11079025268554688,0.0031957626342773438,-0.031894683837890625,-0.27353858947753906,0.9525909423828125,-0.12943267822265625
12,48947672.0,9.879974365234375,-1.5754318237304688,2.22308349609375,-0.28656482696533203,0.09907245635986328,-0.019174575805664062,-0.034786224365234375,-0.26676273345947266,0.956690788269043,-0.11108970642089844
13,48947692.0,9.112608909606934,-1.7406368255615234,2.4864540100097656,-0.22051620483398438,0.09587669372558594,-0.0628519058227539,-0.03487205505371094,-0.2660713195800781,0.957122802734375,-0.10901832580566406
14,48947712.0,8.71396255493164,-1.7705659866333008,2.717501640319824,-0.12996578216552734,0.04793834686279297,-0.1374225616455078,-0.03513145446777344,-0.2646045684814453,0.9576406478881836,-0.10798263549804688
15,48947732.0,8.584671020507812,-1.7514114379882812,2.6337013244628906,-0.041545867919921875,-0.0031957626342773438,-0.19494915008544922,-0.03560638427734375,-0.26270580291748047,0.9581584930419922,-0.10785293579101562
16,48947752.0,8.575094223022461,-1.765777587890625,2.559478759765625,-0.026632308959960938,-0.021305084228515625,-0.22371196746826172,-0.036210060119628906,-0.2605476379394531,0.9587621688842773,-0.1076803207397461
17,48947872.0,10.048770904541016,-2.039921760559082,2.3966684341430664,-0.026632308959960938,-0.021305084228515625,-0.22371196746826172,-0.595240592956543,-0.25769901275634766,0.7570400238037109,-0.07837581634521484
18,48947892.0,10.060741424560547,-2.000415802001953,2.3260374069213867,-0.026632308959960938,-0.021305084228515625,-0.22371196746826172,-0.595240592956543,-0.25769901275634766,0.7570400238037109,-0.07837581634521484
19,48947912.0,9.815328598022461,-2.068653106689453,2.554690361022949,-0.026632308959960938,-0.021305084228515625,-0.22371196746826172,-0.595240592956543,-0.25769901275634766,0.7570400238037109,-0.07837581634521484
20,48947932.0,9.514846801757812,-2.109355926513672,2.5822248458862305,-0.026632308959960938,-0.021305084228515625,-0.22371196746826172,-0.595240592956543,-0.25769901275634766,0.7570400238037109,-0.07837581634521484
21,48947952.0,9.310136795043945,-2.068653106689453,2.558281898498535,-0.026632308959960938,-0.021305084228515625,-0.22371196746826172,-0.595240592956543,-0.25769901275634766,0.7570400238037109,-0.07837581634521484
22,48948072.0,9.270630836486816,-1.9932336807250977,2.8551721572875977,0.053264617919921875,-0.04474163055419922,0.04474163055419922,-0.5992107391357422,-0.26374149322509766,0.7522068023681641,-0.07440567016601562
23,48948088.0,9.462173461914062,-1.7813396453857422,2.7462329864501953,0.10759449005126953,-0.025567054748535156,0.07137489318847656,-0.5992107391357422,-0.26374149322509766,0.7522068023681641,-0.07440567016601562
24,48948112.0,9.486115455627441,-1.701131820678711,2.628912925720215,0.08735370635986328,0.0010652542114257812,0.11718177795410156,-0.5992107391357422,-0.26374149322509766,0.7522068023681641,-0.07440567016601562
25,48948128.0,9.487313270568848,-1.6592321395874023,2.7929210662841797,0.02769756317138672,0.023435592651367188,0.1331615447998047,-0.5992107391357422,-0.26374149322509766,0.7522068023681641,-0.07440567016601562
26,48948152.0,9.585478782653809,-1.7573966979980469,2.8623552322387695,-0.045806884765625,0.011717796325683594,0.13422679901123047,-0.5992107391357422,-0.26374149322509766,0.7522068023681641,-0.07440567016601562
27,48948272.0,9.225139617919922,-1.6556406021118164,2.6803903579711914,0.031958580017089844,0.04687213897705078,0.0862884521484375,-0.6002473831176758,-0.27025794982910156,0.7494878768920898,-0.06965827941894531
28,48948288.0,9.07669448852539,-1.6771888732910156,2.5858163833618164,0.025567054748535156,0.06391716003417969,0.08735370635986328,-0.6002473831176758,-0.27025794982910156,0.7494878768920898,-0.06965827941894531
29,48948308.0,9.282602310180664,-1.6795835494995117,2.6217308044433594,0.00852203369140625,0.0287628173828125,0.07137489318847656,-0.6002473831176758,-0.27025794982910156,0.7494878768920898,-0.06965827941894531
30,48948328.0,9.460975646972656,-1.6340923309326172,2.8156661987304688,0.009587287902832031,0.011717796325683594,0.03835010528564453,-0.6002473831176758,-0.27025794982910156,0.7494878768920898,-0.06965827941894531
31,48948468.0,8.97493839263916,-1.7705659866333008,2.588210105895996,-0.04793834686279297,0.030893325805664062,0.005326271057128906,-0.6002473831176758,-0.2663307189941406,0.7509984970092773,-0.06931304931640625
32,48948488.0,9.085075378417969,-1.8088741302490234,2.638490676879883,-0.04793834686279297,0.0063915252685546875,0.0063915252685546875,-0.6002473831176758,-0.2663307189941406,0.7509984970092773,-0.06931304931640625
33,48948508.0,9.240702629089355,-1.6987371444702148,2.5810279846191406,-0.03515434265136719,-0.007456779479980469,0.0031957626342773438,-0.6002473831176758,-0.2663307189941406,0.7509984970092773,-0.06931304931640625
34,48948528.0,9.247885704040527,-1.7502145767211914,2.48166561126709,-0.05113410949707031,-0.007456779479980469,-0.012783050537109375,-0.6002473831176758,-0.2663307189941406,0.7509984970092773,-0.06931304931640625
35,48948548.0,9.122185707092285,-1.9034481048583984,2.5163822174072266,-0.07244014739990234,-0.00852203369140625,-0.03835010528564453,-0.6002473831176758,-0.2663307189941406,0.7509984970092773,-0.06931304931640625
36,48948668.0,9.338868141174316,-1.8974618911743164,2.536733627319336,-0.0916147232055664,-0.06604766845703125,-0.07563591003417969,-0.6056852340698242,-0.2561454772949219,0.7500486373901367,-0.0701761245727539
37,48948688.0,9.383162498474121,-1.9872474670410156,2.405048370361328,-0.12037849426269531,-0.07244014739990234,-0.025567054748535156,-0.6065912246704102,-0.25519561767578125,0.7497034072875977,-0.06952857971191406
38,48948708.0,9.366402626037598,-2.091398239135742,2.4277944564819336,-0.12357425689697266,-0.07244014739990234,0.0170440673828125,-0.6075410842895508,-0.2545919418334961,0.7491855621337891,-0.06875133514404297
39,48948728.0,9.462173461914062,-2.255406379699707,2.4649057388305664,-0.08415794372558594,-0.08735370635986328,0.045806884765625,-0.6085329055786133,-0.2545051574707031,0.7484951019287109,-0.0681905746459961
40,48948748.0,9.548367500305176,-2.197943687438965,2.5738449096679688,0.0063915252685546875,-0.09374523162841797,0.057525634765625,-0.6092243194580078,-0.25506591796875,0.7477617263793945,-0.06827735900878906
41,48948768.0,9.598647117614746,-1.9824590682983398,2.6193361282348633,0.0063915252685546875,-0.09374523162841797,0.057525634765625,-0.6092243194580078,-0.25506591796875,0.7477617263793945,-0.06827735900878906
42,48948788.0,9.723149299621582,-1.968092918395996,2.6157445907592773,0.0063915252685546875,-0.09374523162841797,0.057525634765625,-0.6092243194580078,-0.25506591796875,0.7477617263793945,-0.06827735900878906
43,48948808.0,9.638152122497559,-2.039921760559082,2.649264335632324,0.0063915252685546875,-0.09374523162841797,0.057525634765625,-0.6092243194580078,-0.25506591796875,0.7477617263793945,-0.06827735900878906
44,48948824.0,9.498086929321289,-2.1081581115722656,2.65285587310791,0.0063915252685546875,-0.09374523162841797,0.057525634765625,-0.6092243194580078,-0.25506591796875,0.7477617263793945,-0.06827735900878906
45,48948848.0,9.54716968536377,-2.0279502868652344,2.679192543029785,0.0063915252685546875,-0.09374523162841797,0.057525634765625,-0.6092243194580078,-0.25506591796875,0.7477617263793945,-0.06827735900878906
46,48948968.0,8.948601722717285,-1.9896421432495117,2.409836769104004,-0.0021305084228515625,0.00852203369140625,0.16938209533691406,-0.6117267608642578,-0.2626619338989258,0.7437906265258789,-0.059645652770996094
47,48948988.0,9.09584903717041,-2.007598876953125,2.5211706161499023,-0.0021305084228515625,0.00852203369140625,0.16938209533691406,-0.6115541458129883,-0.26374149322509766,0.7434883117675781,-0.06059455871582031
48,48949008.0,9.49569320678711,-2.002810478210449,2.409836769104004,-0.0021305084228515625,0.00852203369140625,0.16938209533691406,-0.6116409301757812,-0.2646474838256836,0.7429275512695312,-0.062320709228515625
49,48949028.0,9.603435516357422,-1.9357709884643555,2.3715286254882812,-0.0021305084228515625,0.00852203369140625,0.16938209533691406,-0.6116838455200195,-0.265380859375,0.7424526214599609,-0.06426334381103516
50,48949048.0,9.329291343688965,-2.011190414428711,2.433779716491699,-0.0021305084228515625,0.00852203369140625,0.16938209533691406,-0.6116838455200195,-0.26581287384033203,0.7421941757202148,-0.06624889373779297
51,48949068.0,9.219154357910156,-2.10097599029541,2.478074073791504,0.17577362060546875,-0.07030868530273438,-0.0862884521484375,-0.6116838455200195,-0.26581287384033203,0.7421941757202148,-0.06624889373779297
52,48949088.0,9.232322692871094,-1.9800643920898438,2.4912424087524414,0.20560169219970703,-0.07776641845703125,-0.06391716003417969,-0.6116838455200195,-0.26581287384033203,0.7421941757202148,-0.06624889373779297
53,48949108.0,9.391542434692383,-1.9022512435913086,2.4122314453125,0.19707965850830078,-0.07030868530273438,-0.026632308959960938,-0.6116838455200195,-0.26581287384033203,0.7421941757202148,-0.06624889373779297
54,48949128.0,9.550761222839355,-1.9956274032592773,2.4924392700195312,0.12677001953125,-0.07670116424560547,0.0,-0.6116838455200195,-0.26581287384033203,0.7421941757202148,-0.06624889373779297
55,48949148.0,9.4968900680542,-1.9501361846923828,2.5271568298339844,0.0745706558227539,-0.05859088897705078,0.0,-0.6116838455200195,-0.26581287384033203,0.7421941757202148,-0.06624889373779297
56,48949264.0,9.217957496643066,-2.0937929153442383,2.473285675048828,-0.05539512634277344,-0.019174575805664062,0.08202743530273438,-0.6116838455200195,-0.26581287384033203,0.7421941757202148,-0.06624889373779297
57,48949264.0,9.217957496643066,-2.0937929153442383,2.473285675048828,-0.05539512634277344,-0.019174575805664062,0.08202743530273438,-0.6116838455200195,-0.26581287384033203,0.7421941757202148,-0.06624889373779297
58,48949288.0,9.173663139343262,-2.069849967956543,2.4301881790161133,-0.05539512634277344,-0.019174575805664062,0.08202743530273438,-0.6116838455200195,-0.26581287384033203,0.7421941757202148,-0.06624889373779297
59,48949288.0,9.173663139343262,-2.069849967956543,2.4301881790161133,-0.05539512634277344,-0.019174575805664062,0.08202743530273438,-0.6116838455200195,-0.26581287384033203,0.7421941757202148,-0.06624889373779297
60,48949304.0,9.277813911437988,-2.0758352279663086,2.445751190185547,-0.05539512634277344,-0.019174575805664062,0.08202743530273438,-0.6116838455200195,-0.26581287384033203,0.7421941757202148,-0.06624889373779297
61,48949304.0,9.277813911437988,-2.0758352279663086,2.445751190185547,-0.05539512634277344,-0.019174575805664062,0.08202743530273438,-0.6116838455200195,-0.26581287384033203,0.7421941757202148,-0.06624889373779297
62,48949328.0,9.246688842773438,-2.187169075012207,2.53194522857666,-0.05539512634277344,-0.019174575805664062,0.08202743530273438,-0.6116838455200195,-0.26581287384033203,0.7421941757202148,-0.06624889373779297
63,48949328.0,9.246688842773438,-2.187169075012207,2.53194522857666,-0.05539512634277344,-0.019174575805664062,0.08202743530273438,-0.6116838455200195,-0.26581287384033203,0.7421941757202148,-0.06624889373779297
64,48949344.0,9.053949356079102,-2.1763954162597656,2.4002599716186523,-0.05539512634277344,-0.019174575805664062,0.08202743530273438,-0.6116838455200195,-0.26581287384033203,0.7421941757202148,-0.06624889373779297
65,48949344.0,9.053949356079102,-2.1763954162597656,2.4002599716186523,-0.05539512634277344,-0.019174575805664062,0.08202743530273438,-0.6116838455200195,-0.26581287384033203,0.7421941757202148,-0.06624889373779297
66,48949368.0,9.000078201293945,-2.1835784912109375,2.3020944595336914,0.060721397399902344,-0.0031957626342773438,0.0,-0.6116838455200195,-0.26581287384033203,0.7421941757202148,-0.06624889373779297
67,48949384.0,9.018034934997559,-2.324840545654297,2.3320226669311523,0.033023834228515625,-0.0063915252685546875,-0.030893325805664062,-0.6116838455200195,-0.26581287384033203,0.7421941757202148,-0.06624889373779297
68,48949404.0,9.147326469421387,-2.409836769104004,2.3559656143188477,0.014913558959960938,-0.024501800537109375,-0.0628519058227539,-0.6116838455200195,-0.26581287384033203,0.7421941757202148,-0.06624889373779297
69,48949424.0,9.361613273620605,-2.3356142044067383,2.4565258026123047,0.04474163055419922,-0.034089088439941406,-0.08522319793701172,-0.6116838455200195,-0.26581287384033203,0.7421941757202148,-0.06624889373779297
70,48949444.0,9.50646686553955,-2.2578001022338867,2.437371253967285,0.05859088897705078,-0.04474163055419922,-0.09267997741699219,-0.6116838455200195,-0.26581287384033203,0.7421941757202148,-0.06624889373779297
71,48949564.0,9.541184425354004,-2.4768762588500977,2.442159652709961,0.05859088897705078,-0.04474163055419922,-0.09267997741699219,-0.6135826110839844,-0.26728057861328125,0.7390861511230469,-0.07677936553955078
72,48949584.0,9.611815452575684,-2.4840593338012695,2.357163429260254,0.05859088897705078,-0.04474163055419922,-0.09267997741699219,-0.6135826110839844,-0.26728057861328125,0.7390861511230469,-0.07677936553955078
73,48949604.0,9.462173461914062,-2.4613142013549805,2.340402603149414,0.05859088897705078,-0.04474163055419922,-0.09267997741699219,-0.6135826110839844,-0.26728057861328125,0.7390861511230469,-0.07677936553955078
74,48949624.0,9.325699806213379,-2.4768762588500977,2.4218082427978516,0.05859088897705078,-0.04474163055419922,-0.09267997741699219,-0.6135826110839844,-0.26728057861328125,0.7390861511230469,-0.07677936553955078
75,48949644.0,9.158100128173828,-2.4792709350585938,2.431385040283203,0.05859088897705078,-0.04474163055419922,-0.09267997741699219,-0.6135826110839844,-0.26728057861328125,0.7390861511230469,-0.07677936553955078
76,48949664.0,8.988106727600098,-2.5235652923583984,2.440962791442871,-0.02769756317138672,-0.010652542114257812,0.06498241424560547,-0.6135826110839844,-0.26728057861328125,0.7390861511230469,-0.07677936553955078
77,48949684.0,8.984515190124512,-2.4325828552246094,2.473285675048828,0.02769756317138672,-0.011717796325683594,0.10865974426269531,-0.6135826110839844,-0.26728057861328125,0.7390861511230469,-0.07677936553955078
78,48949704.0,9.161691665649414,-2.3954715728759766,2.4936370849609375,0.0862884521484375,-0.009587287902832031,0.15766334533691406,-0.6135826110839844,-0.26728057861328125,0.7390861511230469,-0.07677936553955078
79,48949724.0,9.397527694702148,-2.230266571044922,2.469694137573242,0.11931324005126953,0.005326271057128906,0.2013406753540039,-0.6135826110839844,-0.26728057861328125,0.7390861511230469,-0.07677936553955078
80,48949744.0,9.586675643920898,-2.1991405487060547,2.433779716491699,0.11185550689697266,0.019174575805664062,0.23329925537109375,-0.6135826110839844,-0.26728057861328125,0.7390861511230469,-0.07677936553955078
81,48949764.0,9.659700393676758,-2.1704092025756836,2.408639907836914,0.11185550689697266,0.019174575805664062,0.23329925537109375,-0.6135826110839844,-0.26728057861328125,0.7390861511230469,-0.07677936553955078
82,48949784.0,9.519636154174805,-2.1141443252563477,2.4553279876708984,0.11185550689697266,0.019174575805664062,0.23329925537109375,-0.6135826110839844,-0.26728057861328125,0.7390861511230469,-0.07677936553955078
83,48949804.0,9.347248077392578,-2.0494985580444336,2.3607540130615234,0.11185550689697266,0.019174575805664062,0.23329925537109375,-0.6135826110839844,-0.26728057861328125,0.7390861511230469,-0.07677936553955078
84,48949824.0,9.469355583190918,-2.098581314086914,2.248223304748535,0.11185550689697266,0.019174575805664062,0.23329925537109375,-0.6135826110839844,-0.26728057861328125,0.7390861511230469,-0.07677936553955078
85,48949844.0,9.490904808044434,-2.130904197692871,2.2745609283447266,0.11185550689697266,0.019174575805664062,0.23329925537109375,-0.6135826110839844,-0.26728057861328125,0.7390861511230469,-0.07677936553955078
86,48949864.0,9.361613273620605,-2.1847753524780273,2.2769546508789062,0.07563591003417969,0.05965614318847656,0.11718177795410156,-0.6135826110839844,-0.26728057861328125,0.7390861511230469,-0.07677936553955078
87,48949884.0,9.295770645141602,-2.0937929153442383,2.34279727935791,0.08415794372558594,0.030893325805664062,0.0628519058227539,-0.6135826110839844,-0.26728057861328125,0.7390861511230469,-0.07677936553955078
88,48949904.0,9.138946533203125,-2.1548471450805664,2.328432083129883,0.07670116424560547,0.014913558959960938,0.03515434265136719,-0.6135826110839844,-0.26728057861328125,0.7390861511230469,-0.07677936553955078
89,48949924.0,8.97493839263916,-2.2470264434814453,2.2973060607910156,0.03941535949707031,0.0,0.023435592651367188,-0.6135826110839844,-0.26728057861328125,0.7390861511230469,-0.07677936553955078
90,48949944.0,9.059934616088867,-2.351177215576172,2.3966684341430664,0.05859088897705078,-0.024501800537109375,0.0063915252685546875,-0.6135826110839844,-0.26728057861328125,0.7390861511230469,-0.07677936553955078
91,48949964.0,9.366402626037598,-2.406245231628418,2.475679397583008,0.13103103637695312,-0.054329872131347656,-0.021305084228515625,-0.6135826110839844,-0.26728057861328125,0.7390861511230469,-0.07677936553955078
92,48949984.0,9.604632377624512,-2.306882858276367,2.504410743713379,0.23756027221679688,-0.06711292266845703,-0.040480613708496094,-0.6135826110839844,-0.26728057861328125,0.7390861511230469,-0.07677936553955078
93,48950004.0,9.451398849487305,-2.187169075012207,2.5738449096679688,0.2886953353881836,-0.04367637634277344,-0.040480613708496094,-0.6135826110839844,-0.26728057861328125,0.7390861511230469,-0.07677936553955078
94,48950024.0,9.314925193786621,-2.1297073364257812,2.6480674743652344,0.2578010559082031,-0.0287628173828125,-0.019174575805664062,-0.6135826110839844,-0.26728057861328125,0.7390861511230469,-0.07677936553955078
95,48950044.0,9.268237113952637,-2.196746826171875,2.753415107727051,0.196014404296875,-0.033023834228515625,0.004261016845703125,-0.6135826110839844,-0.26728057861328125,0.7390861511230469,-0.07677936553955078
96,48950064.0,9.210774421691895,-2.2075204849243164,2.717501640319824,0.15446758270263672,-0.020239830017089844,0.02982807159423828,-0.6135826110839844,-0.26728057861328125,0.7390861511230469,-0.07677936553955078
97,48950084.0,9.21556282043457,-2.17160701751709,2.658841133117676,0.14701080322265625,-0.005326271057128906,0.05646038055419922,-0.6135826110839844,-0.26728057861328125,0.7390861511230469,-0.07677936553955078
98,48950104.0,9.201197624206543,-2.1261157989501953,2.692361831665039,0.14807605743408203,0.013848304748535156,0.06711292266845703,-0.6135826110839844,-0.26728057861328125,0.7390861511230469,-0.07677936553955078
99,48950120.0,9.217957496643066,-2.0566816329956055,2.6732072830200195,0.12250900268554688,0.03941535949707031,0.06391716003417969,-0.6135826110839844,-0.26728057861328125,0.7390861511230469,-0.07677936553955078
100,48950144.0,9.250279426574707,-1.9980220794677734,2.625321388244629,0.05646038055419922,0.04793834686279297,0.061786651611328125,-0.6135826110839844,-0.26728057861328125,0.7390861511230469,-0.07677936553955078
101,48950164.0,9.140143394470215,-2.0937929153442383,2.525959014892578,0.05646038055419922,0.04793834686279297,0.061786651611328125,-0.6135826110839844,-0.26728057861328125,0.7390861511230469,-0.07677936553955078
102,48950184.0,9.154508590698242,-2.2063236236572266,2.4852561950683594,0.05646038055419922,0.04793834686279297,0.061786651611328125,-0.6135826110839844,-0.26728057861328125,0.7390861511230469,-0.07677936553955078
103,48950204.0,9.182043075561523,-2.266180992126465,2.4230051040649414,0.05646038055419922,0.04793834686279297,0.061786651611328125,-0.6135826110839844,-0.26728057861328125,0.7390861511230469,-0.07677936553955078
104,48950224.0,9.295770645141602,-2.248223304748535,2.4301881790161133,0.05646038055419922,0.04793834686279297,0.061786651611328125,-0.6135826110839844,-0.26728057861328125,0.7390861511230469,-0.07677936553955078
105,48950240.0,9.293376922607422,-2.190760612487793,2.377513885498047,0.05646038055419922,0.04793834686279297,0.061786651611328125,-0.6135826110839844,-0.26728057861328125,0.7390861511230469,-0.07677936553955078
106,48950360.0,9.219154357910156,-2.3380088806152344,2.3882884979248047,-0.045806884765625,0.030893325805664062,0.023435592651367188,-0.6048221588134766,-0.2935209274291992,0.7363243103027344,-0.0767364501953125
107,48950384.0,9.276617050170898,-2.351177215576172,2.4026546478271484,-0.045806884765625,0.030893325805664062,0.023435592651367188,-0.6048221588134766,-0.2935209274291992,0.7363243103027344,-0.0767364501953125
108,48950400.0,9.492101669311523,-2.233858108520508,2.5558881759643555,-0.045806884765625,0.030893325805664062,0.023435592651367188,-0.6048221588134766,-0.2935209274291992,0.7363243103027344,-0.0767364501953125
109,48950424.0,9.49569320678711,-2.1045665740966797,2.6133499145507812,-0.045806884765625,0.030893325805664062,0.023435592651367188,-0.6048221588134766,-0.2935209274291992,0.7363243103027344,-0.0767364501953125
110,48950440.0,9.086272239685059,-2.159635543823242,2.5750417709350586,-0.045806884765625,0.030893325805664062,0.023435592651367188,-0.6048221588134766,-0.2935209274291992,0.7363243103027344,-0.0767364501953125
111,48950460.0,8.728327751159668,-2.354768753051758,2.625321388244629,-0.0809621810913086,-0.0021305084228515625,-0.09694194793701172,-0.6048221588134766,-0.2935209274291992,0.7363243103027344,-0.0767364501953125
112,48950480.0,8.73670768737793,-2.433779716491699,2.594196319580078,-0.03728485107421875,-0.02769756317138672,-0.10652923583984375,-0.6048221588134766,-0.2935209274291992,0.7363243103027344,-0.0767364501953125
113,48950500.0,8.795367240905762,-2.405048370361328,2.565464973449707,0.07350540161132812,-0.03835010528564453,-0.12037849426269531,-0.6048221588134766,-0.2935209274291992,0.7363243103027344,-0.0767364501953125
114,48950520.0,8.899518966674805,-2.3918800354003906,2.6337013244628906,0.1725778579711914,-0.04367637634277344,-0.14807605743408203,-0.6048221588134766,-0.2935209274291992,0.7363243103027344,-0.0767364501953125
115,48950540.0,9.02402114868164,-2.2697715759277344,2.6767988204956055,0.22264671325683594,-0.04793834686279297,-0.17577362060546875,-0.6048221588134766,-0.2935209274291992,0.7363243103027344,-0.0767364501953125
116,48950560.0,9.032401084899902,-2.2458295822143555,2.5822248458862305,0.20027542114257812,-0.03621959686279297,-0.17151260375976562,-0.6048221588134766,-0.2935209274291992,0.7363243103027344,-0.0767364501953125
117,48950580.0,9.18563461303711,-2.278151512145996,2.502017021179199,0.12250900268554688,-0.026632308959960938,-0.13635730743408203,-0.6048221588134766,-0.2935209274291992,0.7363243103027344,-0.0767364501953125
118,48950600.0,9.447807312011719,-2.346388816833496,2.4361743927001953,0.04900360107421875,-0.02982807159423828,-0.08841896057128906,-0.6048221588134766,-0.2935209274291992,0.7363243103027344,-0.0767364501953125
119,48950620.0,9.660898208618164,-2.3607540130615234,2.440962791442871,0.01597881317138672,-0.025567054748535156,-0.04793834686279297,-0.6048221588134766,-0.2935209274291992,0.7363243103027344,-0.0767364501953125
120,48950640.0,9.810540199279785,-2.29132080078125,2.4529342651367188,0.025567054748535156,-0.02769756317138672,-0.011717796325683594,-0.6048221588134766,-0.2935209274291992,0.7363243103027344,-0.0767364501953125
121,48950660.0,9.6956148147583,-2.1823806762695312,2.4912424087524414,0.025567054748535156,-0.02769756317138672,-0.011717796325683594,-0.6048221588134766,-0.2935209274291992,0.7363243103027344,-0.0767364501953125
122,48950680.0,9.47773551940918,-2.1835784912109375,2.438568115234375,0.025567054748535156,-0.02769756317138672,-0.011717796325683594,-0.6048221588134766,-0.2935209274291992,0.7363243103027344,-0.0767364501953125
123,48950700.0,9.30774211883545,-2.2075204849243164,2.4625110626220703,0.025567054748535156,-0.02769756317138672,-0.011717796325683594,-0.6048221588134766,-0.2935209274291992,0.7363243103027344,-0.0767364501953125
124,48950720.0,9.313728332519531,-2.163227081298828,2.502017021179199,0.025567054748535156,-0.02769756317138672,-0.011717796325683594,-0.6048221588134766,-0.2935209274291992,0.7363243103027344,-0.0767364501953125
125,48950740.0,9.338868141174316,-2.094989776611328,2.543916702270508,0.025567054748535156,-0.02769756317138672,-0.011717796325683594,-0.6048221588134766,-0.2935209274291992,0.7363243103027344,-0.0767364501953125
126,48950760.0,9.177254676818848,-1.9549245834350586,2.561873435974121,0.08948421478271484,-0.007456779479980469,0.12463951110839844,-0.6048221588134766,-0.2935209274291992,0.7363243103027344,-0.0767364501953125
127,48950780.0,9.06592082977295,-1.941756248474121,2.537930488586426,0.08415794372558594,-0.009587287902832031,0.10546398162841797,-0.6048221588134766,-0.2935209274291992,0.7363243103027344,-0.0767364501953125
128,48950800.0,9.04676628112793,-1.9357709884643555,2.5798301696777344,0.054329872131347656,-0.014913558959960938,0.07883167266845703,-0.6048221588134766,-0.2935209274291992,0.7363243103027344,-0.0767364501953125
129,48950820.0,9.105425834655762,-1.9106311798095703,2.510396957397461,0.01810932159423828,-0.01810932159423828,0.053264617919921875,-0.6048221588134766,-0.2935209274291992,0.7363243103027344,-0.0767364501953125
130,48950840.0,9.225139617919922,-1.9477424621582031,2.469694137573242,-0.0170440673828125,-0.023435592651367188,0.026632308959960938,-0.6048221588134766,-0.2935209274291992,0.7363243103027344,-0.0767364501953125
131,48950860.0,9.210774421691895,-1.9860506057739258,2.41103458404541,-0.03728485107421875,-0.00852203369140625,0.005326271057128906,-0.6048221588134766,-0.2935209274291992,0.7363243103027344,-0.0767364501953125
132,48950880.0,9.241899490356445,-2.062666893005371,2.3703317642211914,-0.040480613708496094,-0.00852203369140625,-0.013848304748535156,-0.6048221588134766,-0.2935209274291992,0.7363243103027344,-0.0767364501953125
133,48950900.0,9.343656539916992,-2.0459070205688477,2.3715286254882812,-0.021305084228515625,-0.020239830017089844,-0.030893325805664062,-0.6048221588134766,-0.2935209274291992,0.7363243103027344,-0.0767364501953125
134,48950920.0,9.45618724822998,-2.0219640731811523,2.383500099182129,-0.007456779479980469,-0.031958580017089844,-0.040480613708496094,-0.6048221588134766,-0.2935209274291992,0.7363243103027344,-0.0767364501953125
135,48950940.0,9.520833015441895,-2.03273868560791,2.3272342681884766,-0.022370338439941406,-0.045806884765625,-0.053264617919921875,-0.6048221588134766,-0.2935209274291992,0.7363243103027344,-0.0767364501953125
136,48951060.0,9.232322692871094,-2.098581314086914,2.626519203186035,0.013848304748535156,-0.05539512634277344,-0.07776641845703125,-0.6048221588134766,-0.2935209274291992,0.7363243103027344,-0.0767364501953125
137,48951080.0,9.225139617919922,-2.1704092025756836,2.630110740661621,0.013848304748535156,-0.05539512634277344,-0.07776641845703125,-0.6048221588134766,-0.2935209274291992,0.7363243103027344,-0.0767364501953125
138,48951100.0,9.308939933776855,-2.1692123413085938,2.656447410583496,0.013848304748535156,-0.05539512634277344,-0.07776641845703125,-0.6048221588134766,-0.2935209274291992,0.7363243103027344,-0.0767364501953125
139,48951120.0,9.353233337402344,-2.165620803833008,2.5929994583129883,0.013848304748535156,-0.05539512634277344,-0.07776641845703125,-0.6048221588134766,-0.2935209274291992,0.7363243103027344,-0.0767364501953125
140,48951140.0,9.348444938659668,-2.1823806762695312,2.624124526977539,0.013848304748535156,-0.05539512634277344,-0.07776641845703125,-0.6048221588134766,-0.2935209274291992,0.7363243103027344,-0.0767364501953125
141,48951160.0,9.343656539916992,-2.1452693939208984,2.6480674743652344,0.041545867919921875,-0.0063915252685546875,-0.04687213897705078,-0.6048221588134766,-0.2935209274291992,0.7363243103027344,-0.0767364501953125
142,48951160.0,9.343656539916992,-2.1452693939208984,2.6480674743652344,0.041545867919921875,-0.0063915252685546875,-0.04687213897705078,-0.6048221588134766,-0.2935209274291992,0.7363243103027344,-0.0767364501953125
143,48951180.0,9.33407974243164,-2.1883668899536133,2.6360960006713867,0.031958580017089844,0.0,-0.045806884765625,-0.6048221588134766,-0.2935209274291992,0.7363243103027344,-0.0767364501953125
144,48951180.0,9.33407974243164,-2.1883668899536133,2.6360960006713867,0.031958580017089844,0.0,-0.045806884765625,-0.6048221588134766,-0.2935209274291992,0.7363243103027344,-0.0767364501953125
145,48951200.0,9.566324234008789,-2.229069709777832,2.570253372192383,0.034089088439941406,-0.004261016845703125,-0.03941535949707031,-0.6048221588134766,-0.2935209274291992,0.7363243103027344,-0.0767364501953125
146,48951200.0,9.566324234008789,-2.229069709777832,2.570253372192383,0.034089088439941406,-0.004261016845703125,-0.03941535949707031,-0.6048221588134766,-0.2935209274291992,0.7363243103027344,-0.0767364501953125
147,48951220.0,9.745894432067871,-2.2362518310546875,2.660038948059082,0.05646038055419922,-0.019174575805664062,-0.03835010528564453,-0.6048221588134766,-0.2935209274291992,0.7363243103027344,-0.0767364501953125
148,48951220.0,9.745894432067871,-2.2362518310546875,2.660038948059082,0.05646038055419922,-0.019174575805664062,-0.03835010528564453,-0.6048221588134766,-0.2935209274291992,0.7363243103027344,-0.0767364501953125
149,48951240.0,9.49449634552002,-2.200338363647461,2.682784080505371,0.08202743530273438,0.0170440673828125,-0.041545867919921875,-0.6048221588134766,-0.2935209274291992,0.7363243103027344,-0.0767364501953125
150,48951240.0,9.49449634552002,-2.200338363647461,2.682784080505371,0.08202743530273438,0.0170440673828125,-0.041545867919921875,-0.6048221588134766,-0.2935209274291992,0.7363243103027344,-0.0767364501953125
151,48951260.0,9.33527660369873,-2.1404809951782227,2.711515426635742,0.08202743530273438,0.0170440673828125,-0.041545867919921875,-0.6048221588134766,-0.2935209274291992,0.7363243103027344,-0.0767364501953125
152,48951280.0,9.229928970336914,-2.1728038787841797,2.697150230407715,0.08202743530273438,0.0170440673828125,-0.041545867919921875,-0.6048221588134766,-0.2935209274291992,0.7363243103027344,-0.0767364501953125
153,48951300.0,9.170071601867676,-2.229069709777832,2.693558692932129,0.08202743530273438,0.0170440673828125,-0.041545867919921875,-0.6048221588134766,-0.2935209274291992,0.7363243103027344,-0.0767364501953125
154,48951320.0,9.173663139343262,-2.278151512145996,2.6480674743652344,0.08202743530273438,0.0170440673828125,-0.041545867919921875,-0.6048221588134766,-0.2935209274291992,0.7363243103027344,-0.0767364501953125
155,48951336.0,9.158100128173828,-2.197943687438965,2.6049699783325195,0.08202743530273438,0.0170440673828125,-0.041545867919921875,-0.6048221588134766,-0.2935209274291992,0.7363243103027344,-0.0767364501953125
156,48951456.0,9.362811088562012,-2.0890045166015625,2.281743049621582,-0.0010652542114257812,0.057525634765625,0.10439872741699219,-0.6010665893554688,-0.29472923278808594,0.7369289398193359,-0.0933523178100586
157,48951480.0,9.219154357910156,-2.039921760559082,2.317657470703125,-0.0010652542114257812,0.057525634765625,0.10439872741699219,-0.6010665893554688,-0.29472923278808594,0.7369289398193359,-0.0933523178100586
158,48951496.0,9.147326469421387,-2.109355926513672,2.3523740768432617,-0.0010652542114257812,0.057525634765625,0.10439872741699219,-0.6010665893554688,-0.29472923278808594,0.7369289398193359,-0.0933523178100586
159,48951520.0,9.062329292297363,-2.132101058959961,2.353571891784668,-0.0010652542114257812,0.057525634765625,0.10439872741699219,-0.6010665893554688,-0.29472923278808594,0.7369289398193359,-0.0933523178100586
160,48951536.0,8.972543716430664,-2.1129465103149414,2.3667402267456055,-0.0010652542114257812,0.057525634765625,0.10439872741699219,-0.6010665893554688,-0.29472923278808594,0.7369289398193359,-0.0933523178100586
161,48951560.0,9.077892303466797,-2.10336971282959,2.346388816833496,0.034089088439941406,0.0021305084228515625,0.03941535949707031,-0.6010665893554688,-0.29472923278808594,0.7369289398193359,-0.0933523178100586
162,48951576.0,9.275420188903809,-2.106961250305176,2.419414520263672,0.025567054748535156,-0.0170440673828125,0.0287628173828125,-0.6010665893554688,-0.29472923278808594,0.7369289398193359,-0.0933523178100586
163,48951600.0,9.397527694702148,-2.165620803833008,2.419414520263672,0.022370338439941406,-0.02769756317138672,0.019174575805664062,-0.6010665893554688,-0.29472923278808594,0.7369289398193359,-0.0933523178100586
164,48951616.0,9.359219551086426,-2.134495735168457,2.4625110626220703,0.02769756317138672,-0.022370338439941406,0.0170440673828125,-0.6010665893554688,-0.29472923278808594,0.7369289398193359,-0.0933523178100586
165,48951640.0,9.28499698638916,-2.1177358627319336,2.4912424087524414,0.02769756317138672,-0.025567054748535156,0.02982807159423828,-0.6010665893554688,-0.29472923278808594,0.7369289398193359,-0.0933523178100586
166,48951656.0,9.314925193786621,-2.10097599029541,2.478074073791504,0.02769756317138672,-0.025567054748535156,0.02982807159423828,-0.6010665893554688,-0.29472923278808594,0.7369289398193359,-0.0933523178100586
167,48951676.0,9.295770645141602,-2.1141443252563477,2.5738449096679688,0.02769756317138672,-0.025567054748535156,0.02982807159423828,-0.6010665893554688,-0.29472923278808594,0.7369289398193359,-0.0933523178100586
168,48951696.0,9.210774421691895,-2.0483016967773438,2.6456727981567383,0.02769756317138672,-0.025567054748535156,0.02982807159423828,-0.6010665893554688,-0.29472923278808594,0.7369289398193359,-0.0933523178100586
169,48951716.0,9.179648399353027,-2.029147148132324,2.6121530532836914,0.02769756317138672,-0.025567054748535156,0.02982807159423828,-0.6010665893554688,-0.29472923278808594,0.7369289398193359,-0.0933523178100586
170,48951736.0,9.170071601867676,-2.0219640731811523,2.6121530532836914,0.02769756317138672,-0.025567054748535156,0.02982807159423828,-0.6010665893554688,-0.29472923278808594,0.7369289398193359,-0.0933523178100586
171,48951756.0,9.208379745483398,-2.106961250305176,2.657644271850586,-0.009587287902832031,-0.0170440673828125,0.013848304748535156,-0.6010665893554688,-0.29472923278808594,0.7369289398193359,-0.0933523178100586
172,48951776.0,9.330488204956055,-2.0818214416503906,2.6767988204956055,0.009587287902832031,-0.023435592651367188,0.0,-0.6010665893554688,-0.29472923278808594,0.7369289398193359,-0.0933523178100586
173,48951796.0,9.387950897216797,-2.0219640731811523,2.654052734375,0.023435592651367188,-0.023435592651367188,-0.011717796325683594,-0.6010665893554688,-0.29472923278808594,0.7369289398193359,-0.0933523178100586
174,48951816.0,9.324501991271973,-2.077033042907715,2.6684188842773438,0.010652542114257812,-0.00852203369140625,-0.0170440673828125,-0.6010665893554688,-0.29472923278808594,0.7369289398193359,-0.0933523178100586
175,48951836.0,9.268237113952637,-2.1117496490478516,2.658841133117676,-0.01597881317138672,0.0,-0.0170440673828125,-0.6010665893554688,-0.29472923278808594,0.7369289398193359,-0.0933523178100586
176,48951856.0,9.275420188903809,-2.150057792663574,2.6708126068115234,-0.022370338439941406,0.0,-0.01597881317138672,-0.6010665893554688,-0.29472923278808594,0.7369289398193359,-0.0933523178100586
177,48951876.0,9.231125831604004,-2.1368894577026367,2.6516590118408203,0.0,0.0021305084228515625,-0.011717796325683594,-0.6010665893554688,-0.29472923278808594,0.7369289398193359,-0.0933523178100586
178,48951896.0,9.220351219177246,-2.0937929153442383,2.6181392669677734,0.010652542114257812,0.011717796325683594,-0.009587287902832031,-0.6010665893554688,-0.29472923278808594,0.7369289398193359,-0.0933523178100586
179,48951916.0,9.250279426574707,-2.0746383666992188,2.6181392669677734,-0.0021305084228515625,0.009587287902832031,-0.0170440673828125,-0.6010665893554688,-0.29472923278808594,0.7369289398193359,-0.0933523178100586
180,48951936.0,9.271828651428223,-2.1117496490478516,2.6073646545410156,-0.022370338439941406,0.01597881317138672,-0.0287628173828125,-0.6010665893554688,-0.29472923278808594,0.7369289398193359,-0.0933523178100586
181,48951956.0,9.361613273620605,-2.1560440063476562,2.625321388244629,-0.022370338439941406,0.01597881317138672,-0.0287628173828125,-0.6010665893554688,-0.29472923278808594,0.7369289398193359,-0.0933523178100586
182,48951976.0,9.262250900268555,-2.1440725326538086,2.5786333084106445,-0.022370338439941406,0.01597881317138672,-0.0287628173828125,-0.6010665893554688,-0.29472923278808594,0.7369289398193359,-0.0933523178100586
183,48951996.0,9.21556282043457,-2.1464672088623047,2.561873435974121,-0.022370338439941406,0.01597881317138672,-0.0287628173828125,-0.6010665893554688,-0.29472923278808594,0.7369289398193359,-0.0933523178100586
184,48952016.0,9.257462501525879,-2.1728038787841797,2.570253372192383,-0.022370338439941406,0.01597881317138672,-0.0287628173828125,-0.6010665893554688,-0.29472923278808594,0.7369289398193359,-0.0933523178100586
185,48952036.0,9.249082565307617,-2.1548471450805664,2.564268112182617,-0.022370338439941406,0.01597881317138672,-0.0287628173828125,-0.6010665893554688,-0.29472923278808594,0.7369289398193359,-0.0933523178100586
186,48952056.0,9.302953720092773,-2.1404809951782227,2.5738449096679688,-0.020239830017089844,0.010652542114257812,-0.04474163055419922,-0.6010665893554688,-0.29472923278808594,0.7369289398193359,-0.0933523178100586
187,48952076.0,9.258659362792969,-2.1668176651000977,2.540325164794922,-0.02982807159423828,0.010652542114257812,-0.040480613708496094,-0.6010665893554688,-0.29472923278808594,0.7369289398193359,-0.0933523178100586
188,48952096.0,9.194014549255371,-2.2063236236572266,2.5247621536254883,-0.04687213897705078,0.013848304748535156,-0.034089088439941406,-0.6010665893554688,-0.29472923278808594,0.7369289398193359,-0.0933523178100586
189,48952116.0,9.245491027832031,-2.2470264434814453,2.5510988235473633,-0.04687213897705078,0.00852203369140625,-0.030893325805664062,-0.6010665893554688,-0.29472923278808594,0.7369289398193359,-0.0933523178100586
190,48952136.0,9.317319869995117,-2.2111120223999023,2.569056510925293,-0.024501800537109375,0.004261016845703125,-0.02769756317138672,-0.6010665893554688,-0.29472923278808594,0.7369289398193359,-0.0933523178100586
191,48952256.0,9.26464557647705,-2.1440725326538086,2.5870132446289062,-0.034089088439941406,0.0,0.0,-0.601628303527832,-0.29347705841064453,0.7371444702148438,-0.09210014343261719
192,48952256.0,9.26464557647705,-2.1440725326538086,2.5870132446289062,-0.034089088439941406,0.0,0.0,-0.601628303527832,-0.29347705841064453,0.7371444702148438,-0.09210014343261719
193,48952276.0,9.199999809265137,-2.1416778564453125,2.5570850372314453,-0.03941535949707031,0.004261016845703125,0.0,-0.601628303527832,-0.29347705841064453,0.7371444702148438,-0.09210014343261719
194,48952276.0,9.199999809265137,-2.1416778564453125,2.5570850372314453,-0.03941535949707031,0.004261016845703125,0.0,-0.601628303527832,-0.29347705841064453,0.7371444702148438,-0.09210014343261719
195,48952296.0,9.191619873046875,-2.1512556076049805,2.5211706161499023,-0.054329872131347656,0.0021305084228515625,0.0,-0.601628303527832,-0.29347705841064453,0.7371444702148438,-0.09210014343261719
196,48952296.0,9.191619873046875,-2.1512556076049805,2.5211706161499023,-0.054329872131347656,0.0021305084228515625,0.0,-0.601628303527832,-0.29347705841064453,0.7371444702148438,-0.09210014343261719
197,48952312.0,9.294573783874512,-2.1775922775268555,2.5415220260620117,-0.042611122131347656,-0.0021305084228515625,0.0010652542114257812,-0.601628303527832,-0.29347705841064453,0.7371444702148438,-0.09210014343261719
198,48952312.0,9.294573783874512,-2.1775922775268555,2.5415220260620117,-0.042611122131347656,-0.0021305084228515625,0.0010652542114257812,-0.601628303527832,-0.29347705841064453,0.7371444702148438,-0.09210014343261719
199,48952336.0,9.337671279907227,-2.1488609313964844,2.5714502334594727,-0.021305084228515625,-0.005326271057128906,-0.0031957626342773438,-0.601628303527832,-0.29347705841064453,0.7371444702148438,-0.09210014343261719
200,48952336.0,9.337671279907227,-2.1488609313964844,2.5714502334594727,-0.021305084228515625,-0.005326271057128906,-0.0031957626342773438,-0.601628303527832,-0.29347705841064453,0.7371444702148438,-0.09210014343261719
201,48952356.0,9.270630836486816,-2.1464672088623047,2.5427188873291016,-0.021305084228515625,-0.005326271057128906,-0.0031957626342773438,-0.601628303527832,-0.29347705841064453,0.7371444702148438,-0.09210014343261719
202,48952376.0,9.269433975219727,-2.1428756713867188,2.570253372192383,-0.021305084228515625,-0.005326271057128906,-0.0031957626342773438,-0.601628303527832,-0.29347705841064453,0.7371444702148438,-0.09210014343261719
203,48952396.0,9.267040252685547,-2.193155288696289,2.572648048400879,-0.021305084228515625,-0.005326271057128906,-0.0031957626342773438,-0.601628303527832,-0.29347705841064453,0.7371444702148438,-0.09210014343261719
204,48952416.0,9.231125831604004,-2.2410402297973633,2.6001815795898438,-0.021305084228515625,-0.005326271057128906,-0.0031957626342773438,-0.601628303527832,-0.29347705841064453,0.7371444702148438,-0.09210014343261719
205,48952432.0,9.30534839630127,-2.2721662521362305,2.6049699783325195,-0.021305084228515625,-0.005326271057128906,-0.0031957626342773438,-0.601628303527832,-0.29347705841064453,0.7371444702148438,-0.09210014343261719
206,48952456.0,9.561535835266113,-2.7426414489746094,2.784541130065918,-0.053264617919921875,-0.021305084228515625,0.0170440673828125,-0.601628303527832,-0.29347705841064453,0.7371444702148438,-0.09210014343261719
207,48952476.0,10.000885009765625,-2.741443634033203,3.148470878601074,-0.12890052795410156,-0.04474163055419922,0.10652923583984375,-0.601628303527832,-0.29347705841064453,0.7371444702148438,-0.09210014343261719
208,48952496.0,10.57670783996582,-3.5112037658691406,3.9098501205444336,-0.2535400390625,-0.04687213897705078,0.2663240432739258,-0.601628303527832,-0.29347705841064453,0.7371444702148438,-0.09210014343261719
209,48952516.0,11.321327209472656,-5.8360443115234375,5.0004425048828125,-0.3739185333251953,0.007456779479980469,0.6146755218505859,-0.601628303527832,-0.29347705841064453,0.7371444702148438,-0.09210014343261719
210,48952536.0,11.913910865783691,-6.286168098449707,7.308523178100586,-0.5251913070678711,0.061786651611328125,1.19952392578125,-0.601628303527832,-0.29347705841064453,0.7371444702148438,-0.09210014343261719
211,48952552.0,12.33650016784668,-7.99567985534668,8.583474159240723,-0.5251913070678711,0.061786651611328125,1.19952392578125,-0.601628303527832,-0.29347705841064453,0.7371444702148438,-0.09210014343261719
212,48952576.0,14.48655891418457,-11.962992668151855,7.844841003417969,-0.5251913070678711,0.061786651611328125,1.19952392578125,-0.601628303527832,-0.29347705841064453,0.7371444702148438,-0.09210014343261719
213,48952592.0,16.391204833984375,-14.700846672058105,2.522367477416992,-0.5251913070678711,0.061786651611328125,1.19952392578125,-0.601628303527832,-0.29347705841064453,0.7371444702148438,-0.09210014343261719
214,48952616.0,17.384828567504883,-13.010488510131836,-0.3651266098022461,-0.5251913070678711,0.061786651611328125,1.19952392578125,-0.601628303527832,-0.29347705841064453,0.7371444702148438,-0.09210014343261719
215,48952632.0,17.77389907836914,-13.549200057983398,0.8643331527709961,-0.5251913070678711,0.061786651611328125,1.19952392578125,-0.601628303527832,-0.29347705841064453,0.7371444702148438,-0.09210014343261719
216,48952656.0,15.717215538024902,-11.09626579284668,3.192765235900879,0.7233362197875977,0.36646175384521484,6.090302467346191,-0.601628303527832,-0.29347705841064453,0.7371444702148438,-0.09210014343261719
217,48952656.0,15.717215538024902,-11.09626579284668,3.192765235900879,0.7233362197875977,0.36646175384521484,6.090302467346191,-0.601628303527832,-0.29347705841064453,0.7371444702148438,-0.09210014343261719
218,48952672.0,11.917501449584961,-9.933845520019531,3.7614049911499023,0.5944347381591797,1.2410707473754883,6.48020076751709,-0.601628303527832,-0.29347705841064453,0.7371444702148438,-0.09210014343261719
219,48952672.0,11.917501449584961,-9.933845520019531,3.7614049911499023,0.5944347381591797,1.2410707473754883,6.48020076751709,-0.601628303527832,-0.29347705841064453,0.7371444702148438,-0.09210014343261719
220,48952696.0,9.590267181396484,-11.353650093078613,3.6668310165405273,-0.196014404296875,1.6490793228149414,6.924429893493652,-0.601628303527832,-0.29347705841064453,0.7371444702148438,-0.09210014343261719
221,48952696.0,9.590267181396484,-11.353650093078613,3.6668310165405273,-0.196014404296875,1.6490793228149414,6.924429893493652,-0.601628303527832,-0.29347705841064453,0.7371444702148438,-0.09210014343261719
222,48952712.0,7.18641471862793,-9.683643341064453,2.6468706130981445,-0.9875297546386719,1.6149892807006836,7.437902450561523,-0.601628303527832,-0.29347705841064453,0.7371444702148438,-0.09210014343261719
223,48952712.0,7.18641471862793,-9.683643341064453,2.6468706130981445,-0.9875297546386719,1.6149892807006836,7.437902450561523,-0.601628303527832,-0.29347705841064453,0.7371444702148438,-0.09210014343261719
224,48952736.0,3.7254905700683594,-9.985321998596191,0.708704948425293,-1.4690437316894531,1.5489416122436523,7.787320137023926,-0.601628303527832,-0.29347705841064453,0.7371444702148438,-0.09210014343261719
225,48952736.0,3.7254905700683594,-9.985321998596191,0.708704948425293,-1.4690437316894531,1.5489416122436523,7.787320137023926,-0.601628303527832,-0.29347705841064453,0.7371444702148438,-0.09210014343261719
226,48952852.0,-0.6967334747314453,-1.198333740234375,1.6137409210205078,1.555333137512207,0.334503173828125,6.608036041259766,-0.601628303527832,-0.29347705841064453,0.7371444702148438,-0.09210014343261719
227,48952872.0,-1.6161346435546875,-0.0011968612670898438,2.0351333618164062,1.555333137512207,0.334503173828125,6.608036041259766,-0.601628303527832,-0.29347705841064453,0.7371444702148438,-0.09210014343261719
228,48952892.0,-3.1724138259887695,-1.0881977081298828,0.6572275161743164,1.555333137512207,0.334503173828125,6.608036041259766,-0.601628303527832,-0.29347705841064453,0.7371444702148438,-0.09210014343261719
229,48952912.0,-3.5423288345336914,-1.818450927734375,-0.5231485366821289,1.555333137512207,0.334503173828125,6.608036041259766,-0.601628303527832,-0.29347705841064453,0.7371444702148438,-0.09210014343261719
230,48952932.0,-3.9218215942382812,-2.0842161178588867,-0.0945730209350586,1.555333137512207,0.334503173828125,6.608036041259766,-0.601628303527832,-0.29347705841064453,0.7371444702148438,-0.09210014343261719
231,48952952.0,-4.32405948638916,-0.40822315216064453,2.121326446533203,1.320967674255371,1.0642309188842773,2.9807004928588867,-0.601628303527832,-0.29347705841064453,0.7371444702148438,-0.09210014343261719
232,48952952.0,-4.32405948638916,-0.40822315216064453,2.121326446533203,1.320967674255371,1.0642309188842773,2.9807004928588867,-0.601628303527832,-0.29347705841064453,0.7371444702148438,-0.09210014343261719
233,48952972.0,-4.476096153259277,0.2310466766357422,2.7653865814208984,0.9470481872558594,1.135605812072754,2.3053016662597656,-0.601628303527832,-0.29347705841064453,0.7371444702148438,-0.09210014343261719
234,48952972.0,-4.476096153259277,0.2310466766357422,2.7653865814208984,0.9470481872558594,1.135605812072754,2.3053016662597656,-0.601628303527832,-0.29347705841064453,0.7371444702148438,-0.09210014343261719
235,48952992.0,-5.39430046081543,-1.7250747680664062,0.6536369323730469,0.40587806701660156,1.1718263626098633,1.9878435134887695,-0.601628303527832,-0.29347705841064453,0.7371444702148438,-0.09210014343261719
236,48952992.0,-5.39430046081543,-1.7250747680664062,0.6536369323730469,0.40587806701660156,1.1718263626098633,1.9878435134887695,-0.601628303527832,-0.29347705841064453,0.7371444702148438,-0.09210014343261719
237,48953012.0,-5.75344181060791,-3.8871049880981445,0.3016777038574219,0.48044872283935547,1.0578393936157227,1.7524127960205078,-0.601628303527832,-0.29347705841064453,0.7371444702148438,-0.09210014343261719
238,48953012.0,-5.75344181060791,-3.8871049880981445,0.3016777038574219,0.48044872283935547,1.0578393936157227,1.7524127960205078,-0.601628303527832,-0.29347705841064453,0.7371444702148438,-0.09210014343261719
239,48953032.0,-6.262225151062012,-2.381105422973633,0.20830154418945312,0.8841962814331055,0.9928560256958008,1.5010032653808594,-0.601628303527832,-0.29347705841064453,0.7371444702148438,-0.09210014343261719
240,48953032.0,-6.262225151062012,-2.381105422973633,0.20830154418945312,0.8841962814331055,0.9928560256958008,1.5010032653808594,-0.601628303527832,-0.29347705841064453,0.7371444702148438,-0.09210014343261719
241,48953056.0,-6.878750801086426,-0.3675203323364258,2.563070297241211,0.8841962814331055,0.9928560256958008,1.5010032653808594,-0.601628303527832,-0.29347705841064453,0.7371444702148438,-0.09210014343261719
242,48953072.0,-7.538372993469238,-0.06703948974609375,1.9800643920898438,0.8841962814331055,0.9928560256958008,1.5010032653808594,-0.601628303527832,-0.29347705841064453,0.7371444702148438,-0.09210014343261719
243,48953092.0,-7.732309341430664,-1.6771888732910156,2.215900421142578,0.8841962814331055,0.9928560256958008,1.5010032653808594,-0.601628303527832,-0.29347705841064453,0.7371444702148438,-0.09210014343261719
244,48953112.0,-7.622173309326172,-3.252621650695801,2.105764389038086,0.8841962814331055,0.9928560256958008,1.5010032653808594,-0.601628303527832,-0.29347705841064453,0.7371444702148438,-0.09210014343261719
245,48953132.0,-8.005256652832031,-2.168015480041504,2.29251766204834,0.8841962814331055,0.9928560256958008,1.5010032653808594,-0.601628303527832,-0.29347705841064453,0.7371444702148438,-0.09210014343261719
246,48953252.0,-9.170071601867676,-1.1217174530029297,1.5287437438964844,-0.34302520751953125,0.17470836639404297,0.20560169219970703,-0.01471710205078125,-0.7477188110351562,0.06124114990234375,0.6610565185546875
247,48953272.0,-9.371191024780273,-0.9684839248657227,1.2869224548339844,-0.34302520751953125,0.17470836639404297,0.20560169219970703,-0.01471710205078125,-0.7477188110351562,0.06124114990234375,0.6610565185546875
248,48953292.0,-9.30654525756836,-1.2522048950195312,1.8292255401611328,-0.34302520751953125,0.17470836639404297,0.20560169219970703,-0.01471710205078125,-0.7477188110351562,0.06124114990234375,0.6610565185546875
249,48953312.0,-9.288588523864746,-1.6783857345581055,1.9226016998291016,-0.34302520751953125,0.17470836639404297,0.20560169219970703,-0.01471710205078125,-0.7477188110351562,0.06124114990234375,0.6610565185546875
250,48953332.0,-9.30534839630127,-0.8475723266601562,1.4341697692871094,-0.34302520751953125,0.17470836639404297,0.20560169219970703,-0.01471710205078125,-0.7477188110351562,0.06124114990234375,0.6610565185546875
251,48953352.0,-9.676461219787598,0.6955366134643555,1.081014633178711,0.4282493591308594,0.04793834686279297,0.0,-0.01471710205078125,-0.7477188110351562,0.06124114990234375,0.6610565185546875
252,48953372.0,-9.919479370117188,-0.3782949447631836,1.8854904174804688,-0.1736431121826172,-0.0287628173828125,0.0,-0.01471710205078125,-0.7477188110351562,0.06124114990234375,0.6610565185546875
253,48953392.0,-9.471750259399414,-1.8076772689819336,1.8926734924316406,-0.5869779586791992,-0.10226821899414062,0.012783050537109375,-0.01471710205078125,-0.7477188110351562,0.06124114990234375,0.6610565185546875
254,48953412.0,-9.312531471252441,-1.2498111724853516,1.1851654052734375,-0.19494915008544922,-0.03941535949707031,-0.07563591003417969,-0.01471710205078125,-0.7477188110351562,0.06124114990234375,0.6610565185546875
255,48953432.0,-9.584280967712402,-0.731450080871582,0.9541177749633789,0.5347785949707031,0.10013771057128906,-0.11611652374267578,-0.01471710205078125,-0.7477188110351562,0.06124114990234375,0.6610565185546875
256,48953452.0,-9.5651273727417,-0.6859588623046875,0.8607416152954102,0.7989721298217773,0.07030868530273438,-0.07670116424560547,-0.01471710205078125,-0.7477188110351562,0.06124114990234375,0.6610565185546875
257,48953452.0,-9.5651273727417,-0.6859588623046875,0.8607416152954102,0.7989721298217773,0.07030868530273438,-0.07670116424560547,-0.01471710205078125,-0.7477188110351562,0.06124114990234375,0.6610565185546875
258,48953472.0,-9.706389427185059,0.6751852035522461,1.4437475204467773,0.7393159866333008,-0.011717796325683594,-0.11185550689697266,-0.01471710205078125,-0.7477188110351562,0.06124114990234375,0.6610565185546875
259,48953472.0,-9.706389427185059,0.6751852035522461,1.4437475204467773,0.7393159866333008,-0.011717796325683594,-0.11185550689697266,-0.01471710205078125,-0.7477188110351562,0.06124114990234375,0.6610565185546875
260,48953492.0,-9.410696029663086,0.13767051696777344,3.2382564544677734,0.3813762664794922,-0.06711292266845703,-0.07563591003417969,-0.01471710205078125,-0.7477188110351562,0.06124114990234375,0.6610565185546875
261,48953492.0,-9.410696029663086,0.13767051696777344,3.2382564544677734,0.3813762664794922,-0.06711292266845703,-0.07563591003417969,-0.01471710205078125,-0.7477188110351562,0.06124114990234375,0.6610565185546875
262,48953512.0,-9.654911994934082,-1.4904356002807617,-3.6021862030029297,-0.17577362060546875,-0.12357425689697266,0.08948421478271484,-0.01471710205078125,-0.7477188110351562,0.06124114990234375,0.6610565185546875
263,48953512.0,-9.654911994934082,-1.4904356002807617,-3.6021862030029297,-0.17577362060546875,-0.12357425689697266,0.08948421478271484,-0.01471710205078125,-0.7477188110351562,0.06124114990234375,0.6610565185546875
264,48953532.0,-10.417489051818848,-6.095823287963867,-3.0119972229003906,0.7883195877075195,0.05859088897705078,0.13955307006835938,-0.01471710205078125,-0.7477188110351562,0.06124114990234375,0.6610565185546875
265,48953532.0,-10.417489051818848,-6.095823287963867,-3.0119972229003906,0.7883195877075195,0.05859088897705078,0.13955307006835938,-0.01471710205078125,-0.7477188110351562,0.06124114990234375,0.6610565185546875
266,48953652.0,-15.695667266845703,-4.740663528442383,-2.4002599716186523,0.7883195877075195,0.05859088897705078,0.13955307006835938,-0.01471710205078125,-0.7477188110351562,0.06124114990234375,0.6610565185546875
267,48953652.0,-15.695667266845703,-4.740663528442383,-2.4002599716186523,0.7883195877075195,0.05859088897705078,0.13955307006835938,-0.01471710205078125,-0.7477188110351562,0.06124114990234375,0.6610565185546875
268,48953672.0,-9.132960319519043,-1.2557964324951172,-0.7565898895263672,0.7883195877075195,0.05859088897705078,0.13955307006835938,-0.01471710205078125,-0.7477188110351562,0.06124114990234375,0.6610565185546875
269,48953672.0,-9.132960319519043,-1.2557964324951172,-0.7565898895263672,0.7883195877075195,0.05859088897705078,0.13955307006835938,-0.01471710205078125,-0.7477188110351562,0.06124114990234375,0.6610565185546875
270,48953692.0,-2.816864013671875,0.4644889831542969,-0.2705526351928711,0.7883195877075195,0.05859088897705078,0.13955307006835938,-0.01471710205078125,-0.7477188110351562,0.06124114990234375,0.6610565185546875
271,48953692.0,-2.816864013671875,0.4644889831542969,-0.2705526351928711,0.7883195877075195,0.05859088897705078,0.13955307006835938,-0.01471710205078125,-0.7477188110351562,0.06124114990234375,0.6610565185546875
272,48953712.0,-4.746648788452148,-1.077423095703125,1.0606632232666016,0.7883195877075195,0.05859088897705078,0.13955307006835938,-0.01471710205078125,-0.7477188110351562,0.06124114990234375,0.6610565185546875
273,48953712.0,-4.746648788452148,-1.077423095703125,1.0606632232666016,0.7883195877075195,0.05859088897705078,0.13955307006835938,-0.01471710205078125,-0.7477188110351562,0.06124114990234375,0.6610565185546875
274,48953728.0,-6.298139572143555,-3.156850814819336,-0.06464481353759766,0.7883195877075195,0.05859088897705078,0.13955307006835938,-0.01471710205078125,-0.7477188110351562,0.06124114990234375,0.6610565185546875
275,48953728.0,-6.298139572143555,-3.156850814819336,-0.06464481353759766,0.7883195877075195,0.05859088897705078,0.13955307006835938,-0.01471710205078125,-0.7477188110351562,0.06124114990234375,0.6610565185546875
276,48953752.0,-4.679609298706055,-3.2669878005981445,1.2031221389770508,0.7883195877075195,0.05859088897705078,0.13955307006835938,-0.01471710205078125,-0.7477188110351562,0.06124114990234375,0.6610565185546875
277,48953752.0,-4.679609298706055,-3.2669878005981445,1.2031221389770508,0.7883195877075195,0.05859088897705078,0.13955307006835938,-0.01471710205078125,-0.7477188110351562,0.06124114990234375,0.6610565185546875
278,48953768.0,-3.51479434967041,-3.6404943466186523,1.1300973892211914,0.7883195877075195,0.05859088897705078,0.13955307006835938,-0.01471710205078125,-0.7477188110351562,0.06124114990234375,0.6610565185546875
279,48953792.0,-3.744645118713379,-3.685985565185547,0.3567466735839844,0.7883195877075195,0.05859088897705078,0.13955307006835938,-0.01471710205078125,-0.7477188110351562,0.06124114990234375,0.6610565185546875
280,48953808.0,-3.586623191833496,-3.9649181365966797,0.3830833435058594,0.7883195877075195,0.05859088897705078,0.13955307006835938,-0.01471710205078125,-0.7477188110351562,0.06124114990234375,0.6610565185546875
281,48953828.0,-2.351177215576172,-4.018789291381836,-0.03591346740722656,0.7883195877075195,0.05859088897705078,0.13955307006835938,-0.01471710205078125,-0.7477188110351562,0.06124114990234375,0.6610565185546875
282,48954072.0,7.154092788696289,-4.796929359436035,7.743083953857422,1.07275390625,-2.9956140518188477,-5.072943687438965,-0.35027408599853516,-0.8001565933227539,0.3979196548461914,0.28061485290527344
283,48954072.0,7.154092788696289,-4.796929359436035,7.743083953857422,1.07275390625,-2.9956140518188477,-5.072943687438965,-0.35027408599853516,-0.8001565933227539,0.3979196548461914,0.28061485290527344
284,48954088.0,10.26545238494873,-8.011242866516113,8.037579536437988,-1.8078088760375977,-3.1127967834472656,-4.996242523193359,-0.35027408599853516,-0.8001565933227539,0.3979196548461914,0.28061485290527344
285,48954088.0,10.26545238494873,-8.011242866516113,8.037579536437988,-1.8078088760375977,-3.1127967834472656,-4.996242523193359,-0.35027408599853516,-0.8001565933227539,0.3979196548461914,0.28061485290527344
286,48954112.0,12.094677925109863,-9.004866600036621,8.273415565490723,-2.0677404403686523,-2.781489372253418,-5.072943687438965,-0.35027408599853516,-0.8001565933227539,0.3979196548461914,0.28061485290527344
287,48954112.0,12.094677925109863,-9.004866600036621,8.273415565490723,-2.0677404403686523,-2.781489372253418,-5.072943687438965,-0.35027408599853516,-0.8001565933227539,0.3979196548461914,0.28061485290527344
288,48954128.0,12.250306129455566,-6.715940475463867,8.414677619934082,-0.5464963912963867,-2.5183610916137695,-5.374423027038574,-0.35027408599853516,-0.8001565933227539,0.3979196548461914,0.28061485290527344
289,48954128.0,12.250306129455566,-6.715940475463867,8.414677619934082,-0.5464963912963867,-2.5183610916137695,-5.374423027038574,-0.35027408599853516,-0.8001565933227539,0.3979196548461914,0.28061485290527344
290,48954148.0,13.397163391113281,-4.500039100646973,7.4809112548828125,0.026632308959960938,-2.8123836517333984,-5.321157455444336,-0.35027408599853516,-0.8001565933227539,0.3979196548461914,0.28061485290527344
291,48954148.0,13.397163391113281,-4.500039100646973,7.4809112548828125,0.026632308959960938,-2.8123836517333984,-5.321157455444336,-0.35027408599853516,-0.8001565933227539,0.3979196548461914,0.28061485290527344
292,48954268.0,12.908731460571289,-5.452960014343262,3.025165557861328,0.026632308959960938,-2.8123836517333984,-5.321157455444336,-0.35027408599853516,-0.8001565933227539,0.3979196548461914,0.28061485290527344
293,48954268.0,12.908731460571289,-5.452960014343262,3.025165557861328,0.026632308959960938,-2.8123836517333984,-5.321157455444336,-0.35027408599853516,-0.8001565933227539,0.3979196548461914,0.28061485290527344
294,48954288.0,10.668888092041016,-5.106987953186035,3.5339488983154297,0.026632308959960938,-2.8123836517333984,-5.321157455444336,-0.35027408599853516,-0.8001565933227539,0.3979196548461914,0.28061485290527344
295,48954288.0,10.668888092041016,-5.106987953186035,3.5339488983154297,0.026632308959960938,-2.8123836517333984,-5.321157455444336,-0.35027408599853516,-0.8001565933227539,0.3979196548461914,0.28061485290527344
296,48954308.0,9.47653865814209,-4.199557304382324,3.9397783279418945,0.026632308959960938,-2.8123836517333984,-5.321157455444336,-0.35027408599853516,-0.8001565933227539,0.3979196548461914,0.28061485290527344
297,48954308.0,9.47653865814209,-4.199557304382324,3.9397783279418945,0.026632308959960938,-2.8123836517333984,-5.321157455444336,-0.35027408599853516,-0.8001565933227539,0.3979196548461914,0.28061485290527344
298,48954328.0,9.66808032989502,-3.2274818420410156,4.32525634765625,0.026632308959960938,-2.8123836517333984,-5.321157455444336,-0.35027408599853516,-0.8001565933227539,0.3979196548461914,0.28061485290527344
299,48954328.0,9.66808032989502,-3.2274818420410156,4.32525634765625,0.026632308959960938,-2.8123836517333984,-5.321157455444336,-0.35027408599853516,-0.8001565933227539,0.3979196548461914,0.28061485290527344
300,48954348.0,10.409109115600586,-3.0503053665161133,4.075055122375488,0.026632308959960938,-2.8123836517333984,-5.321157455444336,-0.35027408599853516,-0.8001565933227539,0.3979196548461914,0.28061485290527344
301,48954348.0,10.409109115600586,-3.0503053665161133,4.075055122375488,0.026632308959960938,-2.8123836517333984,-5.321157455444336,-0.35027408599853516,-0.8001565933227539,0.3979196548461914,0.28061485290527344
302,48954468.0,8.864801406860352,-1.3419904708862305,2.469694137573242,0.5614109039306641,0.3451557159423828,0.9278736114501953,-0.5926513671875,-0.3380603790283203,0.7100839614868164,-0.17375564575195312
303,48954488.0,9.231125831604004,-1.289316177368164,2.6193361282348633,0.4335756301879883,0.2695198059082031,0.7467727661132812,-0.5908384323120117,-0.3458719253540039,0.7084875106811523,-0.17125320434570312
304,48954508.0,9.361613273620605,-1.2809362411499023,2.6779956817626953,0.1661853790283203,0.22158145904541016,0.6530265808105469,-0.5900611877441406,-0.3513526916503906,0.7074079513549805,-0.1672821044921875
305,48954528.0,9.220351219177246,-1.573038101196289,2.503213882446289,-0.11292076110839844,0.21518993377685547,0.6061534881591797,-0.5901050567626953,-0.35506439208984375,0.7067174911499023,-0.16188716888427734
306,48954548.0,9.276617050170898,-1.737046241760254,2.233858108520508,-0.2247772216796875,0.16512012481689453,0.5763254165649414,-0.5907526016235352,-0.35808563232421875,0.7059412002563477,-0.15631961822509766
307,48954568.0,9.267040252685547,-1.822042465209961,1.9764728546142578,-0.2247772216796875,0.16512012481689453,0.5763254165649414,-0.5907526016235352,-0.35808563232421875,0.7059412002563477,-0.15631961822509766
308,48954588.0,9.202394485473633,-1.9010534286499023,1.9106311798095703,-0.2247772216796875,0.16512012481689453,0.5763254165649414,-0.5907526016235352,-0.35808563232421875,0.7059412002563477,-0.15631961822509766
309,48954608.0,9.222745895385742,-1.8974618911743164,2.0255556106567383,-0.2247772216796875,0.16512012481689453,0.5763254165649414,-0.5907526016235352,-0.35808563232421875,0.7059412002563477,-0.15631961822509766
310,48954628.0,9.252674102783203,-1.7047233581542969,1.9824590682983398,-0.2247772216796875,0.16512012481689453,0.5763254165649414,-0.5907526016235352,-0.35808563232421875,0.7059412002563477,-0.15631961822509766
311,48954648.0,9.208379745483398,-1.5694465637207031,1.9668960571289062,-0.2247772216796875,0.16512012481689453,0.5763254165649414,-0.5907526016235352,-0.35808563232421875,0.7059412002563477,-0.15631961822509766
312,48954668.0,9.289785385131836,-1.695145606994629,2.0231618881225586,-0.2247772216796875,0.16512012481689453,0.5763254165649414,-0.5907526016235352,-0.35808563232421875,0.7059412002563477,-0.15631961822509766
313,48954668.0,9.289785385131836,-1.695145606994629,2.0231618881225586,-0.2247772216796875,0.16512012481689453,0.5763254165649414,-0.5907526016235352,-0.35808563232421875,0.7059412002563477,-0.15631961822509766
314,48954688.0,9.380767822265625,-1.8388023376464844,2.201535224914551,-0.2247772216796875,0.16512012481689453,0.5763254165649414,-0.5907526016235352,-0.35808563232421875,0.7059412002563477,-0.15631961822509766
315,48954688.0,9.380767822265625,-1.8388023376464844,2.201535224914551,-0.2247772216796875,0.16512012481689453,0.5763254165649414,-0.5907526016235352,-0.35808563232421875,0.7059412002563477,-0.15631961822509766
316,48954704.0,9.409499168395996,-1.7777481079101562,2.1728038787841797,-0.2247772216796875,0.16512012481689453,0.5763254165649414,-0.5907526016235352,-0.35808563232421875,0.7059412002563477,-0.15631961822509766
317,48954704.0,9.409499168395996,-1.7777481079101562,2.1728038787841797,-0.2247772216796875,0.16512012481689453,0.5763254165649414,-0.5907526016235352,-0.35808563232421875,0.7059412002563477,-0.15631961822509766
318,48954728.0,9.2550687789917,-1.8411970138549805,2.0135841369628906,-0.2247772216796875,0.16512012481689453,0.5763254165649414,-0.5907526016235352,-0.35808563232421875,0.7059412002563477,-0.15631961822509766
319,48954728.0,9.2550687789917,-1.8411970138549805,2.0135841369628906,-0.2247772216796875,0.16512012481689453,0.5763254165649414,-0.5907526016235352,-0.35808563232421875,0.7059412002563477,-0.15631961822509766
320,48954744.0,9.269433975219727,-1.9142217636108398,2.091398239135742,-0.2247772216796875,0.16512012481689453,0.5763254165649414,-0.5907526016235352,-0.35808563232421875,0.7059412002563477,-0.15631961822509766
321,48954744.0,9.269433975219727,-1.9142217636108398,2.091398239135742,-0.2247772216796875,0.16512012481689453,0.5763254165649414,-0.5907526016235352,-0.35808563232421875,0.7059412002563477,-0.15631961822509766
322,48954768.0,9.444215774536133,-2.009993553161621,2.321249008178711,-0.2247772216796875,0.16512012481689453,0.5763254165649414,-0.5907526016235352,-0.35808563232421875,0.7059412002563477,-0.15631961822509766
323,48954784.0,9.391542434692383,-2.006402015686035,2.3643455505371094,-0.2247772216796875,0.16512012481689453,0.5763254165649414,-0.5907526016235352,-0.35808563232421875,0.7059412002563477,-0.15631961822509766
324,48954808.0,9.132960319519043,-2.018373489379883,2.281743049621582,-0.2247772216796875,0.16512012481689453,0.5763254165649414,-0.5907526016235352,-0.35808563232421875,0.7059412002563477,-0.15631961822509766
325,48954824.0,9.056344032287598,-2.0351333618164062,2.3703317642211914,-0.2247772216796875,0.16512012481689453,0.5763254165649414,-0.5907526016235352,-0.35808563232421875,0.7059412002563477,-0.15631961822509766
326,48954848.0,9.09465217590332,-2.03273868560791,2.4792709350585938,-0.2247772216796875,0.16512012481689453,0.5763254165649414,-0.5907526016235352,-0.35808563232421875,0.7059412002563477,-0.15631961822509766
327,48954968.0,9.331685066223145,-2.1787891387939453,2.5522966384887695,0.15340232849121094,-0.1502065658569336,-0.2695198059082031,-0.6030950546264648,-0.3761253356933594,0.6781473159790039,-0.1868762969970703
328,48954988.0,9.30654525756836,-2.2410402297973633,2.4792709350585938,0.07883167266845703,-0.11931324005126953,-0.28656482696533203,-0.6030950546264648,-0.3743133544921875,0.67840576171875,-0.18946552276611328
329,48955008.0,9.393936157226562,-2.3619518280029297,2.525959014892578,0.013848304748535156,-0.11931324005126953,-0.29721736907958984,-0.6027498245239258,-0.3728456497192383,0.6790962219238281,-0.1909332275390625
330,48955024.0,9.530409812927246,-2.3894853591918945,2.6732072830200195,-0.007456779479980469,-0.11079025268554688,-0.2950868606567383,-0.6023187637329102,-0.3715944290161133,0.6799163818359375,-0.19205474853515625
331,48955048.0,9.523226737976074,-2.2697715759277344,2.5894079208374023,-0.007456779479980469,-0.08841896057128906,-0.2695198059082031,-0.6017141342163086,-0.3705577850341797,0.6807794570922852,-0.19274616241455078
332,48955064.0,9.441822052001953,-2.3260374069213867,2.4948339462280273,-0.052199363708496094,-0.061786651611328125,-0.22903823852539062,-0.6017141342163086,-0.3705577850341797,0.6807794570922852,-0.19274616241455078
333,48955084.0,9.361613273620605,-2.4146251678466797,2.5175790786743164,-0.09694194793701172,-0.04793834686279297,-0.19814491271972656,-0.6017141342163086,-0.3705577850341797,0.6807794570922852,-0.19274616241455078
334,48955104.0,9.40471076965332,-2.4792709350585938,2.5786333084106445,-0.09694194793701172,-0.042611122131347656,-0.16512012481689453,-0.6017141342163086,-0.3705577850341797,0.6807794570922852,-0.19274616241455078
335,48955124.0,9.431047439575195,-2.4541311264038086,2.6073646545410156,-0.057525634765625,-0.041545867919921875,-0.1331615447998047,-0.6017141342163086,-0.3705577850341797,0.6807794570922852,-0.19274616241455078
336,48955144.0,9.399922370910645,-2.4218082427978516,2.5558881759643555,-0.0063915252685546875,-0.026632308959960938,-0.09587669372558594,-0.6017141342163086,-0.3705577850341797,0.6807794570922852,-0.19274616241455078
337,48955168.0,9.360416412353516,-2.357163429260254,2.496030807495117,-0.0063915252685546875,-0.026632308959960938,-0.09587669372558594,-0.6017141342163086,-0.3705577850341797,0.6807794570922852,-0.19274616241455078
338,48955184.0,9.347248077392578,-2.349980354309082,2.5427188873291016,-0.0063915252685546875,-0.026632308959960938,-0.09587669372558594,-0.6017141342163086,-0.3705577850341797,0.6807794570922852,-0.19274616241455078
339,48955204.0,9.380767822265625,-2.3882884979248047,2.470890998840332,-0.0063915252685546875,-0.026632308959960938,-0.09587669372558594,-0.6017141342163086,-0.3705577850341797,0.6807794570922852,-0.19274616241455078
340,48955224.0,9.317319869995117,-2.3667402267456055,2.4888477325439453,-0.0063915252685546875,-0.026632308959960938,-0.09587669372558594,-0.6017141342163086,-0.3705577850341797,0.6807794570922852,-0.19274616241455078
341,48955244.0,9.302953720092773,-2.3260374069213867,2.525959014892578,-0.0063915252685546875,-0.026632308959960938,-0.09587669372558594,-0.6017141342163086,-0.3705577850341797,0.6807794570922852,-0.19274616241455078
342,48955264.0,9.269433975219727,-2.29132080078125,2.4649057388305664,0.04367637634277344,0.0021305084228515625,0.0,-0.6017141342163086,-0.3705577850341797,0.6807794570922852,-0.19274616241455078
343,48955284.0,9.258659362792969,-2.2937145233154297,2.472087860107422,0.033023834228515625,0.0063915252685546875,0.0,-0.6017141342163086,-0.3705577850341797,0.6807794570922852,-0.19274616241455078
344,48955304.0,9.23711109161377,-2.322445869445801,2.41342830657959,0.025567054748535156,0.014913558959960938,-0.004261016845703125,-0.6017141342163086,-0.3705577850341797,0.6807794570922852,-0.19274616241455078
345,48955324.0,9.246688842773438,-2.346388816833496,2.4206113815307617,0.031958580017089844,0.005326271057128906,-0.004261016845703125,-0.6017141342163086,-0.3705577850341797,0.6807794570922852,-0.19274616241455078
346,48955344.0,9.262250900268555,-2.2733631134033203,2.3990631103515625,0.054329872131347656,0.0063915252685546875,-0.0063915252685546875,-0.6017141342163086,-0.3705577850341797,0.6807794570922852,-0.19274616241455078
347,48955464.0,9.26464557647705,-2.2051267623901367,2.2769546508789062,0.054329872131347656,0.0063915252685546875,-0.0063915252685546875,-0.5945930480957031,-0.38044166564941406,0.6841888427734375,-0.18320751190185547
348,48955464.0,9.26464557647705,-2.2051267623901367,2.2769546508789062,0.054329872131347656,0.0063915252685546875,-0.0063915252685546875,-0.5945930480957031,-0.38044166564941406,0.6841888427734375,-0.18320751190185547
349,48955484.0,9.261054039001465,-2.256603240966797,2.318854331970215,0.054329872131347656,0.0063915252685546875,-0.0063915252685546875,-0.5945930480957031,-0.38044166564941406,0.6841888427734375,-0.18320751190185547
350,48955484.0,9.261054039001465,-2.256603240966797,2.318854331970215,0.054329872131347656,0.0063915252685546875,-0.0063915252685546875,-0.5945930480957031,-0.38044166564941406,0.6841888427734375,-0.18320751190185547
351,48955504.0,9.323305130004883,-2.286531448364258,2.3308258056640625,0.054329872131347656,0.0063915252685546875,-0.0063915252685546875,-0.5945930480957031,-0.38044166564941406,0.6841888427734375,-0.18320751190185547
352,48955504.0,9.323305130004883,-2.286531448364258,2.3308258056640625,0.054329872131347656,0.0063915252685546875,-0.0063915252685546875,-0.5945930480957031,-0.38044166564941406,0.6841888427734375,-0.18320751190185547
353,48955524.0,9.342459678649902,-2.253011703491211,2.255406379699707,0.054329872131347656,0.0063915252685546875,-0.0063915252685546875,-0.5945930480957031,-0.38044166564941406,0.6841888427734375,-0.18320751190185547
354,48955524.0,9.342459678649902,-2.253011703491211,2.255406379699707,0.054329872131347656,0.0063915252685546875,-0.0063915252685546875,-0.5945930480957031,-0.38044166564941406,0.6841888427734375,-0.18320751190185547
355,48955544.0,9.2550687789917,-2.2350549697875977,2.258997917175293,0.054329872131347656,0.0063915252685546875,-0.0063915252685546875,-0.5945930480957031,-0.38044166564941406,0.6841888427734375,-0.18320751190185547
356,48955544.0,9.2550687789917,-2.2350549697875977,2.258997917175293,0.054329872131347656,0.0063915252685546875,-0.0063915252685546875,-0.5945930480957031,-0.38044166564941406,0.6841888427734375,-0.18320751190185547
357,48955564.0,9.245491027832031,-2.251814842224121,2.2470264434814453,-0.0031957626342773438,0.004261016845703125,0.10120296478271484,-0.5945930480957031,-0.38044166564941406,0.6841888427734375,-0.18320751190185547
358,48955584.0,9.313728332519531,-2.2039289474487305,2.2949113845825195,0.013848304748535156,-0.007456779479980469,0.1033334732055664,-0.5945930480957031,-0.38044166564941406,0.6841888427734375,-0.18320751190185547
359,48955604.0,9.393936157226562,-2.106961250305176,2.3320226669311523,0.025567054748535156,-0.011717796325683594,0.11079025268554688,-0.5945930480957031,-0.38044166564941406,0.6841888427734375,-0.18320751190185547
360,48955624.0,9.33527660369873,-2.10097599029541,2.2649831771850586,0.0,-0.007456779479980469,0.10759449005126953,-0.5945930480957031,-0.38044166564941406,0.6841888427734375,-0.18320751190185547
361,48955644.0,9.228731155395508,-2.1117496490478516,2.2793493270874023,-0.041545867919921875,0.004261016845703125,0.0980072021484375,-0.5945930480957031,-0.38044166564941406,0.6841888427734375,-0.18320751190185547
362,48955664.0,9.227534294128418,-2.22188663482666,2.29132080078125,-0.041545867919921875,0.004261016845703125,0.0980072021484375,-0.5945930480957031,-0.38044166564941406,0.6841888427734375,-0.18320751190185547
363,48955664.0,9.227534294128418,-2.22188663482666,2.29132080078125,-0.041545867919921875,0.004261016845703125,0.0980072021484375,-0.5945930480957031,-0.38044166564941406,0.6841888427734375,-0.18320751190185547
364,48955684.0,9.295770645141602,-2.2063236236572266,2.314065933227539,-0.041545867919921875,0.004261016845703125,0.0980072021484375,-0.5945930480957031,-0.38044166564941406,0.6841888427734375,-0.18320751190185547
365,48955684.0,9.295770645141602,-2.2063236236572266,2.314065933227539,-0.041545867919921875,0.004261016845703125,0.0980072021484375,-0.5945930480957031,-0.38044166564941406,0.6841888427734375,-0.18320751190185547
366,48955704.0,9.361613273620605,-2.1105527877807617,2.310474395751953,-0.041545867919921875,0.004261016845703125,0.0980072021484375,-0.5945930480957031,-0.38044166564941406,0.6841888427734375,-0.18320751190185547
367,48955704.0,9.361613273620605,-2.1105527877807617,2.310474395751953,-0.041545867919921875,0.004261016845703125,0.0980072021484375,-0.5945930480957031,-0.38044166564941406,0.6841888427734375,-0.18320751190185547
368,48955724.0,9.292180061340332,-2.133297920227051,2.315262794494629,-0.041545867919921875,0.004261016845703125,0.0980072021484375,-0.5945930480957031,-0.38044166564941406,0.6841888427734375,-0.18320751190185547
369,48955724.0,9.292180061340332,-2.133297920227051,2.315262794494629,-0.041545867919921875,0.004261016845703125,0.0980072021484375,-0.5945930480957031,-0.38044166564941406,0.6841888427734375,-0.18320751190185547
370,48955744.0,9.247885704040527,-2.1847753524780273,2.322445869445801,-0.041545867919921875,0.004261016845703125,0.0980072021484375,-0.5945930480957031,-0.38044166564941406,0.6841888427734375,-0.18320751190185547
371,48955744.0,9.247885704040527,-2.1847753524780273,2.322445869445801,-0.041545867919921875,0.004261016845703125,0.0980072021484375,-0.5945930480957031,-0.38044166564941406,0.6841888427734375,-0.18320751190185547
372,48955864.0,9.381964683532715,-2.2374496459960938,2.369133949279785,0.022370338439941406,-0.03728485107421875,-0.0287628173828125,-0.5979166030883789,-0.38851165771484375,0.6782760620117188,-0.17729473114013672
373,48955884.0,9.417879104614258,-2.1823806762695312,2.3679370880126953,0.03835010528564453,-0.041545867919921875,-0.031958580017089844,-0.5979166030883789,-0.38851165771484375,0.6781902313232422,-0.1778125762939453
374,48955904.0,9.347248077392578,-2.1883668899536133,2.383500099182129,0.0170440673828125,-0.023435592651367188,-0.031958580017089844,-0.5978736877441406,-0.3883390426635742,0.6781902313232422,-0.1781148910522461
375,48955924.0,9.366402626037598,-2.2170982360839844,2.3703317642211914,-0.0170440673828125,-0.022370338439941406,-0.033023834228515625,-0.5979595184326172,-0.38799381256103516,0.6783628463745117,-0.17820167541503906
376,48955944.0,9.340065002441406,-2.281743049621582,2.3523740768432617,-0.02769756317138672,-0.0170440673828125,-0.031958580017089844,-0.5980024337768555,-0.3876924514770508,0.678492546081543,-0.17824459075927734
377,48956064.0,9.324501991271973,-2.248223304748535,2.314065933227539,-0.020239830017089844,0.0,-0.024501800537109375,-0.5980024337768555,-0.3876924514770508,0.678492546081543,-0.17824459075927734
378,48956064.0,9.324501991271973,-2.248223304748535,2.314065933227539,-0.020239830017089844,0.0,-0.024501800537109375,-0.5980024337768555,-0.3876924514770508,0.678492546081543,-0.17824459075927734
379,48956080.0,9.331685066223145,-2.2398433685302734,2.254209518432617,-0.020239830017089844,0.0,-0.024501800537109375,-0.5980024337768555,-0.3876924514770508,0.678492546081543,-0.17824459075927734
380,48956080.0,9.331685066223145,-2.2398433685302734,2.254209518432617,-0.020239830017089844,0.0,-0.024501800537109375,-0.5980024337768555,-0.3876924514770508,0.678492546081543,-0.17824459075927734
381,48956104.0,9.318516731262207,-2.2578001022338867,2.286531448364258,-0.020239830017089844,0.0,-0.024501800537109375,-0.5980024337768555,-0.3876924514770508,0.678492546081543,-0.17824459075927734
382,48956104.0,9.318516731262207,-2.2578001022338867,2.286531448364258,-0.020239830017089844,0.0,-0.024501800537109375,-0.5980024337768555,-0.3876924514770508,0.678492546081543,-0.17824459075927734
383,48956120.0,9.2550687789917,-2.286531448364258,2.2314634323120117,-0.020239830017089844,0.0,-0.024501800537109375,-0.5980024337768555,-0.3876924514770508,0.678492546081543,-0.17824459075927734
384,48956120.0,9.2550687789917,-2.286531448364258,2.2314634323120117,-0.020239830017089844,0.0,-0.024501800537109375,-0.5980024337768555,-0.3876924514770508,0.678492546081543,-0.17824459075927734
385,48956144.0,9.298165321350098,-2.351177215576172,2.256603240966797,-0.020239830017089844,0.0,-0.024501800537109375,-0.5980024337768555,-0.3876924514770508,0.678492546081543,-0.17824459075927734
386,48956144.0,9.298165321350098,-2.351177215576172,2.256603240966797,-0.020239830017089844,0.0,-0.024501800537109375,-0.5980024337768555,-0.3876924514770508,0.678492546081543,-0.17824459075927734
387,48956264.0,9.323305130004883,-2.3080806732177734,2.230266571044922,-0.005326271057128906,-0.0170440673828125,-0.01597881317138672,-0.5980024337768555,-0.3876924514770508,0.678492546081543,-0.17824459075927734
388,48956264.0,9.323305130004883,-2.3080806732177734,2.230266571044922,-0.005326271057128906,-0.0170440673828125,-0.01597881317138672,-0.5980024337768555,-0.3876924514770508,0.678492546081543,-0.17824459075927734
389,48956280.0,9.409499168395996,-2.314065933227539,2.215900421142578,-0.005326271057128906,-0.025567054748535156,0.0,-0.5980024337768555,-0.3876924514770508,0.678492546081543,-0.17824459075927734
390,48956280.0,9.409499168395996,-2.314065933227539,2.215900421142578,-0.005326271057128906,-0.025567054748535156,0.0,-0.5980024337768555,-0.3876924514770508,0.678492546081543,-0.17824459075927734
391,48956300.0,9.42506217956543,-2.281743049621582,2.2135066986083984,-0.004261016845703125,-0.02769756317138672,0.00852203369140625,-0.5980024337768555,-0.3876924514770508,0.678492546081543,-0.17824459075927734
392,48956300.0,9.42506217956543,-2.281743049621582,2.2135066986083984,-0.004261016845703125,-0.02769756317138672,0.00852203369140625,-0.5980024337768555,-0.3876924514770508,0.678492546081543,-0.17824459075927734
393,48956320.0,9.361613273620605,-2.2829408645629883,2.2506179809570312,0.007456779479980469,-0.013848304748535156,0.014913558959960938,-0.5980024337768555,-0.3876924514770508,0.678492546081543,-0.17824459075927734
394,48956320.0,9.361613273620605,-2.2829408645629883,2.2506179809570312,0.007456779479980469,-0.013848304748535156,0.014913558959960938,-0.5980024337768555,-0.3876924514770508,0.678492546081543,-0.17824459075927734
395,48956340.0,9.364007949829102,-2.2422380447387695,2.2422380447387695,0.01597881317138672,-0.021305084228515625,0.022370338439941406,-0.5980024337768555,-0.3876924514770508,0.678492546081543,-0.17824459075927734
396,48956340.0,9.364007949829102,-2.2422380447387695,2.2422380447387695,0.01597881317138672,-0.021305084228515625,0.022370338439941406,-0.5980024337768555,-0.3876924514770508,0.678492546081543,-0.17824459075927734
397,48956360.0,9.373584747314453,-2.230266571044922,2.2458295822143555,0.00852203369140625,-0.022370338439941406,0.019174575805664062,-0.5980024337768555,-0.3876924514770508,0.678492546081543,-0.17824459075927734
398,48956380.0,9.298165321350098,-2.2362518310546875,2.280546188354492,-0.005326271057128906,-0.013848304748535156,0.0170440673828125,-0.5980024337768555,-0.3876924514770508,0.678492546081543,-0.17824459075927734
399,48956400.0,9.323305130004883,-2.2470264434814453,2.2973060607910156,-0.011717796325683594,-0.014913558959960938,0.020239830017089844,-0.5980024337768555,-0.3876924514770508,0.678492546081543,-0.17824459075927734
400,48956420.0,9.311333656311035,-2.215900421142578,2.287729263305664,-0.0031957626342773438,-0.019174575805664062,0.020239830017089844,-0.5980024337768555,-0.3876924514770508,0.678492546081543,-0.17824459075927734
401,48956440.0,9.312531471252441,-2.2039289474487305,2.2985029220581055,-0.00852203369140625,-0.014913558959960938,0.024501800537109375,-0.5980024337768555,-0.3876924514770508,0.678492546081543,-0.17824459075927734
402,48956560.0,9.37478256225586,-2.193155288696289,2.2745609283447266,0.026632308959960938,-0.009587287902832031,0.01810932159423828,-0.5980024337768555,-0.3876924514770508,0.678492546081543,-0.17824459075927734
403,48956580.0,9.410696029663086,-2.226675033569336,2.2506179809570312,0.026632308959960938,-0.009587287902832031,0.01810932159423828,-0.5980024337768555,-0.3876924514770508,0.678492546081543,-0.17824459075927734
404,48956600.0,9.35443115234375,-2.2039289474487305,2.248223304748535,0.026632308959960938,-0.009587287902832031,0.01810932159423828,-0.5980024337768555,-0.3876924514770508,0.678492546081543,-0.17824459075927734
405,48956620.0,9.343656539916992,-2.2422380447387695,2.2350549697875977,0.026632308959960938,-0.009587287902832031,0.01810932159423828,-0.5980024337768555,-0.3876924514770508,0.678492546081543,-0.17824459075927734
406,48956640.0,9.331685066223145,-2.2350549697875977,2.2350549697875977,0.026632308959960938,-0.009587287902832031,0.01810932159423828,-0.5980024337768555,-0.3876924514770508,0.678492546081543,-0.17824459075927734
407,48956660.0,9.319713592529297,-2.1991405487060547,2.22188663482666,-0.0031957626342773438,0.0063915252685546875,0.009587287902832031,-0.5992107391357422,-0.38739013671875,0.6776723861694336,-0.17763996124267578
408,48956680.0,9.298165321350098,-2.22308349609375,2.225478172302246,0.0031957626342773438,0.007456779479980469,0.007456779479980469,-0.5992107391357422,-0.3874330520629883,0.6777153015136719,-0.17763996124267578
409,48956700.0,9.310136795043945,-2.196746826171875,2.2135066986083984,0.007456779479980469,0.0,0.005326271057128906,-0.5991678237915039,-0.3874330520629883,0.6777153015136719,-0.1775970458984375
410,48956720.0,9.37597942352295,-2.2027320861816406,2.1728038787841797,-0.0010652542114257812,-0.0021305084228515625,-0.0021305084228515625,-0.5991678237915039,-0.3874330520629883,0.6777153015136719,-0.1775970458984375
411,48956740.0,9.37478256225586,-2.2398433685302734,2.22308349609375,-0.009587287902832031,-0.0010652542114257812,-0.007456779479980469,-0.5991678237915039,-0.38739013671875,0.6777582168579102,-0.1775970458984375
412,48956860.0,9.308939933776855,-2.2757577896118164,2.212308883666992,-0.009587287902832031,-0.0010652542114257812,-0.007456779479980469,-0.5991678237915039,-0.38739013671875,0.6777582168579102,-0.1775970458984375
413,48956880.0,9.317319869995117,-2.2973060607910156,2.2099151611328125,-0.009587287902832031,-0.0010652542114257812,-0.007456779479980469,-0.5991678237915039,-0.38739013671875,0.6777582168579102,-0.1775970458984375
414,48956900.0,9.325699806213379,-2.278151512145996,2.2087182998657227,-0.009587287902832031,-0.0010652542114257812,-0.007456779479980469,-0.5991678237915039,-0.38739013671875,0.6777582168579102,-0.1775970458984375
415,48956920.0,9.346051216125488,-2.280546188354492,2.2099151611328125,-0.009587287902832031,-0.0010652542114257812,-0.007456779479980469,-0.5991678237915039,-0.38739013671875,0.6777582168579102,-0.1775970458984375
416,48956940.0,9.366402626037598,-2.280546188354492,2.2386465072631836,-0.009587287902832031,-0.0010652542114257812,-0.007456779479980469,-0.5991678237915039,-0.38739013671875,0.6777582168579102,-0.1775970458984375
417,48956960.0,9.338868141174316,-2.306882858276367,2.193155288696289,-0.007456779479980469,-0.0031957626342773438,-0.0010652542114257812,-0.5991678237915039,-0.38739013671875,0.6777582168579102,-0.1775970458984375
418,48956980.0,9.368796348571777,-2.3008975982666016,2.2051267623901367,-0.0021305084228515625,-0.004261016845703125,0.0,-0.5991678237915039,-0.38739013671875,0.6777582168579102,-0.1775970458984375
419,48957000.0,9.379570960998535,-2.281743049621582,2.22428035736084,0.004261016845703125,-0.009587287902832031,0.004261016845703125,-0.5991678237915039,-0.38739013671875,0.6777582168579102,-0.1775970458984375
420,48957020.0,9.346051216125488,-2.2757577896118164,2.248223304748535,0.0063915252685546875,-0.005326271057128906,0.009587287902832031,-0.5991678237915039,-0.38739013671875,0.6777582168579102,-0.1775970458984375
421,48957040.0,9.344853401184082,-2.2901229858398438,2.2410402297973633,0.0031957626342773438,-0.0031957626342773438,0.010652542114257812,-0.5991678237915039,-0.38739013671875,0.6777582168579102,-0.1775970458984375
422,48957060.0,9.367599487304688,-2.315262794494629,2.2434349060058594,0.0031957626342773438,-0.0031957626342773438,0.010652542114257812,-0.5991678237915039,-0.38739013671875,0.6777582168579102,-0.1775970458984375
423,48957060.0,9.367599487304688,-2.315262794494629,2.2434349060058594,0.0031957626342773438,-0.0031957626342773438,0.010652542114257812,-0.5991678237915039,-0.38739013671875,0.6777582168579102,-0.1775970458984375
424,48957080.0,9.381964683532715,-2.249420166015625,2.266180992126465,0.0031957626342773438,-0.0031957626342773438,0.010652542114257812,-0.5991678237915039,-0.38739013671875,0.6777582168579102,-0.1775970458984375
425,48957080.0,9.381964683532715,-2.249420166015625,2.266180992126465,0.0031957626342773438,-0.0031957626342773438,0.010652542114257812,-0.5991678237915039,-0.38739013671875,0.6777582168579102,-0.1775970458984375
426,48957100.0,9.359219551086426,-2.253011703491211,2.1835784912109375,0.0031957626342773438,-0.0031957626342773438,0.010652542114257812,-0.5991678237915039,-0.38739013671875,0.6777582168579102,-0.1775970458984375
427,48957100.0,9.359219551086426,-2.253011703491211,2.1835784912109375,0.0031957626342773438,-0.0031957626342773438,0.010652542114257812,-0.5991678237915039,-0.38739013671875,0.6777582168579102,-0.1775970458984375
428,48957120.0,9.33527660369873,-2.2350549697875977,2.2506179809570312,0.0031957626342773438,-0.0031957626342773438,0.010652542114257812,-0.5991678237915039,-0.38739013671875,0.6777582168579102,-0.1775970458984375
429,48957120.0,9.33527660369873,-2.2350549697875977,2.2506179809570312,0.0031957626342773438,-0.0031957626342773438,0.010652542114257812,-0.5991678237915039,-0.38739013671875,0.6777582168579102,-0.1775970458984375
430,48957140.0,9.332881927490234,-2.2757577896118164,2.229069709777832,0.0031957626342773438,-0.0031957626342773438,0.010652542114257812,-0.5991678237915039,-0.38739013671875,0.6777582168579102,-0.1775970458984375
431,48957140.0,9.332881927490234,-2.2757577896118164,2.229069709777832,0.0031957626342773438,-0.0031957626342773438,0.010652542114257812,-0.5991678237915039,-0.38739013671875,0.6777582168579102,-0.1775970458984375
432,48957256.0,9.33527660369873,-2.2386465072631836,2.2362518310546875,0.021305084228515625,0.005326271057128906,-0.005326271057128906,-0.5988225936889648,-0.3885984420776367,0.6774997711181641,-0.17716598510742188
433,48957276.0,9.343656539916992,-2.266180992126465,2.254209518432617,0.021305084228515625,0.005326271057128906,-0.005326271057128906,-0.5988225936889648,-0.3885984420776367,0.6774997711181641,-0.17716598510742188
434,48957296.0,9.37478256225586,-2.2578001022338867,2.253011703491211,0.021305084228515625,0.005326271057128906,-0.005326271057128906,-0.5988225936889648,-0.3885984420776367,0.6774997711181641,-0.17716598510742188
435,48957316.0,9.344853401184082,-2.2147035598754883,2.278151512145996,0.021305084228515625,0.005326271057128906,-0.005326271057128906,-0.5988225936889648,-0.3885984420776367,0.6774997711181641,-0.17716598510742188
436,48957336.0,9.331685066223145,-2.22188663482666,2.258997917175293,0.021305084228515625,0.005326271057128906,-0.005326271057128906,-0.5988225936889648,-0.3885984420776367,0.6774997711181641,-0.17716598510742188
437,48957360.0,9.361613273620605,-2.230266571044922,2.227871894836426,-0.022370338439941406,0.01810932159423828,0.01810932159423828,-0.5988225936889648,-0.3885984420776367,0.6774997711181641,-0.17716598510742188
438,48957360.0,9.361613273620605,-2.230266571044922,2.227871894836426,-0.022370338439941406,0.01810932159423828,0.01810932159423828,-0.5988225936889648,-0.3885984420776367,0.6774997711181641,-0.17716598510742188
439,48957376.0,9.365204811096191,-2.2147035598754883,2.2039289474487305,-0.021305084228515625,0.019174575805664062,0.020239830017089844,-0.5988225936889648,-0.3885984420776367,0.6774997711181641,-0.17716598510742188
440,48957376.0,9.365204811096191,-2.2147035598754883,2.2039289474487305,-0.021305084228515625,0.019174575805664062,0.020239830017089844,-0.5988225936889648,-0.3885984420776367,0.6774997711181641,-0.17716598510742188
441,48957396.0,9.352036476135254,-2.1835784912109375,2.196746826171875,-0.0170440673828125,0.021305084228515625,0.021305084228515625,-0.5988225936889648,-0.3885984420776367,0.6774997711181641,-0.17716598510742188
442,48957396.0,9.352036476135254,-2.1835784912109375,2.196746826171875,-0.0170440673828125,0.021305084228515625,0.021305084228515625,-0.5988225936889648,-0.3885984420776367,0.6774997711181641,-0.17716598510742188
443,48957416.0,9.299362182617188,-2.2147035598754883,2.191958427429199,-0.01810932159423828,0.02769756317138672,0.019174575805664062,-0.5988225936889648,-0.3885984420776367,0.6774997711181641,-0.17716598510742188
444,48957416.0,9.299362182617188,-2.2147035598754883,2.191958427429199,-0.01810932159423828,0.02769756317138672,0.019174575805664062,-0.5988225936889648,-0.3885984420776367,0.6774997711181641,-0.17716598510742188
445,48957436.0,9.330488204956055,-2.2099151611328125,2.201535224914551,-0.01597881317138672,0.012783050537109375,0.010652542114257812,-0.5988225936889648,-0.3885984420776367,0.6774997711181641,-0.17716598510742188
446,48957436.0,9.330488204956055,-2.2099151611328125,2.201535224914551,-0.01597881317138672,0.012783050537109375,0.010652542114257812,-0.5988225936889648,-0.3885984420776367,0.6774997711181641,-0.17716598510742188
447,48957456.0,9.299362182617188,-2.2087182998657227,2.1835784912109375,-0.01597881317138672,0.012783050537109375,0.010652542114257812,-0.5988225936889648,-0.3885984420776367,0.6774997711181641,-0.17716598510742188
448,48957476.0,9.302953720092773,-2.1692123413085938,2.190760612487793,-0.01597881317138672,0.012783050537109375,0.010652542114257812,-0.5988225936889648,-0.3885984420776367,0.6774997711181641,-0.17716598510742188
449,48957496.0,9.330488204956055,-2.1440725326538086,2.1787891387939453,-0.01597881317138672,0.012783050537109375,0.010652542114257812,-0.5988225936889648,-0.3885984420776367,0.6774997711181641,-0.17716598510742188
450,48957516.0,9.252674102783203,-2.2470264434814453,2.191958427429199,-0.01597881317138672,0.012783050537109375,0.010652542114257812,-0.5988225936889648,-0.3885984420776367,0.6774997711181641,-0.17716598510742188
451,48957536.0,9.277813911437988,-2.2757577896118164,2.189563751220703,-0.01597881317138672,0.012783050537109375,0.010652542114257812,-0.5988225936889648,-0.3885984420776367,0.6774997711181641,-0.17716598510742188
452,48957656.0,9.408302307128906,-2.29251766204834,2.212308883666992,-0.010652542114257812,-0.0170440673828125,-0.02769756317138672,-0.5984344482421875,-0.38756275177001953,0.6783628463745117,-0.17720890045166016
453,48957656.0,9.408302307128906,-2.29251766204834,2.212308883666992,-0.010652542114257812,-0.0170440673828125,-0.02769756317138672,-0.5984344482421875,-0.38756275177001953,0.6783628463745117,-0.17720890045166016
454,48957676.0,9.37478256225586,-2.286531448364258,2.2326602935791016,-0.010652542114257812,-0.0170440673828125,-0.02769756317138672,-0.5985202789306641,-0.38739013671875,0.6784486770629883,-0.17720890045166016
455,48957676.0,9.37478256225586,-2.286531448364258,2.2326602935791016,-0.010652542114257812,-0.0170440673828125,-0.02769756317138672,-0.5985202789306641,-0.38739013671875,0.6784486770629883,-0.17720890045166016
456,48957696.0,9.320911407470703,-2.306882858276367,2.2458295822143555,-0.010652542114257812,-0.0170440673828125,-0.02769756317138672,-0.5986928939819336,-0.3871746063232422,0.678492546081543,-0.1771221160888672
457,48957696.0,9.320911407470703,-2.306882858276367,2.2458295822143555,-0.010652542114257812,-0.0170440673828125,-0.02769756317138672,-0.5986928939819336,-0.3871746063232422,0.678492546081543,-0.1771221160888672
458,48957716.0,9.341261863708496,-2.310474395751953,2.2673778533935547,-0.010652542114257812,-0.0170440673828125,-0.02769756317138672,-0.5988655090332031,-0.38700103759765625,0.678492546081543,-0.17694950103759766
459,48957716.0,9.341261863708496,-2.310474395751953,2.2673778533935547,-0.010652542114257812,-0.0170440673828125,-0.02769756317138672,-0.5988655090332031,-0.38700103759765625,0.678492546081543,-0.17694950103759766
460,48957736.0,9.380767822265625,-2.2733631134033203,2.2506179809570312,-0.010652542114257812,-0.0170440673828125,-0.02769756317138672,-0.5989522933959961,-0.3868284225463867,0.678492546081543,-0.17677688598632812
461,48957736.0,9.380767822265625,-2.2733631134033203,2.2506179809570312,-0.010652542114257812,-0.0170440673828125,-0.02769756317138672,-0.5989522933959961,-0.3868284225463867,0.678492546081543,-0.17677688598632812
462,48957856.0,9.350839614868164,-2.226675033569336,2.2673778533935547,-0.010652542114257812,-0.007456779479980469,-0.0021305084228515625,-0.5989522933959961,-0.3868284225463867,0.678492546081543,-0.17677688598632812
463,48957876.0,9.308939933776855,-2.244631767272949,2.2434349060058594,-0.010652542114257812,-0.007456779479980469,-0.0021305084228515625,-0.5989522933959961,-0.3868284225463867,0.678492546081543,-0.17677688598632812
464,48957896.0,9.35682487487793,-2.2745609283447266,2.230266571044922,-0.010652542114257812,-0.007456779479980469,-0.0021305084228515625,-0.5989522933959961,-0.3868284225463867,0.678492546081543,-0.17677688598632812
465,48957912.0,9.440624237060547,-2.2099151611328125,2.219491958618164,-0.010652542114257812,-0.007456779479980469,-0.0021305084228515625,-0.5989522933959961,-0.3868284225463867,0.678492546081543,-0.17677688598632812
466,48957936.0,9.361613273620605,-2.189563751220703,2.249420166015625,-0.010652542114257812,-0.007456779479980469,-0.0021305084228515625,-0.5989522933959961,-0.3868284225463867,0.678492546081543,-0.17677688598632812
467,48957956.0,9.320911407470703,-2.2949113845825195,2.2170982360839844,-0.033023834228515625,0.01810932159423828,-0.01597881317138672,-0.5989522933959961,-0.3868284225463867,0.678492546081543,-0.17677688598632812
468,48957976.0,9.30654525756836,-2.212308883666992,2.2075204849243164,0.0,0.005326271057128906,-0.011717796325683594,-0.5989522933959961,-0.3868284225463867,0.678492546081543,-0.17677688598632812
469,48957996.0,9.381964683532715,-2.2039289474487305,2.2051267623901367,0.010652542114257812,-0.007456779479980469,-0.01810932159423828,-0.5989522933959961,-0.3868284225463867,0.678492546081543,-0.17677688598632812
470,48958016.0,9.35682487487793,-2.175198554992676,2.1955490112304688,0.00852203369140625,0.0,-0.012783050537109375,-0.5989522933959961,-0.3868284225463867,0.678492546081543,-0.17677688598632812
471,48958032.0,9.26584243774414,-2.2147035598754883,2.2206897735595703,0.0021305084228515625,0.0063915252685546875,-0.021305084228515625,-0.5989522933959961,-0.3868284225463867,0.678492546081543,-0.17677688598632812
472,48958056.0,9.247885704040527,-2.2075204849243164,2.255406379699707,0.0021305084228515625,0.0063915252685546875,-0.021305084228515625,-0.5989522933959961,-0.3868284225463867,0.678492546081543,-0.17677688598632812
473,48958076.0,9.358022689819336,-2.2170982360839844,2.1799869537353516,0.0021305084228515625,0.0063915252685546875,-0.021305084228515625,-0.5989522933959961,-0.3868284225463867,0.678492546081543,-0.17677688598632812
474,48958096.0,9.472947120666504,-2.22428035736084,2.2206897735595703,0.0021305084228515625,0.0063915252685546875,-0.021305084228515625,-0.5989522933959961,-0.3868284225463867,0.678492546081543,-0.17677688598632812
475,48958116.0,9.373584747314453,-2.249420166015625,2.2147035598754883,0.0021305084228515625,0.0063915252685546875,-0.021305084228515625,-0.5989522933959961,-0.3868284225463867,0.678492546081543,-0.17677688598632812
476,48958136.0,9.33527660369873,-2.2649831771850586,2.2206897735595703,0.0021305084228515625,0.0063915252685546875,-0.021305084228515625,-0.5989522933959961,-0.3868284225463867,0.678492546081543,-0.17677688598632812
477,48958156.0,9.381964683532715,-2.2434349060058594,2.226675033569336,0.0,-0.00852203369140625,-0.024501800537109375,-0.5991678237915039,-0.38376426696777344,0.6800022125244141,-0.17690658569335938
478,48958176.0,9.379570960998535,-2.218295097351074,2.218295097351074,0.0,-0.005326271057128906,-0.019174575805664062,-0.5991249084472656,-0.3836784362792969,0.680088996887207,-0.17703628540039062
479,48958196.0,9.341261863708496,-2.22188663482666,2.2506179809570312,-0.011717796325683594,0.004261016845703125,-0.014913558959960938,-0.5991678237915039,-0.3835487365722656,0.6801319122314453,-0.17690658569335938
480,48958216.0,9.328093528747559,-2.2422380447387695,2.229069709777832,-0.02769756317138672,0.0063915252685546875,-0.004261016845703125,-0.5992546081542969,-0.3833332061767578,0.6801748275756836,-0.17673397064208984
481,48958236.0,9.364007949829102,-2.2170982360839844,2.2135066986083984,-0.031958580017089844,0.005326271057128906,0.0,-0.5993833541870117,-0.3831605911254883,0.6802616119384766,-0.17651844024658203
482,48958352.0,9.384359359741211,-2.162029266357422,2.2135066986083984,-0.031958580017089844,0.005326271057128906,0.0,-0.5993833541870117,-0.3831605911254883,0.6802616119384766,-0.17651844024658203
483,48958352.0,9.384359359741211,-2.162029266357422,2.2135066986083984,-0.031958580017089844,0.005326271057128906,0.0,-0.5993833541870117,-0.3831605911254883,0.6802616119384766,-0.17651844024658203
484,48958352.0,9.384359359741211,-2.162029266357422,2.2135066986083984,-0.031958580017089844,0.005326271057128906,0.0,-0.5993833541870117,-0.3831605911254883,0.6802616119384766,-0.17651844024658203
485,48958372.0,9.348444938659668,-2.1775922775268555,2.2075204849243164,-0.031958580017089844,0.005326271057128906,0.0,-0.5993833541870117,-0.3831605911254883,0.6802616119384766,-0.17651844024658203
486,48958372.0,9.348444938659668,-2.1775922775268555,2.2075204849243164,-0.031958580017089844,0.005326271057128906,0.0,-0.5993833541870117,-0.3831605911254883,0.6802616119384766,-0.17651844024658203
487,48958372.0,9.348444938659668,-2.1775922775268555,2.2075204849243164,-0.031958580017089844,0.005326271057128906,0.0,-0.5993833541870117,-0.3831605911254883,0.6802616119384766,-0.17651844024658203
488,48958392.0,9.257462501525879,-2.2051267623901367,2.22308349609375,-0.031958580017089844,0.005326271057128906,0.0,-0.5993833541870117,-0.3831605911254883,0.6802616119384766,-0.17651844024658203
489,48958392.0,9.257462501525879,-2.2051267623901367,2.22308349609375,-0.031958580017089844,0.005326271057128906,0.0,-0.5993833541870117,-0.3831605911254883,0.6802616119384766,-0.17651844024658203
490,48958392.0,9.257462501525879,-2.2051267623901367,2.22308349609375,-0.031958580017089844,0.005326271057128906,0.0,-0.5993833541870117,-0.3831605911254883,0.6802616119384766,-0.17651844024658203
491,48958412.0,9.337671279907227,-2.2398433685302734,2.200338363647461,-0.031958580017089844,0.005326271057128906,0.0,-0.5993833541870117,-0.3831605911254883,0.6802616119384766,-0.17651844024658203
492,48958412.0,9.337671279907227,-2.2398433685302734,2.200338363647461,-0.031958580017089844,0.005326271057128906,0.0,-0.5993833541870117,-0.3831605911254883,0.6802616119384766,-0.17651844024658203
493,48958412.0,9.337671279907227,-2.2398433685302734,2.200338363647461,-0.031958580017089844,0.005326271057128906,0.0,-0.5993833541870117,-0.3831605911254883,0.6802616119384766,-0.17651844024658203
494,48958432.0,9.378373146057129,-2.248223304748535,2.2170982360839844,-0.031958580017089844,0.005326271057128906,0.0,-0.5993833541870117,-0.3831605911254883,0.6802616119384766,-0.17651844024658203
495,48958432.0,9.378373146057129,-2.248223304748535,2.2170982360839844,-0.031958580017089844,0.005326271057128906,0.0,-0.5993833541870117,-0.3831605911254883,0.6802616119384766,-0.17651844024658203
496,48958432.0,9.378373146057129,-2.248223304748535,2.2170982360839844,-0.031958580017089844,0.005326271057128906,0.0,-0.5993833541870117,-0.3831605911254883,0.6802616119384766,-0.17651844024658203
497,48958656.0,13.685673713684082,-11.913910865783691,4.539544105529785,-0.7254667282104492,-0.040480613708496094,0.2194509506225586,-0.6055126190185547,-0.3778085708618164,0.6810388565063477,-0.16382980346679688
498,48958656.0,13.685673713684082,-11.913910865783691,4.539544105529785,-0.7254667282104492,-0.040480613708496094,0.2194509506225586,-0.6055126190185547,-0.3778085708618164,0.6810388565063477,-0.16382980346679688
499,48958672.0,14.31656551361084,-10.822121620178223,4.146883010864258,-0.7254667282104492,-0.040480613708496094,0.2194509506225586,-0.6055126190185547,-0.3778085708618164,0.6810388565063477,-0.16382980346679688
500,48958672.0,14.31656551361084,-10.822121620178223,4.146883010864258,-0.7254667282104492,-0.040480613708496094,0.2194509506225586,-0.6055126190185547,-0.3778085708618164,0.6810388565063477,-0.16382980346679688
501,48958692.0,15.895588874816895,-11.724762916564941,4.231880187988281,-0.7254667282104492,-0.040480613708496094,0.2194509506225586,-0.6055126190185547,-0.3778085708618164,0.6810388565063477,-0.16382980346679688
502,48958692.0,15.895588874816895,-11.724762916564941,4.231880187988281,-0.7254667282104492,-0.040480613708496094,0.2194509506225586,-0.6055126190185547,-0.3778085708618164,0.6810388565063477,-0.16382980346679688
503,48958712.0,15.947066307067871,-11.631385803222656,2.725881576538086,-0.7254667282104492,-0.040480613708496094,0.2194509506225586,-0.6055126190185547,-0.3778085708618164,0.6810388565063477,-0.16382980346679688
504,48958712.0,15.947066307067871,-11.631385803222656,2.725881576538086,-0.7254667282104492,-0.040480613708496094,0.2194509506225586,-0.6055126190185547,-0.3778085708618164,0.6810388565063477,-0.16382980346679688
505,48958732.0,13.164918899536133,-9.069512367248535,1.2234735488891602,-0.7254667282104492,-0.040480613708496094,0.2194509506225586,-0.6055126190185547,-0.3778085708618164,0.6810388565063477,-0.16382980346679688
506,48958732.0,13.164918899536133,-9.069512367248535,1.2234735488891602,-0.7254667282104492,-0.040480613708496094,0.2194509506225586,-0.6055126190185547,-0.3778085708618164,0.6810388565063477,-0.16382980346679688
507,48958752.0,10.686844825744629,-8.624176979064941,3.674014091491699,0.4729909896850586,1.6480140686035156,5.653530120849609,-0.6055126190185547,-0.3778085708618164,0.6810388565063477,-0.16382980346679688
508,48958772.0,7.937020301818848,-8.466155052185059,5.801326751708984,-0.5688676834106445,2.1998376846313477,6.060473442077637,-0.6055126190185547,-0.3778085708618164,0.6810388565063477,-0.16382980346679688
509,48958792.0,5.165647506713867,-8.395524024963379,4.971711158752441,-1.8142004013061523,2.4864025115966797,5.991229057312012,-0.6055126190185547,-0.3778085708618164,0.6810388565063477,-0.16382980346679688
510,48958812.0,3.430994987487793,-10.7371244430542,2.2135066986083984,-2.2094249725341797,2.1732053756713867,6.263945579528809,-0.6055126190185547,-0.3778085708618164,0.6810388565063477,-0.16382980346679688
511,48958832.0,2.689967155456543,-9.901522636413574,2.379908561706543,-1.4115180969238281,1.7865028381347656,6.592057228088379,-0.6055126190185547,-0.3778085708618164,0.6810388565063477,-0.16382980346679688
512,48958852.0,1.7753543853759766,-8.017228126525879,2.935379981994629,-0.4570121765136719,1.7577390670776367,6.305492401123047,-0.6055126190185547,-0.3778085708618164,0.6810388565063477,-0.16382980346679688
513,48958852.0,1.7753543853759766,-8.017228126525879,2.935379981994629,-0.4570121765136719,1.7577390670776367,6.305492401123047,-0.6055126190185547,-0.3778085708618164,0.6810388565063477,-0.16382980346679688
514,48958872.0,0.8475723266601562,-7.416265487670898,1.91302490234375,0.07350540161132812,1.7481517791748047,6.132913589477539,-0.6055126190185547,-0.3778085708618164,0.6810388565063477,-0.16382980346679688
515,48958872.0,0.8475723266601562,-7.416265487670898,1.91302490234375,0.07350540161132812,1.7481517791748047,6.132913589477539,-0.6055126190185547,-0.3778085708618164,0.6810388565063477,-0.16382980346679688
516,48958892.0,0.8643331527709961,-6.259830474853516,1.7358484268188477,0.6050882339477539,1.5585289001464844,6.018927574157715,-0.6055126190185547,-0.3778085708618164,0.6810388565063477,-0.16382980346679688
517,48958892.0,0.8643331527709961,-6.259830474853516,1.7358484268188477,0.6050882339477539,1.5585289001464844,6.018927574157715,-0.6055126190185547,-0.3778085708618164,0.6810388565063477,-0.16382980346679688
518,48958912.0,0.36632347106933594,-3.459726333618164,3.547117233276367,1.4211053848266602,1.6501445770263672,5.622636795043945,-0.6055126190185547,-0.3778085708618164,0.6810388565063477,-0.16382980346679688
519,48958912.0,0.36632347106933594,-3.459726333618164,3.547117233276367,1.4211053848266602,1.6501445770263672,5.622636795043945,-0.6055126190185547,-0.3778085708618164,0.6810388565063477,-0.16382980346679688
520,48958932.0,-1.1312942504882812,-3.210721969604492,3.278958320617676,1.8706607818603516,2.0155410766601562,5.118751525878906,-0.6055126190185547,-0.3778085708618164,0.6810388565063477,-0.16382980346679688
521,48958932.0,-1.1312942504882812,-3.210721969604492,3.278958320617676,1.8706607818603516,2.0155410766601562,5.118751525878906,-0.6055126190185547,-0.3778085708618164,0.6810388565063477,-0.16382980346679688
522,48959052.0,-4.860377311706543,-2.3032913208007812,1.1157312393188477,-0.23223400115966797,1.2698335647583008,2.831559181213379,-0.19965076446533203,-0.7731389999389648,0.14682388305664062,0.5837593078613281
523,48959072.0,-5.44338321685791,-2.7929210662841797,2.1668176651000977,-0.09267997741699219,1.1931324005126953,2.44272518157959,-0.18523597717285156,-0.7692546844482422,0.12990665435791016,0.5975704193115234
524,48959092.0,-6.156876564025879,-4.221105575561523,1.2055168151855469,-0.11931324005126953,1.1270837783813477,2.207294464111328,-0.17047595977783203,-0.7652416229248047,0.11605262756347656,0.6098270416259766
525,48959112.0,-6.641717910766602,-3.7817564010620117,-0.24660968780517578,0.66900634765625,1.1164302825927734,1.9026203155517578,-0.15075302124023438,-0.7620906829833984,0.10944938659667969,0.62005615234375
526,48959132.0,-6.812908172607422,-0.8834867477416992,-1.8100709915161133,1.7215194702148438,1.0226850509643555,1.735367774963379,-0.12533283233642578,-0.7600622177124023,0.10957813262939453,0.6282129287719727
527,48959352.0,-3.766193389892578,-3.0419254302978516,-0.09696769714355469,3.022247314453125,-1.5574636459350586,-2.3116941452026367,-0.1081552505493164,-0.7374038696289062,0.13853740692138672,0.6521224975585938
528,48959352.0,-3.766193389892578,-3.0419254302978516,-0.09696769714355469,3.022247314453125,-1.5574636459350586,-2.3116941452026367,-0.1081552505493164,-0.7374038696289062,0.13853740692138672,0.6521224975585938
529,48959368.0,-3.8835134506225586,-4.095406532287598,0.32442378997802734,1.8621387481689453,-2.1167449951171875,-2.324477195739746,-0.1081552505493164,-0.7374038696289062,0.13853740692138672,0.6521224975585938
530,48959368.0,-3.8835134506225586,-4.095406532287598,0.32442378997802734,1.8621387481689453,-2.1167449951171875,-2.324477195739746,-0.1081552505493164,-0.7374038696289062,0.13853740692138672,0.6521224975585938
531,48959392.0,-2.836017608642578,-3.405855178833008,0.8523616790771484,1.7108659744262695,-2.78255558013916,-2.2328615188598633,-0.1081552505493164,-0.7374038696289062,0.13853740692138672,0.6521224975585938
532,48959392.0,-2.836017608642578,-3.405855178833008,0.8523616790771484,1.7108659744262695,-2.78255558013916,-2.2328615188598633,-0.1081552505493164,-0.7374038696289062,0.13853740692138672,0.6521224975585938
533,48959408.0,-2.3020944595336914,-3.7063369750976562,2.440962791442871,1.4978065490722656,-3.0201168060302734,-2.4959897994995117,-0.1081552505493164,-0.7374038696289062,0.13853740692138672,0.6521224975585938
534,48959408.0,-2.3020944595336914,-3.7063369750976562,2.440962791442871,1.4978065490722656,-3.0201168060302734,-2.4959897994995117,-0.1081552505493164,-0.7374038696289062,0.13853740692138672,0.6521224975585938
535,48959432.0,-2.162029266357422,-4.381522178649902,2.3978652954101562,0.7755355834960938,-3.2736568450927734,-2.6003894805908203,-0.1081552505493164,-0.7374038696289062,0.13853740692138672,0.6521224975585938
536,48959432.0,-2.162029266357422,-4.381522178649902,2.3978652954101562,0.7755355834960938,-3.2736568450927734,-2.6003894805908203,-0.1081552505493164,-0.7374038696289062,0.13853740692138672,0.6521224975585938
537,48959552.0,2.175198554992676,-5.7354841232299805,7.296551704406738,-0.2364950180053711,-3.5815277099609375,-3.6827306747436523,-0.2802705764770508,-0.8227710723876953,0.3583869934082031,0.34069156646728516
538,48959568.0,2.193155288696289,-10.689238548278809,7.403097152709961,-0.2364950180053711,-3.5815277099609375,-3.6827306747436523,-0.2802705764770508,-0.8227710723876953,0.3583869934082031,0.34069156646728516
539,48959592.0,0.15562725067138672,-11.042394638061523,7.515627861022949,-0.2364950180053711,-3.5815277099609375,-3.6827306747436523,-0.2802705764770508,-0.8227710723876953,0.3583869934082031,0.34069156646728516
540,48959608.0,1.3659334182739258,-5.58344841003418,8.13454818725586,-0.2364950180053711,-3.5815277099609375,-3.6827306747436523,-0.2802705764770508,-0.8227710723876953,0.3583869934082031,0.34069156646728516
541,48959632.0,3.5638771057128906,-4.4425764083862305,10.30615520477295,-0.2364950180053711,-3.5815277099609375,-3.6827306747436523,-0.2802705764770508,-0.8227710723876953,0.3583869934082031,0.34069156646728516
542,48959648.0,3.3280410766601562,-8.159687995910645,10.188835144042969,0.07883167266845703,-2.967916488647461,-3.4760637283325195,-0.3730182647705078,-0.7800445556640625,0.4939899444580078,0.09136581420898438
543,48959668.0,2.5738449096679688,-7.871177673339844,9.633363723754883,-0.3387641906738281,-2.5087738037109375,-3.6124210357666016,-0.3898935317993164,-0.762608528137207,0.5128068923950195,0.05878162384033203
544,48959688.0,3.6728172302246094,-5.275783538818359,9.608223915100098,0.23862648010253906,-2.6089115142822266,-3.883007049560547,-0.40361785888671875,-0.7443094253540039,0.5315380096435547,0.022269248962402344
545,48959708.0,5.305712699890137,-5.618165016174316,8.211164474487305,-0.1214437484741211,-2.6952009201049805,-3.747714042663574,-0.4203195571899414,-0.72320556640625,0.5478944778442383,-0.011524200439453125
546,48959728.0,7.016421318054199,-7.059518814086914,9.086272239685059,-0.5337133407592773,-2.6419363021850586,-3.7402572631835938,-0.43728065490722656,-0.699554443359375,0.5635185241699219,-0.043331146240234375
547,48959752.0,8.54396915435791,-7.562315940856934,10.551568031311035,-0.5337133407592773,-2.6419363021850586,-3.7402572631835938,-0.43728065490722656,-0.699554443359375,0.5635185241699219,-0.043331146240234375
548,48959768.0,9.202394485473633,-6.040754318237305,9.798568725585938,-0.5337133407592773,-2.6419363021850586,-3.7402572631835938,-0.43728065490722656,-0.699554443359375,0.5635185241699219,-0.043331146240234375
549,48959788.0,9.158100128173828,-4.5694732666015625,7.92624568939209,-0.5337133407592773,-2.6419363021850586,-3.7402572631835938,-0.43728065490722656,-0.699554443359375,0.5635185241699219,-0.043331146240234375
550,48959808.0,9.484918594360352,-4.386310577392578,6.227507591247559,-0.5337133407592773,-2.6419363021850586,-3.7402572631835938,-0.43728065490722656,-0.699554443359375,0.5635185241699219,-0.043331146240234375
551,48959828.0,10.661705017089844,-4.886713981628418,5.092621803283691,-0.5337133407592773,-2.6419363021850586,-3.7402572631835938,-0.43728065490722656,-0.699554443359375,0.5635185241699219,-0.043331146240234375
552,48959948.0,12.712401390075684,-4.215120315551758,3.84281063079834,-2.666438102722168,-1.1324100494384766,-2.9221086502075195,-0.5575637817382812,-0.3906269073486328,0.6944608688354492,-0.2329263687133789
553,48959968.0,11.990527153015137,-4.637709617614746,4.51320743560791,-2.666438102722168,-1.1324100494384766,-2.9221086502075195,-0.5575637817382812,-0.3906269073486328,0.6944608688354492,-0.2329263687133789
554,48959988.0,10.852049827575684,-4.27377986907959,3.8703441619873047,-2.666438102722168,-1.1324100494384766,-2.9221086502075195,-0.5575637817382812,-0.3906269073486328,0.6944608688354492,-0.2329263687133789
555,48960008.0,10.020039558410645,-4.411450386047363,3.682394027709961,-2.666438102722168,-1.1324100494384766,-2.9221086502075195,-0.5575637817382812,-0.3906269073486328,0.6944608688354492,-0.2329263687133789
556,48960028.0,9.83568000793457,-3.8535842895507812,3.70513916015625,-2.666438102722168,-1.1324100494384766,-2.9221086502075195,-0.5575637817382812,-0.3906269073486328,0.6944608688354492,-0.2329263687133789
557,48960048.0,10.04517936706543,-3.3579702377319336,3.5195837020874023,-2.666438102722168,-1.1324100494384766,-2.9221086502075195,-0.5575637817382812,-0.3906269073486328,0.6944608688354492,-0.2329263687133789
558,48960068.0,9.829694747924805,-3.022770881652832,3.0778398513793945,-2.666438102722168,-1.1324100494384766,-2.9221086502075195,-0.5575637817382812,-0.3906269073486328,0.6944608688354492,-0.2329263687133789
559,48960088.0,9.513649940490723,-2.748626708984375,2.7019386291503906,-2.666438102722168,-1.1324100494384766,-2.9221086502075195,-0.5575637817382812,-0.3906269073486328,0.6944608688354492,-0.2329263687133789
560,48960108.0,9.492101669311523,-2.440962791442871,2.6181392669677734,-2.666438102722168,-1.1324100494384766,-2.9221086502075195,-0.5575637817382812,-0.3906269073486328,0.6944608688354492,-0.2329263687133789
561,48960128.0,9.367599487304688,-2.3092775344848633,2.4361743927001953,-2.666438102722168,-1.1324100494384766,-2.9221086502075195,-0.5575637817382812,-0.3906269073486328,0.6944608688354492,-0.2329263687133789
562,48960148.0,9.138946533203125,-2.007598876953125,2.443356513977051,-2.666438102722168,-1.1324100494384766,-2.9221086502075195,-0.5575637817382812,-0.3906269073486328,0.6944608688354492,-0.2329263687133789
563,48960168.0,8.809733390808105,-1.850773811340332,2.3619518280029297,-0.0980072021484375,0.3291759490966797,0.7691440582275391,-0.5575637817382812,-0.3906269073486328,0.6944608688354492,-0.2329263687133789
564,48960188.0,8.85402774810791,-2.011190414428711,2.408639907836914,-0.11185550689697266,0.23436450958251953,0.7020301818847656,-0.5771999359130859,-0.33823299407958984,0.7297639846801758,-0.140869140625
565,48960208.0,9.02641487121582,-2.0746383666992188,2.382303237915039,-0.09267997741699219,0.16512012481689453,0.6434392929077148,-0.5769844055175781,-0.34298038482666016,0.7288150787353516,-0.1353015899658203
566,48960228.0,9.040781021118164,-1.9537277221679688,2.318854331970215,-0.052199363708496094,0.12677001953125,0.5592803955078125,-0.5979595184326172,-0.3397865295410156,0.7131052017211914,-0.13590621948242188
567,48960248.0,8.891139030456543,-1.971684455871582,2.2434349060058594,-0.009587287902832031,0.08735370635986328,0.49962425231933594,-0.5980024337768555,-0.34354114532470703,0.7120265960693359,-0.13197898864746094
