,timestamp,accel_x,accel_y,accel_z,gyro_x,gyro_y,gyro_z,ori_scalar,ori_x,ori_y,ori_z
0,4210911.0,13.346883773803711,-1.416213035583496,7.699987411499023,-1.3156414031982422,-2.9135866165161133,-3.053140640258789,0.5469026565551758,-0.2014636993408203,0.07587146759033203,0.8090457916259766
1,4210933.0,13.094287872314453,-2.0542869567871094,6.669251441955566,-1.512721061706543,-2.376676559448242,-2.9476757049560547,0.517425537109375,-0.22727203369140625,0.08364009857177734,0.8207416534423828
2,4210953.0,12.91830825805664,-3.061079978942871,5.39310359954834,-1.3124456405639648,-1.8568124771118164,-2.71970272064209,0.48941516876220703,-0.24807453155517578,0.08856010437011719,0.8313159942626953
3,4210972.0,12.280234336853027,-2.6552505493164062,5.115367889404297,-0.8351926803588867,-1.4839582443237305,-2.2807998657226562,0.46550559997558594,-0.2633094787597656,0.09412765502929688,0.8396883010864258
4,4210992.0,11.636174201965332,-2.2985029220581055,4.759818077087402,-0.6615486145019531,-1.139866828918457,-1.5926179885864258,0.44759464263916016,-0.27483272552490234,0.09865951538085938,0.8451700210571289
5,4211012.0,10.415094375610352,-2.157240867614746,4.6221466064453125,-0.7286624908447266,-0.7606210708618164,-0.8575639724731445,0.43602848052978516,-0.28389644622802734,0.09917736053466797,0.8481912612915039
6,4211262.0,8.848041534423828,-0.7625761032104492,3.684788703918457,-0.07244014739990234,-0.06604766845703125,0.17683887481689453,0.41591644287109375,0.5957145690917969,-0.5890693664550781,0.3538551330566406
7,4211282.0,9.061132431030273,-0.799687385559082,3.614156723022461,0.08522319793701172,-0.09694194793701172,0.11185550689697266,0.41669368743896484,0.596405029296875,-0.5876874923706055,0.3539409637451172
8,4211301.0,9.039584159851074,-0.7242679595947266,3.460923194885254,0.1896219253540039,-0.06391716003417969,0.08202743530273438,0.4166069030761719,0.5973978042602539,-0.586176872253418,0.3549766540527344
9,4211321.0,8.718750953674316,-0.5267400741577148,3.46212100982666,0.20027542114257812,-0.04474163055419922,0.03515434265136719,0.4160032272338867,0.5982179641723633,-0.5848398208618164,0.3564443588256836
10,4211341.0,8.703187942504883,-0.584202766418457,3.434586524963379,0.11398601531982422,-0.06711292266845703,-0.0031957626342773438,0.4154853820800781,0.5987787246704102,-0.5841054916381836,0.35730743408203125
11,4211360.0,8.966558456420898,-0.6991281509399414,3.269381523132324,0.11398601531982422,-0.06711292266845703,-0.0031957626342773438,0.4154853820800781,0.5987787246704102,-0.5841054916381836,0.35730743408203125
12,4211380.0,8.90550422668457,-0.7446193695068359,3.1329078674316406,0.11398601531982422,-0.06711292266845703,-0.0031957626342773438,0.4154853820800781,0.5987787246704102,-0.5841054916381836,0.35730743408203125
13,4211399.0,8.849238395690918,-0.897852897644043,3.1113595962524414,0.11398601531982422,-0.06711292266845703,-0.0031957626342773438,0.4154853820800781,0.5987787246704102,-0.5841054916381836,0.35730743408203125
14,4211439.0,9.240702629089355,-0.5961742401123047,3.064671516418457,0.11398601531982422,-0.06711292266845703,-0.0031957626342773438,0.4154853820800781,0.5987787246704102,-0.5841054916381836,0.35730743408203125
15,4211660.0,8.985712051391602,-0.7649698257446289,3.1293163299560547,0.031958580017089844,0.0010652542114257812,0.033023834228515625,0.42273521423339844,0.5961894989013672,-0.5745248794555664,0.3685283660888672
16,4211680.0,8.943812370300293,-0.7326478958129883,3.0969934463500977,0.031958580017089844,0.0010652542114257812,0.033023834228515625,0.42273521423339844,0.5961894989013672,-0.5745248794555664,0.3685283660888672
17,4211700.0,8.892335891723633,-0.7194786071777344,3.1041765213012695,0.031958580017089844,0.0010652542114257812,0.033023834228515625,0.42273521423339844,0.5961894989013672,-0.5745248794555664,0.3685283660888672
18,4211719.0,8.90550422668457,-0.74102783203125,3.093402862548828,0.031958580017089844,0.0010652542114257812,0.033023834228515625,0.42273521423339844,0.5961894989013672,-0.5745248794555664,0.3685283660888672
19,4211739.0,8.950995445251465,-0.8320102691650391,3.0503053665161133,0.031958580017089844,0.0010652542114257812,0.033023834228515625,0.42273521423339844,0.5961894989013672,-0.5745248794555664,0.3685283660888672
20,4211958.0,8.815718650817871,-0.9553155899047852,2.9880542755126953,0.021305084228515625,-0.02982807159423828,-0.03835010528564453,0.4267921447753906,0.5939016342163086,-0.5704240798950195,0.3737945556640625
21,4211978.0,8.907898902893066,-0.9038381576538086,3.003617286682129,0.07989692687988281,-0.04687213897705078,-0.0287628173828125,0.4267921447753906,0.5939016342163086,-0.5704240798950195,0.3737945556640625
22,4211998.0,8.948601722717285,-0.8272218704223633,3.0179824829101562,0.09374523162841797,-0.04474163055419922,-0.02982807159423828,0.4267921447753906,0.5939016342163086,-0.5704240798950195,0.3737945556640625
23,4212018.0,8.888744354248047,-0.829615592956543,3.057488441467285,0.052199363708496094,-0.03728485107421875,-0.020239830017089844,0.4267921447753906,0.5939016342163086,-0.5704240798950195,0.3737945556640625
24,4212037.0,8.865999221801758,-0.888275146484375,3.0527000427246094,0.04474163055419922,-0.045806884765625,-0.023435592651367188,0.4267921447753906,0.5939016342163086,-0.5704240798950195,0.3737945556640625
25,4212158.0,9.019232749938965,-0.9122180938720703,3.123331069946289,0.04474163055419922,-0.045806884765625,-0.023435592651367188,0.4288206100463867,0.5922183990478516,-0.5665836334228516,0.37996578216552734
26,4212178.0,8.941418647766113,-0.8870782852172852,3.113753318786621,0.04474163055419922,-0.045806884765625,-0.023435592651367188,0.4288206100463867,0.5922183990478516,-0.5665836334228516,0.37996578216552734
27,4212198.0,8.909095764160156,-0.8679237365722656,3.1353025436401367,0.04474163055419922,-0.045806884765625,-0.023435592651367188,0.4288206100463867,0.5922183990478516,-0.5665836334228516,0.37996578216552734
28,4212218.0,8.95578384399414,-0.8571500778198242,3.1293163299560547,0.04474163055419922,-0.045806884765625,-0.023435592651367188,0.4288206100463867,0.5922183990478516,-0.5665836334228516,0.37996578216552734
29,4212238.0,8.979726791381836,-0.8104610443115234,3.1364994049072266,0.04474163055419922,-0.045806884765625,-0.023435592651367188,0.4288206100463867,0.5922183990478516,-0.5665836334228516,0.37996578216552734
30,4212257.0,8.935432434082031,-0.8080673217773438,3.128119468688965,0.0021305084228515625,-0.004261016845703125,0.024501800537109375,0.4303312301635742,0.5926065444946289,-0.5645551681518555,0.38069915771484375
31,4212277.0,8.860013008117676,-0.7960958480834961,3.1101627349853516,-0.02982807159423828,-0.0010652542114257812,0.030893325805664062,0.4305906295776367,0.5926504135131836,-0.5644254684448242,0.38044071197509766
32,4212297.0,9.008458137512207,-0.8200387954711914,3.113753318786621,-0.04474163055419922,-0.014913558959960938,0.02982807159423828,0.43106555938720703,0.5926504135131836,-0.5643396377563477,0.3801383972167969
33,4212317.0,9.09465217590332,-0.8834867477416992,3.058685302734375,-0.022370338439941406,-0.009587287902832031,0.024501800537109375,0.43149662017822266,0.5926065444946289,-0.5642099380493164,0.3798789978027344
34,4212337.0,8.984515190124512,-0.8822898864746094,3.064671516418457,0.041545867919921875,0.0010652542114257812,0.023435592651367188,0.4315834045410156,0.5927791595458984,-0.5638647079467773,0.37996578216552734
35,4212557.0,8.881561279296875,-0.9409494400024414,3.0742483139038086,0.0010652542114257812,-0.0010652542114257812,0.014913558959960938,0.4331798553466797,0.5942039489746094,-0.5617494583129883,0.37914562225341797
36,4212557.0,8.881561279296875,-0.9409494400024414,3.0742483139038086,0.0010652542114257812,-0.0010652542114257812,0.014913558959960938,0.4331798553466797,0.5942039489746094,-0.5617494583129883,0.37914562225341797
37,4212576.0,8.939023971557617,-0.9517240524291992,3.062276840209961,0.04793834686279297,-0.0031957626342773438,0.00852203369140625,0.4331798553466797,0.5942039489746094,-0.5617494583129883,0.37914562225341797
38,4212576.0,8.939023971557617,-0.9517240524291992,3.062276840209961,0.04793834686279297,-0.0031957626342773438,0.00852203369140625,0.4331798553466797,0.5942039489746094,-0.5617494583129883,0.37914562225341797
39,4212596.0,8.935432434082031,-0.9361610412597656,3.0562915802001953,0.0745706558227539,0.005326271057128906,0.010652542114257812,0.4331798553466797,0.5942039489746094,-0.5617494583129883,0.37914562225341797
40,4212596.0,8.935432434082031,-0.9361610412597656,3.0562915802001953,0.0745706558227539,0.005326271057128906,0.010652542114257812,0.4331798553466797,0.5942039489746094,-0.5617494583129883,0.37914562225341797
41,4212616.0,8.881561279296875,-0.920598030090332,3.0682621002197266,0.07563591003417969,0.013848304748535156,0.014913558959960938,0.4331798553466797,0.5942039489746094,-0.5617494583129883,0.37914562225341797
42,4212616.0,8.881561279296875,-0.920598030090332,3.0682621002197266,0.07563591003417969,0.013848304748535156,0.014913558959960938,0.4331798553466797,0.5942039489746094,-0.5617494583129883,0.37914562225341797
43,4212636.0,8.936630249023438,-0.9301748275756836,3.0682621002197266,0.0745706558227539,0.005326271057128906,0.023435592651367188,0.4331798553466797,0.5942039489746094,-0.5617494583129883,0.37914562225341797
44,4212636.0,8.936630249023438,-0.9301748275756836,3.0682621002197266,0.0745706558227539,0.005326271057128906,0.023435592651367188,0.4331798553466797,0.5942039489746094,-0.5617494583129883,0.37914562225341797
45,4212657.0,8.99409294128418,-0.9217948913574219,3.0826282501220703,0.0745706558227539,0.005326271057128906,0.023435592651367188,0.4331798553466797,0.5942039489746094,-0.5617494583129883,0.37914562225341797
46,4212676.0,9.014443397521973,-0.9014434814453125,3.0179824829101562,0.0745706558227539,0.005326271057128906,0.023435592651367188,0.4331798553466797,0.5942039489746094,-0.5617494583129883,0.37914562225341797
47,4212696.0,9.014443397521973,-0.8798952102661133,2.9940404891967773,0.0745706558227539,0.005326271057128906,0.023435592651367188,0.4331798553466797,0.5942039489746094,-0.5617494583129883,0.37914562225341797
48,4212716.0,9.000078201293945,-0.8870782852172852,3.0060110092163086,0.0745706558227539,0.005326271057128906,0.023435592651367188,0.4331798553466797,0.5942039489746094,-0.5617494583129883,0.37914562225341797
49,4212736.0,8.988106727600098,-0.9134149551391602,2.9856605529785156,0.0745706558227539,0.005326271057128906,0.023435592651367188,0.4331798553466797,0.5942039489746094,-0.5617494583129883,0.37914562225341797
50,4212956.0,9.063526153564453,-0.8631353378295898,3.03115177154541,0.1661853790283203,-0.040480613708496094,-0.040480613708496094,0.43102169036865234,0.5983037948608398,-0.555750846862793,0.3838930130004883
51,4212956.0,9.063526153564453,-0.8631353378295898,3.03115177154541,0.1661853790283203,-0.040480613708496094,-0.040480613708496094,0.43102169036865234,0.5983037948608398,-0.555750846862793,0.3838930130004883
52,4212956.0,9.063526153564453,-0.8631353378295898,3.03115177154541,0.1661853790283203,-0.040480613708496094,-0.040480613708496094,0.43102169036865234,0.5983037948608398,-0.555750846862793,0.3838930130004883
53,4212976.0,9.016838073730469,-0.8080673217773438,3.0143909454345703,0.1661853790283203,-0.040480613708496094,-0.040480613708496094,0.43102169036865234,0.5983037948608398,-0.555750846862793,0.3838930130004883
54,4212976.0,9.016838073730469,-0.8080673217773438,3.0143909454345703,0.1661853790283203,-0.040480613708496094,-0.040480613708496094,0.43102169036865234,0.5983037948608398,-0.555750846862793,0.3838930130004883
55,4212976.0,9.016838073730469,-0.8080673217773438,3.0143909454345703,0.1661853790283203,-0.040480613708496094,-0.040480613708496094,0.43102169036865234,0.5983037948608398,-0.555750846862793,0.3838930130004883
56,4212995.0,8.937827110290527,-0.7853212356567383,3.0155887603759766,0.1661853790283203,-0.040480613708496094,-0.040480613708496094,0.43102169036865234,0.5983037948608398,-0.555750846862793,0.3838930130004883
57,4212995.0,8.937827110290527,-0.7853212356567383,3.0155887603759766,0.1661853790283203,-0.040480613708496094,-0.040480613708496094,0.43102169036865234,0.5983037948608398,-0.555750846862793,0.3838930130004883
58,4212995.0,8.937827110290527,-0.7853212356567383,3.0155887603759766,0.1661853790283203,-0.040480613708496094,-0.040480613708496094,0.43102169036865234,0.5983037948608398,-0.555750846862793,0.3838930130004883
59,4213015.0,8.95578384399414,-0.7769412994384766,3.035940170288086,0.1661853790283203,-0.040480613708496094,-0.040480613708496094,0.43102169036865234,0.5983037948608398,-0.555750846862793,0.3838930130004883
60,4213015.0,8.95578384399414,-0.7769412994384766,3.035940170288086,0.1661853790283203,-0.040480613708496094,-0.040480613708496094,0.43102169036865234,0.5983037948608398,-0.555750846862793,0.3838930130004883
61,4213015.0,8.95578384399414,-0.7769412994384766,3.035940170288086,0.1661853790283203,-0.040480613708496094,-0.040480613708496094,0.43102169036865234,0.5983037948608398,-0.555750846862793,0.3838930130004883
62,4213035.0,8.965361595153809,-0.8092641830444336,2.9820690155029297,0.1661853790283203,-0.040480613708496094,-0.040480613708496094,0.43102169036865234,0.5983037948608398,-0.555750846862793,0.3838930130004883
63,4213035.0,8.965361595153809,-0.8092641830444336,2.9820690155029297,0.1661853790283203,-0.040480613708496094,-0.040480613708496094,0.43102169036865234,0.5983037948608398,-0.555750846862793,0.3838930130004883
64,4213035.0,8.965361595153809,-0.8092641830444336,2.9820690155029297,0.1661853790283203,-0.040480613708496094,-0.040480613708496094,0.43102169036865234,0.5983037948608398,-0.555750846862793,0.3838930130004883
65,4213055.0,8.915081024169922,-0.7877159118652344,2.989251136779785,0.1661853790283203,-0.040480613708496094,-0.040480613708496094,0.43102169036865234,0.5983037948608398,-0.555750846862793,0.3838930130004883
66,4213075.0,8.942615509033203,-0.7446193695068359,3.0479116439819336,0.1661853790283203,-0.040480613708496094,-0.040480613708496094,0.43102169036865234,0.5983037948608398,-0.555750846862793,0.3838930130004883
67,4213094.0,8.942615509033203,-0.7541961669921875,2.9940404891967773,0.1661853790283203,-0.040480613708496094,-0.040480613708496094,0.43102169036865234,0.5983037948608398,-0.555750846862793,0.3838930130004883
68,4213114.0,8.922264099121094,-0.731450080871582,3.0048141479492188,0.1661853790283203,-0.040480613708496094,-0.040480613708496094,0.43102169036865234,0.5983037948608398,-0.555750846862793,0.3838930130004883
69,4213134.0,8.965361595153809,-0.7553930282592773,2.9868574142456055,0.1661853790283203,-0.040480613708496094,-0.040480613708496094,0.43102169036865234,0.5983037948608398,-0.555750846862793,0.3838930130004883
70,4213254.0,8.90430736541748,-0.7266616821289062,3.0670652389526367,0.03941535949707031,-0.022370338439941406,-0.00852203369140625,0.42752647399902344,0.6019725799560547,-0.548802375793457,0.3919639587402344
71,4213274.0,8.916278839111328,-0.7422246932983398,3.053896903991699,0.03941535949707031,-0.022370338439941406,-0.00852203369140625,0.42752647399902344,0.6019725799560547,-0.548802375793457,0.3919639587402344
72,4213294.0,8.960572242736816,-0.767364501953125,3.0766429901123047,0.03941535949707031,-0.022370338439941406,-0.00852203369140625,0.42752647399902344,0.6019725799560547,-0.548802375793457,0.3919639587402344
73,4213313.0,8.966558456420898,-0.7158880233764648,3.051502227783203,0.03941535949707031,-0.022370338439941406,-0.00852203369140625,0.42752647399902344,0.6019725799560547,-0.548802375793457,0.3919639587402344
74,4213333.0,8.967755317687988,-0.7553930282592773,3.0419254302978516,0.03941535949707031,-0.022370338439941406,-0.00852203369140625,0.42752647399902344,0.6019725799560547,-0.548802375793457,0.3919639587402344
75,4213354.0,8.95578384399414,-0.8092641830444336,3.0419254302978516,0.03941535949707031,-0.022370338439941406,-0.00852203369140625,0.42752647399902344,0.6019725799560547,-0.548802375793457,0.3919639587402344
76,4213354.0,8.95578384399414,-0.8092641830444336,3.0419254302978516,0.03941535949707031,-0.022370338439941406,-0.00852203369140625,0.42752647399902344,0.6019725799560547,-0.548802375793457,0.3919639587402344
77,4213374.0,8.99648666381836,-0.8320102691650391,3.03115177154541,0.03941535949707031,-0.022370338439941406,-0.00852203369140625,0.42752647399902344,0.6019725799560547,-0.548802375793457,0.3919639587402344
78,4213374.0,8.99648666381836,-0.8320102691650391,3.03115177154541,0.03941535949707031,-0.022370338439941406,-0.00852203369140625,0.42752647399902344,0.6019725799560547,-0.548802375793457,0.3919639587402344
79,4213394.0,9.028809547424316,-0.7841243743896484,3.0754451751708984,0.03941535949707031,-0.022370338439941406,-0.00852203369140625,0.42752647399902344,0.6019725799560547,-0.548802375793457,0.3919639587402344
80,4213394.0,9.028809547424316,-0.7841243743896484,3.0754451751708984,0.03941535949707031,-0.022370338439941406,-0.00852203369140625,0.42752647399902344,0.6019725799560547,-0.548802375793457,0.3919639587402344
81,4213413.0,8.971346855163574,-0.8008842468261719,3.0443201065063477,0.03941535949707031,-0.022370338439941406,-0.00852203369140625,0.42752647399902344,0.6019725799560547,-0.548802375793457,0.3919639587402344
82,4213413.0,8.971346855163574,-0.8008842468261719,3.0443201065063477,0.03941535949707031,-0.022370338439941406,-0.00852203369140625,0.42752647399902344,0.6019725799560547,-0.548802375793457,0.3919639587402344
83,4213433.0,8.947403907775879,-0.8236303329467773,3.0682621002197266,0.03941535949707031,-0.022370338439941406,-0.00852203369140625,0.42752647399902344,0.6019725799560547,-0.548802375793457,0.3919639587402344
84,4213433.0,8.947403907775879,-0.8236303329467773,3.0682621002197266,0.03941535949707031,-0.022370338439941406,-0.00852203369140625,0.42752647399902344,0.6019725799560547,-0.548802375793457,0.3919639587402344
85,4213553.0,8.992895126342773,-0.8104610443115234,3.055093765258789,-0.031958580017089844,0.0,-0.02982807159423828,0.42752647399902344,0.59765625,-0.551823616027832,0.3943805694580078
86,4213573.0,8.948601722717285,-0.8200387954711914,2.9724912643432617,-0.031958580017089844,0.0,-0.02982807159423828,0.42752647399902344,0.59765625,-0.551823616027832,0.3943805694580078
87,4213593.0,8.888744354248047,-0.8200387954711914,2.964111328125,-0.031958580017089844,0.0,-0.02982807159423828,0.42752647399902344,0.59765625,-0.551823616027832,0.3943805694580078
88,4213612.0,8.978529930114746,-0.8092641830444336,2.968899726867676,-0.031958580017089844,0.0,-0.02982807159423828,0.42752647399902344,0.59765625,-0.551823616027832,0.3943805694580078
89,4213632.0,9.030006408691406,-0.773350715637207,2.9808712005615234,-0.031958580017089844,0.0,-0.02982807159423828,0.42752647399902344,0.59765625,-0.551823616027832,0.3943805694580078
90,4213652.0,8.958178520202637,-0.7757444381713867,3.0084056854248047,-0.004261016845703125,-0.007456779479980469,-0.024501800537109375,0.42752647399902344,0.59765625,-0.551823616027832,0.3943805694580078
91,4213672.0,8.92705249786377,-0.773350715637207,3.0143909454345703,0.0010652542114257812,-0.009587287902832031,-0.030893325805664062,0.42752647399902344,0.59765625,-0.551823616027832,0.3943805694580078
92,4213692.0,8.949798583984375,-0.7529993057250977,2.989251136779785,-0.013848304748535156,-0.012783050537109375,-0.034089088439941406,0.42752647399902344,0.59765625,-0.551823616027832,0.3943805694580078
93,4213712.0,8.961770057678223,-0.7769412994384766,2.9880542755126953,-0.034089088439941406,-0.012783050537109375,-0.031958580017089844,0.42752647399902344,0.59765625,-0.551823616027832,0.3943805694580078
94,4213731.0,8.989303588867188,-0.7841243743896484,3.0503053665161133,-0.042611122131347656,-0.01597881317138672,-0.025567054748535156,0.42752647399902344,0.59765625,-0.551823616027832,0.3943805694580078
95,4213752.0,9.002472877502441,-0.7901105880737305,3.0419254302978516,-0.042611122131347656,-0.01597881317138672,-0.025567054748535156,0.42752647399902344,0.59765625,-0.551823616027832,0.3943805694580078
96,4213772.0,8.937827110290527,-0.7889127731323242,3.0084056854248047,-0.042611122131347656,-0.01597881317138672,-0.025567054748535156,0.42752647399902344,0.59765625,-0.551823616027832,0.3943805694580078
97,4213792.0,8.892335891723633,-0.7541961669921875,2.992842674255371,-0.042611122131347656,-0.01597881317138672,-0.025567054748535156,0.42752647399902344,0.59765625,-0.551823616027832,0.3943805694580078
98,4213812.0,8.936630249023438,-0.7230701446533203,2.9916458129882812,-0.042611122131347656,-0.01597881317138672,-0.025567054748535156,0.42752647399902344,0.59765625,-0.551823616027832,0.3943805694580078
99,4213831.0,9.008458137512207,-0.7326478958129883,3.0431222915649414,-0.042611122131347656,-0.01597881317138672,-0.025567054748535156,0.42752647399902344,0.59765625,-0.551823616027832,0.3943805694580078
100,4213852.0,8.992895126342773,-0.7494077682495117,2.9940404891967773,0.0,-0.009587287902832031,-0.0063915252685546875,0.42752647399902344,0.59765625,-0.551823616027832,0.3943805694580078
101,4213872.0,8.99528980255127,-0.7146902084350586,3.037137031555176,0.0010652542114257812,-0.014913558959960938,-0.014913558959960938,0.42752647399902344,0.59765625,-0.551823616027832,0.3943805694580078
102,4213892.0,8.998881340026855,-0.7422246932983398,3.0131940841674805,-0.0063915252685546875,-0.011717796325683594,-0.020239830017089844,0.42752647399902344,0.59765625,-0.551823616027832,0.3943805694580078
103,4213912.0,8.970149993896484,-0.7972927093505859,3.003617286682129,-0.005326271057128906,-0.00852203369140625,-0.020239830017089844,0.42752647399902344,0.59765625,-0.551823616027832,0.3943805694580078
104,4213931.0,8.956981658935547,-0.7494077682495117,3.0060110092163086,0.007456779479980469,-0.009587287902832031,-0.01810932159423828,0.42752647399902344,0.59765625,-0.551823616027832,0.3943805694580078
105,4213951.0,8.939023971557617,-0.7398300170898438,3.025165557861328,0.011717796325683594,-0.0063915252685546875,-0.007456779479980469,0.42752647399902344,0.59765625,-0.551823616027832,0.3943805694580078
106,4214051.0,8.960572242736816,-0.7553930282592773,3.002420425415039,0.011717796325683594,-0.0063915252685546875,-0.007456779479980469,0.42752647399902344,0.59765625,-0.551823616027832,0.3943805694580078
107,4214051.0,8.960572242736816,-0.7553930282592773,3.002420425415039,0.011717796325683594,-0.0063915252685546875,-0.007456779479980469,0.42752647399902344,0.59765625,-0.551823616027832,0.3943805694580078
108,4214071.0,8.960572242736816,-0.7661676406860352,2.9832658767700195,0.011717796325683594,-0.0063915252685546875,-0.007456779479980469,0.42752647399902344,0.59765625,-0.551823616027832,0.3943805694580078
109,4214071.0,8.960572242736816,-0.7661676406860352,2.9832658767700195,0.011717796325683594,-0.0063915252685546875,-0.007456779479980469,0.42752647399902344,0.59765625,-0.551823616027832,0.3943805694580078
110,4214091.0,8.97613525390625,-0.7482099533081055,2.9461545944213867,0.011717796325683594,-0.0063915252685546875,-0.007456779479980469,0.42752647399902344,0.59765625,-0.551823616027832,0.3943805694580078
111,4214091.0,8.97613525390625,-0.7482099533081055,2.9461545944213867,0.011717796325683594,-0.0063915252685546875,-0.007456779479980469,0.42752647399902344,0.59765625,-0.551823616027832,0.3943805694580078
112,4214111.0,8.967755317687988,-0.7589845657348633,2.9461545944213867,0.011717796325683594,-0.0063915252685546875,-0.007456779479980469,0.42752647399902344,0.59765625,-0.551823616027832,0.3943805694580078
113,4214111.0,8.967755317687988,-0.7589845657348633,2.9461545944213867,0.011717796325683594,-0.0063915252685546875,-0.007456779479980469,0.42752647399902344,0.59765625,-0.551823616027832,0.3943805694580078
114,4214130.0,8.961770057678223,-0.7541961669921875,2.960519790649414,0.011717796325683594,-0.0063915252685546875,-0.007456779479980469,0.42752647399902344,0.59765625,-0.551823616027832,0.3943805694580078
115,4214130.0,8.961770057678223,-0.7541961669921875,2.960519790649414,0.011717796325683594,-0.0063915252685546875,-0.007456779479980469,0.42752647399902344,0.59765625,-0.551823616027832,0.3943805694580078
116,4214150.0,8.935432434082031,-0.7242679595947266,2.934183120727539,0.011717796325683594,-0.0063915252685546875,-0.007456779479980469,0.42752647399902344,0.59765625,-0.551823616027832,0.3943805694580078
117,4214150.0,8.935432434082031,-0.7242679595947266,2.934183120727539,0.011717796325683594,-0.0063915252685546875,-0.007456779479980469,0.42752647399902344,0.59765625,-0.551823616027832,0.3943805694580078
118,4214270.0,8.919870376586914,-0.7290563583374023,2.906648635864258,-0.030893325805664062,-0.00852203369140625,0.020239830017089844,0.42752647399902344,0.59765625,-0.551823616027832,0.3943805694580078
119,4214270.0,8.919870376586914,-0.7290563583374023,2.906648635864258,-0.030893325805664062,-0.00852203369140625,0.020239830017089844,0.42752647399902344,0.59765625,-0.551823616027832,0.3943805694580078
120,4214270.0,8.919870376586914,-0.7290563583374023,2.906648635864258,-0.030893325805664062,-0.00852203369140625,0.020239830017089844,0.42752647399902344,0.59765625,-0.551823616027832,0.3943805694580078
121,4214290.0,9.061132431030273,-0.7577877044677734,2.9174232482910156,-0.024501800537109375,-0.022370338439941406,0.011717796325683594,0.42752647399902344,0.59765625,-0.551823616027832,0.3943805694580078
122,4214290.0,9.061132431030273,-0.7577877044677734,2.9174232482910156,-0.024501800537109375,-0.022370338439941406,0.011717796325683594,0.42752647399902344,0.59765625,-0.551823616027832,0.3943805694580078
123,4214290.0,9.061132431030273,-0.7577877044677734,2.9174232482910156,-0.024501800537109375,-0.022370338439941406,0.011717796325683594,0.42752647399902344,0.59765625,-0.551823616027832,0.3943805694580078
124,4214310.0,9.047964096069336,-0.7230701446533203,2.966506004333496,-0.009587287902832031,-0.014913558959960938,0.00852203369140625,0.42752647399902344,0.59765625,-0.551823616027832,0.3943805694580078
125,4214310.0,9.047964096069336,-0.7230701446533203,2.966506004333496,-0.009587287902832031,-0.014913558959960938,0.00852203369140625,0.42752647399902344,0.59765625,-0.551823616027832,0.3943805694580078
126,4214310.0,9.047964096069336,-0.7230701446533203,2.966506004333496,-0.009587287902832031,-0.014913558959960938,0.00852203369140625,0.42752647399902344,0.59765625,-0.551823616027832,0.3943805694580078
127,4214330.0,8.948601722717285,-0.731450080871582,2.9653091430664062,0.0010652542114257812,-0.01597881317138672,0.0,0.42752647399902344,0.59765625,-0.551823616027832,0.3943805694580078
128,4214330.0,8.948601722717285,-0.731450080871582,2.9653091430664062,0.0010652542114257812,-0.01597881317138672,0.0,0.42752647399902344,0.59765625,-0.551823616027832,0.3943805694580078
129,4214330.0,8.948601722717285,-0.731450080871582,2.9653091430664062,0.0010652542114257812,-0.01597881317138672,0.0,0.42752647399902344,0.59765625,-0.551823616027832,0.3943805694580078
130,4214349.0,8.958178520202637,-0.7254648208618164,2.9724912643432617,-0.005326271057128906,-0.021305084228515625,-0.00852203369140625,0.42752647399902344,0.59765625,-0.551823616027832,0.3943805694580078
131,4214349.0,8.958178520202637,-0.7254648208618164,2.9724912643432617,-0.005326271057128906,-0.021305084228515625,-0.00852203369140625,0.42752647399902344,0.59765625,-0.551823616027832,0.3943805694580078
132,4214349.0,8.958178520202637,-0.7254648208618164,2.9724912643432617,-0.005326271057128906,-0.021305084228515625,-0.00852203369140625,0.42752647399902344,0.59765625,-0.551823616027832,0.3943805694580078
133,4214469.0,8.99528980255127,-0.705113410949707,3.035940170288086,0.012783050537109375,-0.0170440673828125,0.009587287902832031,0.42752647399902344,0.59765625,-0.551823616027832,0.3943805694580078
134,4214469.0,8.99528980255127,-0.705113410949707,3.035940170288086,0.012783050537109375,-0.0170440673828125,0.009587287902832031,0.42752647399902344,0.59765625,-0.551823616027832,0.3943805694580078
135,4214489.0,9.02402114868164,-0.7218732833862305,3.0179824829101562,-0.0170440673828125,-0.010652542114257812,0.0031957626342773438,0.42752647399902344,0.59765625,-0.551823616027832,0.3943805694580078
136,4214489.0,9.02402114868164,-0.7218732833862305,3.0179824829101562,-0.0170440673828125,-0.010652542114257812,0.0031957626342773438,0.42752647399902344,0.59765625,-0.551823616027832,0.3943805694580078
137,4214509.0,8.961770057678223,-0.7697591781616211,3.001222610473633,-0.030893325805664062,-0.0063915252685546875,-0.0063915252685546875,0.42752647399902344,0.59765625,-0.551823616027832,0.3943805694580078
138,4214509.0,8.961770057678223,-0.7697591781616211,3.001222610473633,-0.030893325805664062,-0.0063915252685546875,-0.0063915252685546875,0.42752647399902344,0.59765625,-0.551823616027832,0.3943805694580078
139,4214529.0,8.99409294128418,-0.8236303329467773,2.9940404891967773,-0.009587287902832031,-0.0170440673828125,-0.0170440673828125,0.42752647399902344,0.59765625,-0.551823616027832,0.3943805694580078
140,4214529.0,8.99409294128418,-0.8236303329467773,2.9940404891967773,-0.009587287902832031,-0.0170440673828125,-0.0170440673828125,0.42752647399902344,0.59765625,-0.551823616027832,0.3943805694580078
141,4214548.0,9.04556941986084,-0.7829275131225586,2.997631072998047,0.019174575805664062,-0.019174575805664062,-0.026632308959960938,0.42752647399902344,0.59765625,-0.551823616027832,0.3943805694580078
142,4214548.0,9.04556941986084,-0.7829275131225586,2.997631072998047,0.019174575805664062,-0.019174575805664062,-0.026632308959960938,0.42752647399902344,0.59765625,-0.551823616027832,0.3943805694580078
143,4214668.0,9.014443397521973,-0.7697591781616211,2.9796743392944336,0.007456779479980469,-0.007456779479980469,-0.007456779479980469,0.42752647399902344,0.59765625,-0.551823616027832,0.3943805694580078
144,4214668.0,9.014443397521973,-0.7697591781616211,2.9796743392944336,0.007456779479980469,-0.007456779479980469,-0.007456779479980469,0.42752647399902344,0.59765625,-0.551823616027832,0.3943805694580078
145,4214688.0,8.979726791381836,-0.7901105880737305,2.9473514556884766,0.007456779479980469,-0.007456779479980469,-0.007456779479980469,0.42752647399902344,0.59765625,-0.551823616027832,0.3943805694580078
146,4214688.0,8.979726791381836,-0.7901105880737305,2.9473514556884766,0.007456779479980469,-0.007456779479980469,-0.007456779479980469,0.42752647399902344,0.59765625,-0.551823616027832,0.3943805694580078
147,4214708.0,8.988106727600098,-0.8176441192626953,2.9281978607177734,0.007456779479980469,-0.007456779479980469,-0.007456779479980469,0.42752647399902344,0.59765625,-0.551823616027832,0.3943805694580078
148,4214708.0,8.988106727600098,-0.8176441192626953,2.9281978607177734,0.007456779479980469,-0.007456779479980469,-0.007456779479980469,0.42752647399902344,0.59765625,-0.551823616027832,0.3943805694580078
149,4214728.0,9.021626472473145,-0.8344039916992188,2.91263484954834,0.007456779479980469,-0.007456779479980469,-0.007456779479980469,0.42752647399902344,0.59765625,-0.551823616027832,0.3943805694580078
150,4214728.0,9.021626472473145,-0.8344039916992188,2.91263484954834,0.007456779479980469,-0.007456779479980469,-0.007456779479980469,0.42752647399902344,0.59765625,-0.551823616027832,0.3943805694580078
151,4214748.0,9.020429611206055,-0.8140525817871094,2.9102401733398438,0.007456779479980469,-0.007456779479980469,-0.007456779479980469,0.42752647399902344,0.59765625,-0.551823616027832,0.3943805694580078
152,4214748.0,9.020429611206055,-0.8140525817871094,2.9102401733398438,0.007456779479980469,-0.007456779479980469,-0.007456779479980469,0.42752647399902344,0.59765625,-0.551823616027832,0.3943805694580078
153,4214868.0,8.989303588867188,-0.7649698257446289,2.916226387023926,0.004261016845703125,-0.0170440673828125,0.004261016845703125,0.4344749450683594,0.5908803939819336,-0.5547151565551758,0.3929567337036133
154,4214888.0,8.97733211517334,-0.7829275131225586,2.9497461318969727,0.004261016845703125,-0.0170440673828125,0.004261016845703125,0.43456077575683594,0.590794563293457,-0.5546283721923828,0.39304256439208984
155,4214908.0,8.966558456420898,-0.7158880233764648,2.9581260681152344,0.004261016845703125,-0.0170440673828125,0.004261016845703125,0.4346475601196289,0.5907516479492188,-0.5545854568481445,0.3931293487548828
156,4214928.0,8.942615509033203,-0.7422246932983398,2.9557313919067383,0.004261016845703125,-0.0170440673828125,0.004261016845703125,0.43473339080810547,0.5906219482421875,-0.5545425415039062,0.3932151794433594
157,4214948.0,8.960572242736816,-0.7781391143798828,2.8874950408935547,0.004261016845703125,-0.0170440673828125,0.004261016845703125,0.43499279022216797,0.590449333190918,-0.5545425415039062,0.3932151794433594
158,4214967.0,9.055146217346191,-0.7984905242919922,2.931788444519043,0.004261016845703125,-0.0170440673828125,0.004261016845703125,0.43499279022216797,0.590449333190918,-0.5545425415039062,0.3932151794433594
159,4214987.0,9.018034934997559,-0.7841243743896484,2.971294403076172,0.004261016845703125,-0.0170440673828125,0.004261016845703125,0.43499279022216797,0.590449333190918,-0.5545425415039062,0.3932151794433594
160,4215007.0,9.031203269958496,-0.7458162307739258,2.9569292068481445,0.004261016845703125,-0.0170440673828125,0.004261016845703125,0.43499279022216797,0.590449333190918,-0.5545425415039062,0.3932151794433594
161,4215027.0,8.97374153137207,-0.7518014907836914,2.9940404891967773,0.004261016845703125,-0.0170440673828125,0.004261016845703125,0.43499279022216797,0.590449333190918,-0.5545425415039062,0.3932151794433594
162,4215047.0,8.984515190124512,-0.7625761032104492,2.9916458129882812,0.004261016845703125,-0.0170440673828125,0.004261016845703125,0.43499279022216797,0.590449333190918,-0.5545425415039062,0.3932151794433594
163,4215067.0,9.007261276245117,-0.8056726455688477,2.992842674255371,0.0021305084228515625,-0.014913558959960938,-0.010652542114257812,0.43499279022216797,0.590449333190918,-0.5545425415039062,0.3932151794433594
164,4215087.0,9.016838073730469,-0.7482099533081055,3.0131940841674805,0.007456779479980469,-0.010652542114257812,-0.00852203369140625,0.43499279022216797,0.590449333190918,-0.5545425415039062,0.3932151794433594
165,4215107.0,8.986909866333008,-0.7793359756469727,2.968899726867676,-0.019174575805664062,-0.0031957626342773438,0.00852203369140625,0.43499279022216797,0.590449333190918,-0.5545425415039062,0.3932151794433594
166,4215127.0,8.935432434082031,-0.8068704605102539,2.9461545944213867,-0.026632308959960938,0.0021305084228515625,0.0170440673828125,0.43499279022216797,0.590449333190918,-0.5545425415039062,0.3932151794433594
167,4215147.0,8.949798583984375,-0.799687385559082,2.974885940551758,-0.004261016845703125,-0.0021305084228515625,0.01810932159423828,0.43499279022216797,0.590449333190918,-0.5545425415039062,0.3932151794433594
168,4215267.0,9.007261276245117,-0.8954582214355469,2.9844627380371094,-0.004261016845703125,-0.0021305084228515625,0.01810932159423828,0.43633079528808594,0.5894994735717773,-0.5542831420898438,0.39351749420166016
169,4215286.0,8.919870376586914,-0.8367986679077148,2.971294403076172,-0.004261016845703125,-0.0021305084228515625,0.01810932159423828,0.43624401092529297,0.5895423889160156,-0.5542402267456055,0.3936033248901367
170,4215306.0,8.953390121459961,-0.7972927093505859,2.973689079284668,-0.004261016845703125,-0.0021305084228515625,0.01810932159423828,0.4361143112182617,0.5896720886230469,-0.5541973114013672,0.39373302459716797
171,4215326.0,8.966558456420898,-0.8176441192626953,2.959322929382324,-0.004261016845703125,-0.0021305084228515625,0.01810932159423828,0.43607139587402344,0.5896720886230469,-0.5541973114013672,0.3936901092529297
172,4215346.0,8.99409294128418,-0.8715152740478516,2.9653091430664062,-0.004261016845703125,-0.0021305084228515625,0.01810932159423828,0.4361581802368164,0.5896291732788086,-0.554326057434082,0.3934307098388672
173,4215467.0,8.967755317687988,-0.855952262878418,2.936577796936035,-0.012783050537109375,0.010652542114257812,0.053264617919921875,0.4364166259765625,0.5909671783447266,-0.5536794662475586,0.3921365737915039
174,4215486.0,8.979726791381836,-0.9170064926147461,3.026362419128418,0.004261016845703125,0.010652542114257812,0.060721397399902344,0.4366331100463867,0.5913124084472656,-0.5533342361450195,0.3918342590332031
175,4215506.0,8.988106727600098,-0.6213140487670898,3.3819122314453125,-0.00852203369140625,0.034089088439941406,0.061786651611328125,0.436676025390625,0.5917873382568359,-0.5530319213867188,0.3914461135864258
176,4215526.0,9.092257499694824,-0.5937795639038086,3.3867006301879883,-0.1896219253540039,0.07350540161132812,0.05965614318847656,0.4373664855957031,0.5918302536010742,-0.5535068511962891,0.39006519317626953
177,4215546.0,9.150917053222656,-0.6608190536499023,3.5734548568725586,-0.41759586334228516,0.0980072021484375,0.03728485107421875,0.43909263610839844,0.590794563293457,-0.5550603866577148,0.3873023986816406
178,4215665.0,13.032036781311035,-2.91143798828125,5.618165016174316,-0.41759586334228516,0.0980072021484375,0.03728485107421875,0.43909263610839844,0.590794563293457,-0.5550603866577148,0.3873023986816406
179,4215684.0,14.761899948120117,-3.3244495391845703,4.820871353149414,-0.41759586334228516,0.0980072021484375,0.03728485107421875,0.43909263610839844,0.590794563293457,-0.5550603866577148,0.3873023986816406
180,4215704.0,15.957840919494629,-5.470917701721191,3.8787240982055664,-0.41759586334228516,0.0980072021484375,0.03728485107421875,0.43909263610839844,0.590794563293457,-0.5550603866577148,0.3873023986816406
181,4215724.0,15.141392707824707,-6.481301307678223,4.800519943237305,-0.41759586334228516,0.0980072021484375,0.03728485107421875,0.43909263610839844,0.590794563293457,-0.5550603866577148,0.3873023986816406
182,4215744.0,14.119037628173828,-4.917840003967285,5.218320846557617,-0.41759586334228516,0.0980072021484375,0.03728485107421875,0.43909263610839844,0.590794563293457,-0.5550603866577148,0.3873023986816406
183,4215766.0,13.434274673461914,-3.185582160949707,4.82206916809082,2.4917287826538086,2.1785316467285156,3.452627182006836,0.43909263610839844,0.590794563293457,-0.5550603866577148,0.3873023986816406
184,4215786.0,13.449837684631348,-6.451373100280762,5.959349632263184,1.5148515701293945,2.718637466430664,3.87554931640625,0.43909263610839844,0.590794563293457,-0.5550603866577148,0.3873023986816406
185,4215805.0,10.909512519836426,-8.802550315856934,8.332075119018555,1.5734434127807617,3.2310447692871094,3.9501209259033203,0.43909263610839844,0.590794563293457,-0.5550603866577148,0.3873023986816406
186,4215825.0,9.484918594360352,-6.330461502075195,8.625373840332031,1.400864601135254,3.3652725219726562,3.891529083251953,0.43909263610839844,0.590794563293457,-0.5550603866577148,0.3873023986816406
187,4215845.0,6.948184967041016,-5.466128349304199,7.308523178100586,0.9768772125244141,3.9075088500976562,3.739192008972168,0.43909263610839844,0.590794563293457,-0.5550603866577148,0.3873023986816406
188,4215865.0,3.4788808822631836,-7.034379005432129,6.487286567687988,0.9768772125244141,3.9075088500976562,3.739192008972168,0.43909263610839844,0.590794563293457,-0.5550603866577148,0.3873023986816406
189,4215885.0,2.009993553161621,-5.569082260131836,6.353207588195801,0.9768772125244141,3.9075088500976562,3.739192008972168,0.43909263610839844,0.590794563293457,-0.5550603866577148,0.3873023986816406
190,4215885.0,2.009993553161621,-5.569082260131836,6.353207588195801,0.9768772125244141,3.9075088500976562,3.739192008972168,0.43909263610839844,0.590794563293457,-0.5550603866577148,0.3873023986816406
191,4215904.0,0.3184385299682617,-1.5419120788574219,5.177618980407715,0.9768772125244141,3.9075088500976562,3.739192008972168,0.43909263610839844,0.590794563293457,-0.5550603866577148,0.3873023986816406
192,4215904.0,0.3184385299682617,-1.5419120788574219,5.177618980407715,0.9768772125244141,3.9075088500976562,3.739192008972168,0.43909263610839844,0.590794563293457,-0.5550603866577148,0.3873023986816406
193,4215924.0,-2.2685747146606445,0.31724071502685547,3.3579702377319336,0.9768772125244141,3.9075088500976562,3.739192008972168,0.43909263610839844,0.590794563293457,-0.5550603866577148,0.3873023986816406
194,4215944.0,-3.776968002319336,0.7099018096923828,1.9896421432495117,0.9768772125244141,3.9075088500976562,3.739192008972168,0.43909263610839844,0.590794563293457,-0.5550603866577148,0.3873023986816406
195,4216165.0,-12.109044075012207,-0.8391923904418945,6.7602338790893555,1.2069807052612305,-0.29721736907958984,0.6732673645019531,0.051789283752441406,0.9281196594238281,-0.1459188461303711,-0.3386211395263672
196,4216185.0,-11.237527847290039,0.5794143676757812,7.358802795410156,1.2069807052612305,-0.29721736907958984,0.6732673645019531,0.03754711151123047,0.9324359893798828,-0.15705394744873047,-0.3232564926147461
197,4216204.0,-9.338868141174316,2.138087272644043,7.7550554275512695,1.2069807052612305,-0.29721736907958984,0.6732673645019531,0.02757740020751953,0.9366655349731445,-0.1758708953857422,-0.3016338348388672
198,4216224.0,-4.9908647537231445,-0.022745132446289062,8.111802101135254,1.2069807052612305,-0.29721736907958984,0.6732673645019531,0.029605865478515625,0.9402046203613281,-0.19917678833007812,-0.2747468948364258
199,4216244.0,-1.4018478393554688,1.022355079650879,7.676044464111328,1.2069807052612305,-0.29721736907958984,0.6732673645019531,0.03905773162841797,0.9423627853393555,-0.22835159301757812,-0.2414712905883789
200,4216364.0,-0.5722312927246094,-26.671022415161133,21.507770538330078,1.2069807052612305,-0.29721736907958984,0.6732673645019531,0.03905773162841797,0.9423627853393555,-0.22835159301757812,-0.2414712905883789
201,4216384.0,-5.810904502868652,5.628939628601074,0.8846836090087891,1.2069807052612305,-0.29721736907958984,0.6732673645019531,0.03905773162841797,0.9423627853393555,-0.22835159301757812,-0.2414712905883789
202,4216404.0,7.711957931518555,-0.41899776458740234,9.5651273727417,1.2069807052612305,-0.29721736907958984,0.6732673645019531,0.03905773162841797,0.9423627853393555,-0.22835159301757812,-0.2414712905883789
203,4216423.0,5.609785079956055,-1.0822114944458008,9.585478782653809,1.2069807052612305,-0.29721736907958984,0.6732673645019531,0.03905773162841797,0.9423627853393555,-0.22835159301757812,-0.2414712905883789
204,4216443.0,3.183187484741211,-0.15562725067138672,5.116564750671387,1.2069807052612305,-0.29721736907958984,0.6732673645019531,0.03905773162841797,0.9423627853393555,-0.22835159301757812,-0.2414712905883789
205,4216563.0,3.427403450012207,1.1672086715698242,7.959765434265137,-0.7318582534790039,1.2655725479125977,2.241384506225586,0.03905773162841797,0.9423627853393555,-0.22835159301757812,-0.2414712905883789
206,4216563.0,3.427403450012207,1.1672086715698242,7.959765434265137,-0.7318582534790039,1.2655725479125977,2.241384506225586,0.03905773162841797,0.9423627853393555,-0.22835159301757812,-0.2414712905883789
207,4216583.0,3.747039794921875,0.33280372619628906,6.657279968261719,-1.1281490325927734,1.0429248809814453,2.618499755859375,0.03905773162841797,0.9423627853393555,-0.22835159301757812,-0.2414712905883789
208,4216583.0,3.747039794921875,0.33280372619628906,6.657279968261719,-1.1281490325927734,1.0429248809814453,2.618499755859375,0.03905773162841797,0.9423627853393555,-0.22835159301757812,-0.2414712905883789
209,4216603.0,4.297722816467285,-2.280546188354492,8.268627166748047,0.2066669464111328,1.0482521057128906,2.883758544921875,0.03905773162841797,0.9423627853393555,-0.22835159301757812,-0.2414712905883789
210,4216603.0,4.297722816467285,-2.280546188354492,8.268627166748047,0.2066669464111328,1.0482521057128906,2.883758544921875,0.03905773162841797,0.9423627853393555,-0.22835159301757812,-0.2414712905883789
211,4216622.0,5.974911689758301,-2.6995439529418945,7.80653190612793,1.6842336654663086,0.7797966003417969,3.4334516525268555,0.03905773162841797,0.9423627853393555,-0.22835159301757812,-0.2414712905883789
212,4216622.0,5.974911689758301,-2.6995439529418945,7.80653190612793,1.6842336654663086,0.7797966003417969,3.4334516525268555,0.03905773162841797,0.9423627853393555,-0.22835159301757812,-0.2414712905883789
213,4216642.0,6.532777786254883,0.2178783416748047,7.988496780395508,1.4562606811523438,0.7222709655761719,3.3737945556640625,0.03905773162841797,0.9423627853393555,-0.22835159301757812,-0.2414712905883789
214,4216642.0,6.532777786254883,0.2178783416748047,7.988496780395508,1.4562606811523438,0.7222709655761719,3.3737945556640625,0.03905773162841797,0.9423627853393555,-0.22835159301757812,-0.2414712905883789
215,4216861.0,-2.0315418243408203,0.1580219268798828,8.37636947631836,-0.8426494598388672,-2.5865402221679688,-0.9587669372558594,0.03405189514160156,0.9865131378173828,-0.14319992065429688,-0.07116889953613281
216,4216861.0,-2.0315418243408203,0.1580219268798828,8.37636947631836,-0.8426494598388672,-2.5865402221679688,-0.9587669372558594,0.03405189514160156,0.9865131378173828,-0.14319992065429688,-0.07116889953613281
217,4216881.0,-1.4928302764892578,1.2653741836547852,9.257462501525879,-1.7609357833862305,-2.8081226348876953,-1.416844367980957,0.03405189514160156,0.9865131378173828,-0.14319992065429688,-0.07116889953613281
218,4216881.0,-1.4928302764892578,1.2653741836547852,9.257462501525879,-1.7609357833862305,-2.8081226348876953,-1.416844367980957,0.03405189514160156,0.9865131378173828,-0.14319992065429688,-0.07116889953613281
219,4216901.0,-1.6520490646362305,2.139284133911133,11.421887397766113,-2.2488412857055664,-2.788947105407715,-2.033651351928711,0.03405189514160156,0.9865131378173828,-0.14319992065429688,-0.07116889953613281
220,4216901.0,-1.6520490646362305,2.139284133911133,11.421887397766113,-2.2488412857055664,-2.788947105407715,-2.033651351928711,0.03405189514160156,0.9865131378173828,-0.14319992065429688,-0.07116889953613281
221,4216921.0,-0.15443038940429688,-2.218295097351074,12.915914535522461,-1.6054019927978516,-2.5300798416137695,-2.24031925201416,0.03405189514160156,0.9865131378173828,-0.14319992065429688,-0.07116889953613281
222,4216921.0,-0.15443038940429688,-2.218295097351074,12.915914535522461,-1.6054019927978516,-2.5300798416137695,-2.24031925201416,0.03405189514160156,0.9865131378173828,-0.14319992065429688,-0.07116889953613281
223,4216940.0,0.7446193695068359,-3.246636390686035,13.206818580627441,-0.6434392929077148,-2.277604103088379,-2.2211437225341797,0.03405189514160156,0.9865131378173828,-0.14319992065429688,-0.07116889953613281
224,4216940.0,0.7446193695068359,-3.246636390686035,13.206818580627441,-0.6434392929077148,-2.277604103088379,-2.2211437225341797,0.03405189514160156,0.9865131378173828,-0.14319992065429688,-0.07116889953613281
225,4217060.0,6.343630790710449,-4.126531600952148,9.080286026000977,-1.135605812072754,-2.0475006103515625,-2.36708927154541,0.03405189514160156,0.9865131378173828,-0.14319992065429688,-0.07116889953613281
226,4217080.0,6.428627014160156,-2.3296289443969727,7.993285179138184,-0.9853992462158203,-2.1167449951171875,-2.285061836242676,0.03405189514160156,0.9865131378173828,-0.14319992065429688,-0.07116889953613281
227,4217100.0,6.533975601196289,-3.6380996704101562,7.964554786682129,-1.0748844146728516,-2.097569465637207,-1.9729290008544922,0.03405189514160156,0.9865131378173828,-0.14319992065429688,-0.07116889953613281
228,4217120.0,7.467741966247559,-3.7063369750976562,8.409889221191406,-0.678593635559082,-2.18918514251709,-1.9420356750488281,0.03405189514160156,0.9865131378173828,-0.14319992065429688,-0.07116889953613281
229,4217139.0,8.192010879516602,-1.8256340026855469,8.626571655273438,-0.2940216064453125,-2.214752197265625,-1.9665374755859375,0.03405189514160156,0.9865131378173828,-0.14319992065429688,-0.07116889953613281
230,4217161.0,8.147716522216797,-0.8116588592529297,7.901105880737305,-0.2940216064453125,-2.214752197265625,-1.9665374755859375,0.03405189514160156,0.9865131378173828,-0.14319992065429688,-0.07116889953613281
231,4217181.0,8.329681396484375,-0.8332071304321289,7.107403755187988,-0.2940216064453125,-2.214752197265625,-1.9665374755859375,0.03405189514160156,0.9865131378173828,-0.14319992065429688,-0.07116889953613281
232,4217201.0,9.537592887878418,-1.3192453384399414,6.602211952209473,-0.2940216064453125,-2.214752197265625,-1.9665374755859375,0.03405189514160156,0.9865131378173828,-0.14319992065429688,-0.07116889953613281
233,4217221.0,10.76465892791748,-1.540715217590332,6.51362419128418,-0.2940216064453125,-2.214752197265625,-1.9665374755859375,0.03405189514160156,0.9865131378173828,-0.14319992065429688,-0.07116889953613281
234,4217240.0,11.67687702178955,-1.1767854690551758,6.363981246948242,-0.2940216064453125,-2.214752197265625,-1.9665374755859375,0.03405189514160156,0.9865131378173828,-0.14319992065429688,-0.07116889953613281
235,4217260.0,11.846870422363281,-0.8918666839599609,6.262225151062012,0.011717796325683594,-1.5787696838378906,-1.699148178100586,0.03405189514160156,0.9865131378173828,-0.14319992065429688,-0.07116889953613281
236,4217300.0,11.233936309814453,-1.567051887512207,6.341236114501953,-0.10652923583984375,-1.030141830444336,-0.9097633361816406,0.03405189514160156,0.9865131378173828,-0.14319992065429688,-0.07116889953613281
237,4217320.0,10.868809700012207,-0.9768638610839844,6.198777198791504,-0.0809621810913086,-0.6860504150390625,-0.4793834686279297,0.03405189514160156,0.9865131378173828,-0.14319992065429688,-0.07116889953613281
238,4217339.0,10.16609001159668,-0.9696807861328125,5.8300580978393555,-0.014913558959960938,-0.33663368225097656,-0.0745706558227539,0.03405189514160156,0.9865131378173828,-0.14319992065429688,-0.07116889953613281
239,4217459.0,8.389537811279297,0.8475723266601562,4.168432235717773,0.18855667114257812,0.26099681854248047,0.551823616027832,0.03405189514160156,0.9865131378173828,-0.14319992065429688,-0.07116889953613281
240,4217479.0,8.358412742614746,0.7398300170898438,4.030760765075684,0.18855667114257812,0.26099681854248047,0.551823616027832,0.03405189514160156,0.9865131378173828,-0.14319992065429688,-0.07116889953613281
241,4217499.0,8.417072296142578,0.4106178283691406,3.9709043502807617,0.18855667114257812,0.26099681854248047,0.551823616027832,0.03405189514160156,0.9865131378173828,-0.14319992065429688,-0.07116889953613281
242,4217519.0,8.493688583374023,0.24900436401367188,4.017592430114746,0.18855667114257812,0.26099681854248047,0.551823616027832,0.03405189514160156,0.9865131378173828,-0.14319992065429688,-0.07116889953613281
243,4217539.0,8.578685760498047,0.18316173553466797,3.861964225769043,0.18855667114257812,0.26099681854248047,0.551823616027832,0.03405189514160156,0.9865131378173828,-0.14319992065429688,-0.07116889953613281
244,4217679.0,8.589460372924805,0.07541942596435547,3.951749801635742,0.2876300811767578,0.04793834686279297,0.19175338745117188,0.03405189514160156,0.9865131378173828,-0.14319992065429688,-0.07116889953613281
245,4217699.0,8.670865058898926,0.02154827117919922,3.736265182495117,0.2876300811767578,0.04793834686279297,0.19175338745117188,0.03405189514160156,0.9865131378173828,-0.14319992065429688,-0.07116889953613281
246,4217719.0,8.577488899230957,0.1185159683227539,3.833232879638672,0.2876300811767578,0.04793834686279297,0.19175338745117188,0.03405189514160156,0.9865131378173828,-0.14319992065429688,-0.07116889953613281
247,4217739.0,8.59664249420166,0.28252410888671875,4.016395568847656,0.2876300811767578,0.04793834686279297,0.19175338745117188,0.03405189514160156,0.9865131378173828,-0.14319992065429688,-0.07116889953613281
248,4217857.0,8.769030570983887,-0.06344795227050781,4.091814994812012,-0.0862884521484375,-0.0980072021484375,-0.030893325805664062,0.03405189514160156,0.9865131378173828,-0.14319992065429688,-0.07116889953613281
249,4217877.0,8.788185119628906,-0.0658416748046875,4.119349479675293,-0.0862884521484375,-0.0980072021484375,-0.030893325805664062,0.03405189514160156,0.9865131378173828,-0.14319992065429688,-0.07116889953613281
250,4217897.0,8.673259735107422,-0.04908180236816406,4.15286922454834,0.0287628173828125,-0.0692434310913086,-0.014913558959960938,0.03405189514160156,0.9865131378173828,-0.14319992065429688,-0.07116889953613281
251,4218058.0,8.589460372924805,-0.25618648529052734,4.043929100036621,0.040480613708496094,-0.07670116424560547,-0.026632308959960938,0.2676248550415039,0.7254915237426758,-0.41941356658935547,0.47556114196777344
252,4218077.0,8.535589218139648,-0.3411836624145508,4.116954803466797,0.040480613708496094,-0.07670116424560547,-0.026632308959960938,0.2676677703857422,0.7255783081054688,-0.419586181640625,0.47525978088378906
253,4218097.0,8.627768516540527,-0.2968893051147461,4.160052299499512,0.040480613708496094,-0.07670116424560547,-0.026632308959960938,0.2678403854370117,0.7256641387939453,-0.41967201232910156,0.47491455078125
254,4218117.0,8.733116149902344,-0.23463821411132812,4.076251983642578,0.040480613708496094,-0.07670116424560547,-0.026632308959960938,0.26797008514404297,0.7257070541381836,-0.4198884963989258,0.4746122360229492
255,4218137.0,8.626571655273438,-0.30646705627441406,4.048718452453613,0.040480613708496094,-0.07670116424560547,-0.026632308959960938,0.26831531524658203,0.7256641387939453,-0.4202766418457031,0.4741802215576172
256,4218257.0,8.54396915435791,-0.33280372619628906,3.993649482727051,-0.053264617919921875,0.0021305084228515625,-0.004261016845703125,0.26831531524658203,0.7256641387939453,-0.4202766418457031,0.4741802215576172
257,4218257.0,8.54396915435791,-0.33280372619628906,3.993649482727051,-0.053264617919921875,0.0021305084228515625,-0.004261016845703125,0.26831531524658203,0.7256641387939453,-0.4202766418457031,0.4741802215576172
258,4218276.0,8.59305191040039,-0.2657642364501953,3.990057945251465,-0.053264617919921875,0.0021305084228515625,-0.004261016845703125,0.26831531524658203,0.7256641387939453,-0.4202766418457031,0.4741802215576172
259,4218276.0,8.59305191040039,-0.2657642364501953,3.990057945251465,-0.053264617919921875,0.0021305084228515625,-0.004261016845703125,0.26831531524658203,0.7256641387939453,-0.4202766418457031,0.4741802215576172
260,4218296.0,8.59544563293457,-0.23344135284423828,4.01519775390625,-0.053264617919921875,0.0021305084228515625,-0.004261016845703125,0.26831531524658203,0.7256641387939453,-0.4202766418457031,0.4741802215576172
261,4218296.0,8.59544563293457,-0.23344135284423828,4.01519775390625,-0.053264617919921875,0.0021305084228515625,-0.004261016845703125,0.26831531524658203,0.7256641387939453,-0.4202766418457031,0.4741802215576172
262,4218316.0,8.506857872009277,-0.31724071502685547,3.9685096740722656,-0.053264617919921875,0.0021305084228515625,-0.004261016845703125,0.26831531524658203,0.7256641387939453,-0.4202766418457031,0.4741802215576172
263,4218316.0,8.506857872009277,-0.31724071502685547,3.9685096740722656,-0.053264617919921875,0.0021305084228515625,-0.004261016845703125,0.26831531524658203,0.7256641387939453,-0.4202766418457031,0.4741802215576172
264,4218336.0,8.611008644104004,-0.32442378997802734,3.990057945251465,-0.053264617919921875,0.0021305084228515625,-0.004261016845703125,0.26831531524658203,0.7256641387939453,-0.4202766418457031,0.4741802215576172
265,4218336.0,8.611008644104004,-0.32442378997802734,3.990057945251465,-0.053264617919921875,0.0021305084228515625,-0.004261016845703125,0.26831531524658203,0.7256641387939453,-0.4202766418457031,0.4741802215576172
266,4218456.0,8.613402366638184,-0.14844417572021484,4.018789291381836,0.025567054748535156,-0.012783050537109375,0.020239830017089844,0.26831531524658203,0.7256641387939453,-0.4202766418457031,0.4741802215576172
267,4218456.0,8.613402366638184,-0.14844417572021484,4.018789291381836,0.025567054748535156,-0.012783050537109375,0.020239830017089844,0.26831531524658203,0.7256641387939453,-0.4202766418457031,0.4741802215576172
268,4218476.0,8.642133712768555,-0.15562725067138672,4.055900573730469,0.025567054748535156,-0.012783050537109375,0.020239830017089844,0.26831531524658203,0.7256641387939453,-0.4202766418457031,0.4741802215576172
269,4218476.0,8.642133712768555,-0.15562725067138672,4.055900573730469,0.025567054748535156,-0.012783050537109375,0.020239830017089844,0.26831531524658203,0.7256641387939453,-0.4202766418457031,0.4741802215576172
270,4218495.0,8.693611145019531,-0.14126205444335938,4.046323776245117,0.025567054748535156,-0.012783050537109375,0.020239830017089844,0.26831531524658203,0.7256641387939453,-0.4202766418457031,0.4741802215576172
271,4218495.0,8.693611145019531,-0.14126205444335938,4.046323776245117,0.025567054748535156,-0.012783050537109375,0.020239830017089844,0.26831531524658203,0.7256641387939453,-0.4202766418457031,0.4741802215576172
272,4218515.0,8.66607666015625,-0.1364736557006836,4.010409355163574,0.025567054748535156,-0.012783050537109375,0.020239830017089844,0.26831531524658203,0.7256641387939453,-0.4202766418457031,0.4741802215576172
273,4218515.0,8.66607666015625,-0.1364736557006836,4.010409355163574,0.025567054748535156,-0.012783050537109375,0.020239830017089844,0.26831531524658203,0.7256641387939453,-0.4202766418457031,0.4741802215576172
274,4218535.0,8.630162239074707,-0.14126205444335938,4.01519775390625,0.025567054748535156,-0.012783050537109375,0.020239830017089844,0.26831531524658203,0.7256641387939453,-0.4202766418457031,0.4741802215576172
275,4218535.0,8.630162239074707,-0.14126205444335938,4.01519775390625,0.025567054748535156,-0.012783050537109375,0.020239830017089844,0.26831531524658203,0.7256641387939453,-0.4202766418457031,0.4741802215576172
276,4218556.0,8.654105186462402,-0.1077423095703125,3.9972410202026367,0.025567054748535156,-0.012783050537109375,0.020239830017089844,0.26831531524658203,0.7256641387939453,-0.4202766418457031,0.4741802215576172
277,4218556.0,8.654105186462402,-0.1077423095703125,3.9972410202026367,0.025567054748535156,-0.012783050537109375,0.020239830017089844,0.26831531524658203,0.7256641387939453,-0.4202766418457031,0.4741802215576172
278,4218576.0,8.694808006286621,-0.1496419906616211,4.0343523025512695,0.025567054748535156,-0.012783050537109375,0.020239830017089844,0.26831531524658203,0.7256641387939453,-0.4202766418457031,0.4741802215576172
279,4218576.0,8.694808006286621,-0.1496419906616211,4.0343523025512695,0.025567054748535156,-0.012783050537109375,0.020239830017089844,0.26831531524658203,0.7256641387939453,-0.4202766418457031,0.4741802215576172
280,4218595.0,8.68762493133545,-0.13288211822509766,3.955341339111328,0.025567054748535156,-0.012783050537109375,0.020239830017089844,0.26831531524658203,0.7256641387939453,-0.4202766418457031,0.4741802215576172
281,4218595.0,8.68762493133545,-0.13288211822509766,3.955341339111328,0.025567054748535156,-0.012783050537109375,0.020239830017089844,0.26831531524658203,0.7256641387939453,-0.4202766418457031,0.4741802215576172
282,4218615.0,8.600234031677246,-0.16400718688964844,4.023578643798828,0.025567054748535156,-0.012783050537109375,0.020239830017089844,0.26831531524658203,0.7256641387939453,-0.4202766418457031,0.4741802215576172
283,4218615.0,8.600234031677246,-0.16400718688964844,4.023578643798828,0.025567054748535156,-0.012783050537109375,0.020239830017089844,0.26831531524658203,0.7256641387939453,-0.4202766418457031,0.4741802215576172
284,4218635.0,8.558334350585938,-0.14245891571044922,3.9972410202026367,0.025567054748535156,-0.012783050537109375,0.020239830017089844,0.26831531524658203,0.7256641387939453,-0.4202766418457031,0.4741802215576172
285,4218635.0,8.558334350585938,-0.14245891571044922,3.9972410202026367,0.025567054748535156,-0.012783050537109375,0.020239830017089844,0.26831531524658203,0.7256641387939453,-0.4202766418457031,0.4741802215576172
286,4218755.0,8.745087623596191,-0.23224449157714844,3.981678009033203,-0.033023834228515625,-0.005326271057128906,-0.011717796325683594,0.26831531524658203,0.7256641387939453,-0.4202766418457031,0.4741802215576172
287,4218755.0,8.745087623596191,-0.23224449157714844,3.981678009033203,-0.033023834228515625,-0.005326271057128906,-0.011717796325683594,0.26831531524658203,0.7256641387939453,-0.4202766418457031,0.4741802215576172
288,4218775.0,8.68403434753418,-0.24062442779541016,4.017592430114746,-0.010652542114257812,0.007456779479980469,-0.013848304748535156,0.26831531524658203,0.7256641387939453,-0.4202766418457031,0.4741802215576172
289,4218775.0,8.68403434753418,-0.24062442779541016,4.017592430114746,-0.010652542114257812,0.007456779479980469,-0.013848304748535156,0.26831531524658203,0.7256641387939453,-0.4202766418457031,0.4741802215576172
290,4218794.0,8.571502685546875,-0.22386455535888672,3.992452621459961,-0.01597881317138672,0.0031957626342773438,-0.012783050537109375,0.26831531524658203,0.7256641387939453,-0.4202766418457031,0.4741802215576172
291,4218794.0,8.571502685546875,-0.22386455535888672,3.992452621459961,-0.01597881317138672,0.0031957626342773438,-0.012783050537109375,0.26831531524658203,0.7256641387939453,-0.4202766418457031,0.4741802215576172
292,4218814.0,8.611008644104004,-0.22506141662597656,3.9984378814697266,-0.04474163055419922,-0.0031957626342773438,-0.011717796325683594,0.26831531524658203,0.7256641387939453,-0.4202766418457031,0.4741802215576172
293,4218814.0,8.611008644104004,-0.22506141662597656,3.9984378814697266,-0.04474163055419922,-0.0031957626342773438,-0.011717796325683594,0.26831531524658203,0.7256641387939453,-0.4202766418457031,0.4741802215576172
294,4218834.0,8.688822746276855,-0.23822975158691406,3.981678009033203,-0.03941535949707031,-0.005326271057128906,-0.0170440673828125,0.26831531524658203,0.7256641387939453,-0.4202766418457031,0.4741802215576172
295,4218834.0,8.688822746276855,-0.23822975158691406,3.981678009033203,-0.03941535949707031,-0.005326271057128906,-0.0170440673828125,0.26831531524658203,0.7256641387939453,-0.4202766418457031,0.4741802215576172
296,4218854.0,8.66487979888916,-0.16520404815673828,3.9685096740722656,-0.05965614318847656,-0.005326271057128906,-0.009587287902832031,0.26831531524658203,0.7256641387939453,-0.4202766418457031,0.4741802215576172
297,4218874.0,8.59664249420166,-0.173583984375,4.0080156326293945,-0.12996578216552734,-0.0021305084228515625,-0.007456779479980469,0.26831531524658203,0.7256641387939453,-0.4202766418457031,0.4741802215576172
298,4218893.0,8.56432056427002,-0.2286529541015625,3.9457645416259766,-0.196014404296875,-0.007456779479980469,-0.010652542114257812,0.26831531524658203,0.7256641387939453,-0.4202766418457031,0.4741802215576172
299,4218913.0,8.597840309143066,-0.173583984375,3.9864673614501953,-0.2823028564453125,-0.0287628173828125,-0.005326271057128906,0.26831531524658203,0.7256641387939453,-0.4202766418457031,0.4741802215576172
300,4218933.0,8.6349515914917,-0.026336669921875,4.057098388671875,-0.4857749938964844,-0.057525634765625,-0.0031957626342773438,0.26831531524658203,0.7256641387939453,-0.4202766418457031,0.4741802215576172
301,4218955.0,8.588262557983398,-0.033519744873046875,4.029563903808594,-0.4857749938964844,-0.057525634765625,-0.0031957626342773438,0.26831531524658203,0.7256641387939453,-0.4202766418457031,0.4741802215576172
302,4218975.0,8.549954414367676,-0.17957019805908203,4.077449798583984,-0.4857749938964844,-0.057525634765625,-0.0031957626342773438,0.26831531524658203,0.7256641387939453,-0.4202766418457031,0.4741802215576172
303,4218995.0,8.71635627746582,-0.4178009033203125,4.119349479675293,-0.4857749938964844,-0.057525634765625,-0.0031957626342773438,0.26831531524658203,0.7256641387939453,-0.4202766418457031,0.4741802215576172
304,4219014.0,8.779805183410645,-0.6979303359985352,3.9864673614501953,-0.4857749938964844,-0.057525634765625,-0.0031957626342773438,0.26831531524658203,0.7256641387939453,-0.4202766418457031,0.4741802215576172
305,4219034.0,8.626571655273438,-0.8427839279174805,3.9110469818115234,-0.4857749938964844,-0.057525634765625,-0.0031957626342773438,0.26831531524658203,0.7256641387939453,-0.4202766418457031,0.4741802215576172
306,4219054.0,8.606220245361328,-1.1719970703125,3.6967592239379883,-1.2623767852783203,-0.03941535949707031,-0.07670116424560547,0.26831531524658203,0.7256641387939453,-0.4202766418457031,0.4741802215576172
307,4219074.0,8.606220245361328,-1.289316177368164,3.586623191833496,-0.7457075119018555,-0.025567054748535156,-0.08735370635986328,0.26831531524658203,0.7256641387939453,-0.4202766418457031,0.4741802215576172
308,4219094.0,8.624176979064941,-1.2617826461791992,3.7350683212280273,-0.3004131317138672,-0.04793834686279297,-0.06711292266845703,0.26831531524658203,0.7256641387939453,-0.4202766418457031,0.4741802215576172
309,4219113.0,8.700794219970703,-1.358750343322754,3.6764087677001953,-0.0063915252685546875,-0.041545867919921875,-0.041545867919921875,0.26831531524658203,0.7256641387939453,-0.4202766418457031,0.4741802215576172
310,4219133.0,8.66607666015625,-1.0055952072143555,3.7326736450195312,0.2247772216796875,-0.04793834686279297,-0.042611122131347656,0.26831531524658203,0.7256641387939453,-0.4202766418457031,0.4741802215576172
311,4219154.0,8.789381980895996,-0.888275146484375,3.718308448791504,0.2247772216796875,-0.04793834686279297,-0.042611122131347656,0.26831531524658203,0.7256641387939453,-0.4202766418457031,0.4741802215576172
312,4219154.0,8.789381980895996,-0.888275146484375,3.718308448791504,0.2247772216796875,-0.04793834686279297,-0.042611122131347656,0.26831531524658203,0.7256641387939453,-0.4202766418457031,0.4741802215576172
313,4219174.0,8.792973518371582,-0.9098243713378906,3.6955623626708984,0.2247772216796875,-0.04793834686279297,-0.042611122131347656,0.26831531524658203,0.7256641387939453,-0.4202766418457031,0.4741802215576172
314,4219174.0,8.792973518371582,-0.9098243713378906,3.6955623626708984,0.2247772216796875,-0.04793834686279297,-0.042611122131347656,0.26831531524658203,0.7256641387939453,-0.4202766418457031,0.4741802215576172
315,4219194.0,8.68642807006836,-0.8320102691650391,3.6440858840942383,0.2247772216796875,-0.04793834686279297,-0.042611122131347656,0.26831531524658203,0.7256641387939453,-0.4202766418457031,0.4741802215576172
316,4219194.0,8.68642807006836,-0.8320102691650391,3.6440858840942383,0.2247772216796875,-0.04793834686279297,-0.042611122131347656,0.26831531524658203,0.7256641387939453,-0.4202766418457031,0.4741802215576172
317,4219213.0,8.73670768737793,-0.8535585403442383,3.6392974853515625,0.2247772216796875,-0.04793834686279297,-0.042611122131347656,0.26831531524658203,0.7256641387939453,-0.4202766418457031,0.4741802215576172
318,4219213.0,8.73670768737793,-0.8535585403442383,3.6392974853515625,0.2247772216796875,-0.04793834686279297,-0.042611122131347656,0.26831531524658203,0.7256641387939453,-0.4202766418457031,0.4741802215576172
319,4219233.0,8.721144676208496,-0.7278594970703125,3.7015485763549805,0.2247772216796875,-0.04793834686279297,-0.042611122131347656,0.26831531524658203,0.7256641387939453,-0.4202766418457031,0.4741802215576172
320,4219233.0,8.721144676208496,-0.7278594970703125,3.7015485763549805,0.2247772216796875,-0.04793834686279297,-0.042611122131347656,0.26831531524658203,0.7256641387939453,-0.4202766418457031,0.4741802215576172
321,4219253.0,8.71396255493164,-0.7889127731323242,3.677605628967285,0.040480613708496094,-0.0170440673828125,0.00852203369140625,0.26831531524658203,0.7256641387939453,-0.4202766418457031,0.4741802215576172
322,4219273.0,8.662485122680664,-0.9002466201782227,3.616551399230957,0.02769756317138672,-0.01597881317138672,-0.00852203369140625,0.26831531524658203,0.7256641387939453,-0.4202766418457031,0.4741802215576172
323,4219293.0,8.68403434753418,-0.8164472579956055,3.739856719970703,0.04474163055419922,-0.019174575805664062,-0.0031957626342773438,0.26831531524658203,0.7256641387939453,-0.4202766418457031,0.4741802215576172
324,4219312.0,8.705582618713379,-0.7589845657348633,3.747039794921875,-0.026632308959960938,-0.026632308959960938,0.0010652542114257812,0.26831531524658203,0.7256641387939453,-0.4202766418457031,0.4741802215576172
325,4219332.0,8.650513648986816,-0.7913074493408203,3.770981788635254,-0.12037849426269531,-0.022370338439941406,0.005326271057128906,0.26831531524658203,0.7256641387939453,-0.4202766418457031,0.4741802215576172
326,4219353.0,8.709174156188965,-0.894261360168457,3.6919708251953125,-0.15233707427978516,-0.013848304748535156,0.0063915252685546875,0.26831531524658203,0.7256641387939453,-0.4202766418457031,0.4741802215576172
327,4219373.0,8.745087623596191,-0.8619384765625,3.708730697631836,-0.09587669372558594,-0.020239830017089844,0.004261016845703125,0.26831531524658203,0.7256641387939453,-0.4202766418457031,0.4741802215576172
328,4219393.0,8.737905502319336,-0.8703184127807617,3.7350683212280273,-0.07137489318847656,-0.023435592651367188,0.009587287902832031,0.26831531524658203,0.7256641387939453,-0.4202766418457031,0.4741802215576172
329,4219412.0,8.758255958557129,-0.9720754623413086,3.6871824264526367,-0.012783050537109375,-0.014913558959960938,-0.0010652542114257812,0.26831531524658203,0.7256641387939453,-0.4202766418457031,0.4741802215576172
330,4219432.0,8.68762493133545,-0.8918666839599609,3.6967592239379883,0.09587669372558594,-0.01597881317138672,-0.0031957626342773438,0.26831531524658203,0.7256641387939453,-0.4202766418457031,0.4741802215576172
331,4219453.0,8.792973518371582,-0.7422246932983398,3.7530250549316406,0.0916147232055664,-0.034089088439941406,0.007456779479980469,0.26831531524658203,0.7256641387939453,-0.4202766418457031,0.4741802215576172
332,4219473.0,8.764242172241211,-0.8308124542236328,3.708730697631836,0.03515434265136719,-0.020239830017089844,0.0063915252685546875,0.26831531524658203,0.7256641387939453,-0.4202766418457031,0.4741802215576172
333,4219493.0,8.705582618713379,-0.8858814239501953,3.6883792877197266,0.05646038055419922,-0.01597881317138672,-0.005326271057128906,0.26831531524658203,0.7256641387939453,-0.4202766418457031,0.4741802215576172
334,4219512.0,8.731919288635254,-0.8080673217773438,3.7278852462768555,0.09694194793701172,-0.020239830017089844,-0.0063915252685546875,0.26831531524658203,0.7256641387939453,-0.4202766418457031,0.4741802215576172
335,4219532.0,8.730722427368164,-0.7769412994384766,3.744645118713379,0.08522319793701172,-0.021305084228515625,0.0021305084228515625,0.26831531524658203,0.7256641387939453,-0.4202766418457031,0.4741802215576172
336,4219652.0,8.706779479980469,-0.7446193695068359,3.707533836364746,0.09481048583984375,-0.0063915252685546875,0.0021305084228515625,0.3390951156616211,0.6973094940185547,-0.45389652252197266,0.43904972076416016
337,4219672.0,8.730722427368164,-0.8008842468261719,3.7530250549316406,0.08841896057128906,-0.009587287902832031,-0.00852203369140625,0.3390951156616211,0.6973094940185547,-0.45389652252197266,0.43904972076416016
338,4219692.0,8.703187942504883,-0.7182817459106445,3.77337646484375,0.08522319793701172,-0.021305084228515625,-0.013848304748535156,0.3390951156616211,0.6973094940185547,-0.45389652252197266,0.43904972076416016
339,4219711.0,8.740299224853516,-0.705113410949707,3.8140792846679688,0.03941535949707031,-0.025567054748535156,-0.026632308959960938,0.3390951156616211,0.6973094940185547,-0.45389652252197266,0.43904972076416016
340,4219731.0,8.709174156188965,-0.7170848846435547,3.7542219161987305,-0.021305084228515625,-0.012783050537109375,-0.026632308959960938,0.3390951156616211,0.6973094940185547,-0.45389652252197266,0.43904972076416016
341,4219751.0,8.742693901062012,-0.8499670028686523,3.743448257446289,-0.030893325805664062,-0.0063915252685546875,-0.023435592651367188,0.3390951156616211,0.6973094940185547,-0.45389652252197266,0.43904972076416016
342,4219751.0,8.742693901062012,-0.8499670028686523,3.743448257446289,-0.030893325805664062,-0.0063915252685546875,-0.023435592651367188,0.3390951156616211,0.6973094940185547,-0.45389652252197266,0.43904972076416016
343,4219771.0,8.707976341247559,-0.8870782852172852,3.7602081298828125,0.020239830017089844,-0.0031957626342773438,-0.014913558959960938,0.3390951156616211,0.6973094940185547,-0.45389652252197266,0.43904972076416016
344,4219771.0,8.707976341247559,-0.8870782852172852,3.7602081298828125,0.020239830017089844,-0.0031957626342773438,-0.014913558959960938,0.3390951156616211,0.6973094940185547,-0.45389652252197266,0.43904972076416016
345,4219791.0,8.71515941619873,-0.7865190505981445,3.7961225509643555,0.060721397399902344,-0.0021305084228515625,-0.0031957626342773438,0.3390951156616211,0.6973094940185547,-0.45389652252197266,0.43904972076416016
346,4219791.0,8.71515941619873,-0.7865190505981445,3.7961225509643555,0.060721397399902344,-0.0021305084228515625,-0.0031957626342773438,0.3390951156616211,0.6973094940185547,-0.45389652252197266,0.43904972076416016
347,4219810.0,8.778607368469238,-0.767364501953125,3.77217960357666,0.053264617919921875,0.004261016845703125,0.005326271057128906,0.3390951156616211,0.6973094940185547,-0.45389652252197266,0.43904972076416016
348,4219810.0,8.778607368469238,-0.767364501953125,3.77217960357666,0.053264617919921875,0.004261016845703125,0.005326271057128906,0.3390951156616211,0.6973094940185547,-0.45389652252197266,0.43904972076416016
349,4219830.0,8.698399543762207,-0.6883535385131836,3.689577102661133,0.025567054748535156,0.010652542114257812,0.011717796325683594,0.3390951156616211,0.6973094940185547,-0.45389652252197266,0.43904972076416016
350,4219830.0,8.698399543762207,-0.6883535385131836,3.689577102661133,0.025567054748535156,0.010652542114257812,0.011717796325683594,0.3390951156616211,0.6973094940185547,-0.45389652252197266,0.43904972076416016
351,4219951.0,8.64452838897705,-0.7290563583374023,3.713520050048828,0.025567054748535156,0.010652542114257812,0.011717796325683594,0.33546924591064453,0.6992082595825195,-0.45191192626953125,0.44086265563964844
352,4219971.0,8.728327751159668,-0.7769412994384766,3.6883792877197266,0.025567054748535156,0.010652542114257812,0.011717796325683594,0.33546924591064453,0.6992082595825195,-0.45191192626953125,0.44086265563964844
353,4219991.0,8.727130889892578,-0.7577877044677734,3.743448257446289,0.025567054748535156,0.010652542114257812,0.011717796325683594,0.33546924591064453,0.6992082595825195,-0.45191192626953125,0.44086265563964844
354,4220011.0,8.662485122680664,-0.7446193695068359,3.7027454376220703,0.025567054748535156,0.010652542114257812,0.011717796325683594,0.33546924591064453,0.6992082595825195,-0.45191192626953125,0.44086265563964844
355,4220030.0,8.68403434753418,-0.8044757843017578,3.689577102661133,0.025567054748535156,0.010652542114257812,0.011717796325683594,0.33546924591064453,0.6992082595825195,-0.45191192626953125,0.44086265563964844
356,4220050.0,8.707976341247559,-0.826024055480957,3.682394027709961,0.04367637634277344,0.00852203369140625,0.0,0.33546924591064453,0.6992082595825195,-0.45191192626953125,0.44086265563964844
357,4220070.0,8.725934028625488,-0.7230701446533203,3.709928512573242,0.05539512634277344,-0.0063915252685546875,0.0021305084228515625,0.33546924591064453,0.6992082595825195,-0.45191192626953125,0.44086265563964844
358,4220090.0,8.764242172241211,-0.7266616821289062,3.6883792877197266,0.019174575805664062,0.0031957626342773438,0.0031957626342773438,0.33546924591064453,0.6992082595825195,-0.45191192626953125,0.44086265563964844
359,4220110.0,8.724736213684082,-0.7960958480834961,3.6943655014038086,0.0031957626342773438,0.009587287902832031,0.007456779479980469,0.33546924591064453,0.6992082595825195,-0.45191192626953125,0.44086265563964844
360,4220129.0,8.704384803771973,-0.7757444381713867,3.6680288314819336,0.014913558959960938,0.0,0.009587287902832031,0.33546924591064453,0.6992082595825195,-0.45191192626953125,0.44086265563964844
361,4220150.0,8.712764739990234,-0.735041618347168,3.6764087677001953,0.023435592651367188,-0.005326271057128906,0.011717796325683594,0.33546924591064453,0.6992082595825195,-0.45191192626953125,0.44086265563964844
362,4220150.0,8.712764739990234,-0.735041618347168,3.6764087677001953,0.023435592651367188,-0.005326271057128906,0.011717796325683594,0.33546924591064453,0.6992082595825195,-0.45191192626953125,0.44086265563964844
363,4220170.0,8.742693901062012,-0.7302532196044922,3.6931686401367188,0.00852203369140625,-0.0010652542114257812,0.0170440673828125,0.33546924591064453,0.6992082595825195,-0.45191192626953125,0.44086265563964844
364,4220170.0,8.742693901062012,-0.7302532196044922,3.6931686401367188,0.00852203369140625,-0.0010652542114257812,0.0170440673828125,0.33546924591064453,0.6992082595825195,-0.45191192626953125,0.44086265563964844
365,4220190.0,8.703187942504883,-0.6919450759887695,3.645282745361328,0.004261016845703125,0.0021305084228515625,0.01597881317138672,0.33546924591064453,0.6992082595825195,-0.45191192626953125,0.44086265563964844
366,4220190.0,8.703187942504883,-0.6919450759887695,3.645282745361328,0.004261016845703125,0.0021305084228515625,0.01597881317138672,0.33546924591064453,0.6992082595825195,-0.45191192626953125,0.44086265563964844
367,4220210.0,8.66727352142334,-0.7206764221191406,3.6955623626708984,-0.0063915252685546875,-0.0063915252685546875,0.014913558959960938,0.33546924591064453,0.6992082595825195,-0.45191192626953125,0.44086265563964844
368,4220210.0,8.66727352142334,-0.7206764221191406,3.6955623626708984,-0.0063915252685546875,-0.0063915252685546875,0.014913558959960938,0.33546924591064453,0.6992082595825195,-0.45191192626953125,0.44086265563964844
369,4220229.0,8.697202682495117,-0.6919450759887695,3.6704225540161133,0.0010652542114257812,-0.005326271057128906,0.009587287902832031,0.33546924591064453,0.6992082595825195,-0.45191192626953125,0.44086265563964844
370,4220229.0,8.697202682495117,-0.6919450759887695,3.6704225540161133,0.0010652542114257812,-0.005326271057128906,0.009587287902832031,0.33546924591064453,0.6992082595825195,-0.45191192626953125,0.44086265563964844
371,4220249.0,8.722342491149902,-0.7015218734741211,3.684788703918457,0.025567054748535156,-0.00852203369140625,0.0063915252685546875,0.33546924591064453,0.6992082595825195,-0.45191192626953125,0.44086265563964844
372,4220249.0,8.722342491149902,-0.7015218734741211,3.684788703918457,0.025567054748535156,-0.00852203369140625,0.0063915252685546875,0.33546924591064453,0.6992082595825195,-0.45191192626953125,0.44086265563964844
373,4220350.0,8.796565055847168,-0.6512422561645508,3.7350683212280273,0.041545867919921875,-0.034089088439941406,-0.014913558959960938,0.33546924591064453,0.6992082595825195,-0.45191192626953125,0.44086265563964844
374,4220350.0,8.796565055847168,-0.6512422561645508,3.7350683212280273,0.041545867919921875,-0.034089088439941406,-0.014913558959960938,0.33546924591064453,0.6992082595825195,-0.45191192626953125,0.44086265563964844
375,4220370.0,8.68403434753418,-0.67279052734375,3.7314767837524414,0.021305084228515625,-0.021305084228515625,-0.0170440673828125,0.33546924591064453,0.6992082595825195,-0.45191192626953125,0.44086265563964844
376,4220370.0,8.68403434753418,-0.67279052734375,3.7314767837524414,0.021305084228515625,-0.021305084228515625,-0.0170440673828125,0.33546924591064453,0.6992082595825195,-0.45191192626953125,0.44086265563964844
377,4220390.0,8.676851272583008,-0.773350715637207,3.72189998626709,0.022370338439941406,-0.023435592651367188,-0.021305084228515625,0.33546924591064453,0.6992082595825195,-0.45191192626953125,0.44086265563964844
378,4220390.0,8.676851272583008,-0.773350715637207,3.72189998626709,0.022370338439941406,-0.023435592651367188,-0.021305084228515625,0.33546924591064453,0.6992082595825195,-0.45191192626953125,0.44086265563964844
379,4220410.0,8.743890762329102,-0.7218732833862305,3.798516273498535,0.041545867919921875,-0.023435592651367188,-0.021305084228515625,0.33546924591064453,0.6992082595825195,-0.45191192626953125,0.44086265563964844
380,4220410.0,8.743890762329102,-0.7218732833862305,3.798516273498535,0.041545867919921875,-0.023435592651367188,-0.021305084228515625,0.33546924591064453,0.6992082595825195,-0.45191192626953125,0.44086265563964844
381,4220429.0,8.790578842163086,-0.7182817459106445,3.802107810974121,0.02982807159423828,-0.011717796325683594,-0.011717796325683594,0.33546924591064453,0.6992082595825195,-0.45191192626953125,0.44086265563964844
382,4220429.0,8.790578842163086,-0.7182817459106445,3.802107810974121,0.02982807159423828,-0.011717796325683594,-0.011717796325683594,0.33546924591064453,0.6992082595825195,-0.45191192626953125,0.44086265563964844
383,4220449.0,8.747482299804688,-0.6799736022949219,3.77457332611084,-0.011717796325683594,0.0010652542114257812,-0.0010652542114257812,0.33546924591064453,0.6992082595825195,-0.45191192626953125,0.44086265563964844
384,4220449.0,8.747482299804688,-0.6799736022949219,3.77457332611084,-0.011717796325683594,0.0010652542114257812,-0.0010652542114257812,0.33546924591064453,0.6992082595825195,-0.45191192626953125,0.44086265563964844
385,4220569.0,8.725934028625488,-0.7529993057250977,3.6297197341918945,-0.06498241424560547,0.005326271057128906,0.009587287902832031,0.33546924591064453,0.6992082595825195,-0.45191192626953125,0.44086265563964844
386,4220589.0,8.719947814941406,-0.7697591781616211,3.6967592239379883,-0.06498241424560547,0.005326271057128906,0.009587287902832031,0.33546924591064453,0.6992082595825195,-0.45191192626953125,0.44086265563964844
387,4220609.0,8.705582618713379,-0.705113410949707,3.7649965286254883,-0.06498241424560547,0.005326271057128906,0.009587287902832031,0.33546924591064453,0.6992082595825195,-0.45191192626953125,0.44086265563964844
388,4220629.0,8.68403434753418,-0.6751852035522461,3.72189998626709,-0.06498241424560547,0.005326271057128906,0.009587287902832031,0.33546924591064453,0.6992082595825195,-0.45191192626953125,0.44086265563964844
389,4220648.0,8.705582618713379,-0.7015218734741211,3.708730697631836,-0.06498241424560547,0.005326271057128906,0.009587287902832031,0.33546924591064453,0.6992082595825195,-0.45191192626953125,0.44086265563964844
390,4220767.0,9.142537117004395,-0.4046316146850586,4.097800254821777,-0.0170440673828125,-0.005326271057128906,-0.0170440673828125,0.3355560302734375,0.6996831893920898,-0.4510049819946289,0.440948486328125
391,4220767.0,9.142537117004395,-0.4046316146850586,4.097800254821777,-0.0170440673828125,-0.005326271057128906,-0.0170440673828125,0.3355560302734375,0.6996831893920898,-0.4510049819946289,0.440948486328125
392,4220787.0,9.520833015441895,-0.34597206115722656,4.528770446777344,-0.0170440673828125,-0.005326271057128906,-0.0170440673828125,0.3358144760131836,0.6996831893920898,-0.4517822265625,0.4399127960205078
393,4220787.0,9.520833015441895,-0.34597206115722656,4.528770446777344,-0.0170440673828125,-0.005326271057128906,-0.0170440673828125,0.3358144760131836,0.6996831893920898,-0.4517822265625,0.4399127960205078
394,4220807.0,9.938633918762207,-0.1077423095703125,5.595419883728027,-0.0170440673828125,-0.005326271057128906,-0.0170440673828125,0.33646202087402344,0.7002439498901367,-0.45320606231689453,0.4371070861816406
395,4220807.0,9.938633918762207,-0.1077423095703125,5.595419883728027,-0.0170440673828125,-0.005326271057128906,-0.0170440673828125,0.33646202087402344,0.7002439498901367,-0.45320606231689453,0.4371070861816406
396,4220827.0,11.212388038635254,-0.4597005844116211,6.058712005615234,-0.0170440673828125,-0.005326271057128906,-0.0170440673828125,0.3380594253540039,0.7014951705932617,-0.45566654205322266,0.43128108978271484
397,4220827.0,11.212388038635254,-0.4597005844116211,6.058712005615234,-0.0170440673828125,-0.005326271057128906,-0.0170440673828125,0.3380594253540039,0.7014951705932617,-0.45566654205322266,0.43128108978271484
398,4220846.0,12.049186706542969,-1.0690431594848633,5.596616744995117,-0.0170440673828125,-0.005326271057128906,-0.0170440673828125,0.3408212661743164,0.7045164108276367,-0.45894622802734375,0.42049121856689453
399,4220846.0,12.049186706542969,-1.0690431594848633,5.596616744995117,-0.0170440673828125,-0.005326271057128906,-0.0170440673828125,0.3408212661743164,0.7045164108276367,-0.45894622802734375,0.42049121856689453
400,4220967.0,14.163331985473633,-7.358802795410156,8.815718650817871,-0.5837821960449219,2.937023162841797,2.962590217590332,0.3408212661743164,0.7045164108276367,-0.45894622802734375,0.42049121856689453
401,4220987.0,10.916694641113281,-8.597840309143066,8.680442810058594,-0.5837821960449219,2.937023162841797,2.962590217590332,0.3408212661743164,0.7045164108276367,-0.45894622802734375,0.42049121856689453
402,4221007.0,8.079479217529297,-5.813298225402832,9.150917053222656,-0.5837821960449219,2.937023162841797,2.962590217590332,0.3408212661743164,0.7045164108276367,-0.45894622802734375,0.42049121856689453
403,4221027.0,5.967729568481445,-4.021183967590332,7.506051063537598,-0.5837821960449219,2.937023162841797,2.962590217590332,0.3408212661743164,0.7045164108276367,-0.45894622802734375,0.42049121856689453
404,4221046.0,2.3356142044067383,-2.9222116470336914,6.179622650146484,-0.5837821960449219,2.937023162841797,2.962590217590332,0.3408212661743164,0.7045164108276367,-0.45894622802734375,0.42049121856689453
405,4221166.0,-7.721535682678223,-0.4680805206298828,3.1628360748291016,0.3930940628051758,3.440908432006836,2.1518993377685547,0.3408212661743164,0.7045164108276367,-0.45894622802734375,0.42049121856689453
406,4221186.0,-7.99567985534668,-1.5598697662353516,3.550708770751953,0.1438150405883789,3.2949628829956055,2.172140121459961,0.3408212661743164,0.7045164108276367,-0.45894622802734375,0.42049121856689453
407,4221206.0,-9.40471076965332,-1.6125431060791016,3.028757095336914,-0.11824703216552734,3.1255807876586914,2.3074331283569336,0.3408212661743164,0.7045164108276367,-0.45894622802734375,0.42049121856689453
408,4221226.0,-10.683253288269043,-1.1528425216674805,3.299309730529785,0.15446758270263672,2.889084815979004,2.2648210525512695,0.3408212661743164,0.7045164108276367,-0.45894622802734375,0.42049121856689453
409,4221246.0,-10.725152969360352,-0.17238712310791016,3.091008186340332,0.621068000793457,2.536471366882324,2.140181541442871,0.3408212661743164,0.7045164108276367,-0.45894622802734375,0.42049121856689453
410,4221266.0,-11.988133430480957,1.3168506622314453,2.2422380447387695,0.621068000793457,2.536471366882324,2.140181541442871,0.3408212661743164,0.7045164108276367,-0.45894622802734375,0.42049121856689453
411,4221286.0,-12.876408576965332,0.98284912109375,3.27297306060791,0.621068000793457,2.536471366882324,2.140181541442871,0.3408212661743164,0.7045164108276367,-0.45894622802734375,0.42049121856689453
412,4221306.0,-11.492518424987793,-0.15083885192871094,5.960546493530273,0.621068000793457,2.536471366882324,2.140181541442871,0.3408212661743164,0.7045164108276367,-0.45894622802734375,0.42049121856689453
413,4221326.0,-10.648536682128906,0.7841243743896484,7.9741315841674805,0.621068000793457,2.536471366882324,2.140181541442871,0.3408212661743164,0.7045164108276367,-0.45894622802734375,0.42049121856689453
414,4221346.0,-10.552764892578125,0.7613792419433594,9.137748718261719,0.621068000793457,2.536471366882324,2.140181541442871,0.3408212661743164,0.7045164108276367,-0.45894622802734375,0.42049121856689453
415,4221465.0,12.83810043334961,0.6931419372558594,7.348028182983398,0.033023834228515625,-3.510152816772461,-3.9756879806518555,0.3408212661743164,0.7045164108276367,-0.45894622802734375,0.42049121856689453
416,4221485.0,22.604347229003906,-1.9058418273925781,8.56432056427002,0.033023834228515625,-3.510152816772461,-3.9756879806518555,0.10172367095947266,0.9070587158203125,-0.39485645294189453,-0.10483169555664062
417,4221505.0,24.84419059753418,-1.073831558227539,8.827690124511719,0.033023834228515625,-3.510152816772461,-3.9756879806518555,0.10172367095947266,0.9070587158203125,-0.39485645294189453,-0.10483169555664062
418,4221525.0,17.56679344177246,-2.9222116470336914,10.28460693359375,0.033023834228515625,-3.510152816772461,-3.9756879806518555,0.10172367095947266,0.9070587158203125,-0.39485645294189453,-0.10483169555664062
419,4221545.0,-1.5682497024536133,-20.27112579345703,20.655406951904297,0.033023834228515625,-3.510152816772461,-3.9756879806518555,0.10172367095947266,0.9070587158203125,-0.39485645294189453,-0.10483169555664062
420,4221765.0,5.13571834564209,1.915419578552246,7.5431623458862305,0.033023834228515625,-3.510152816772461,-3.9756879806518555,0.10172367095947266,0.9070587158203125,-0.39485645294189453,-0.10483169555664062
421,4221765.0,5.13571834564209,1.915419578552246,7.5431623458862305,0.033023834228515625,-3.510152816772461,-3.9756879806518555,0.10172367095947266,0.9070587158203125,-0.39485645294189453,-0.10483169555664062
422,4221765.0,5.13571834564209,1.915419578552246,7.5431623458862305,0.033023834228515625,-3.510152816772461,-3.9756879806518555,0.10172367095947266,0.9070587158203125,-0.39485645294189453,-0.10483169555664062
423,4221784.0,4.588626861572266,-0.06225109100341797,7.422250747680664,0.033023834228515625,-3.510152816772461,-3.9756879806518555,0.10172367095947266,0.9070587158203125,-0.39485645294189453,-0.10483169555664062
424,4221784.0,4.588626861572266,-0.06225109100341797,7.422250747680664,0.033023834228515625,-3.510152816772461,-3.9756879806518555,0.10172367095947266,0.9070587158203125,-0.39485645294189453,-0.10483169555664062
425,4221784.0,4.588626861572266,-0.06225109100341797,7.422250747680664,0.033023834228515625,-3.510152816772461,-3.9756879806518555,0.10172367095947266,0.9070587158203125,-0.39485645294189453,-0.10483169555664062
426,4221804.0,4.130123138427734,-0.9816522598266602,8.293766975402832,0.033023834228515625,-3.510152816772461,-3.9756879806518555,0.10172367095947266,0.9070587158203125,-0.39485645294189453,-0.10483169555664062
427,4221804.0,4.130123138427734,-0.9816522598266602,8.293766975402832,0.033023834228515625,-3.510152816772461,-3.9756879806518555,0.10172367095947266,0.9070587158203125,-0.39485645294189453,-0.10483169555664062
428,4221804.0,4.130123138427734,-0.9816522598266602,8.293766975402832,0.033023834228515625,-3.510152816772461,-3.9756879806518555,0.10172367095947266,0.9070587158203125,-0.39485645294189453,-0.10483169555664062
429,4221824.0,4.162446022033691,0.028730392456054688,8.740299224853516,0.033023834228515625,-3.510152816772461,-3.9756879806518555,0.10172367095947266,0.9070587158203125,-0.39485645294189453,-0.10483169555664062
430,4221824.0,4.162446022033691,0.028730392456054688,8.740299224853516,0.033023834228515625,-3.510152816772461,-3.9756879806518555,0.10172367095947266,0.9070587158203125,-0.39485645294189453,-0.10483169555664062
431,4221824.0,4.162446022033691,0.028730392456054688,8.740299224853516,0.033023834228515625,-3.510152816772461,-3.9756879806518555,0.10172367095947266,0.9070587158203125,-0.39485645294189453,-0.10483169555664062
432,4221844.0,3.164033889770508,1.7585945129394531,8.384749412536621,0.033023834228515625,-3.510152816772461,-3.9756879806518555,0.10172367095947266,0.9070587158203125,-0.39485645294189453,-0.10483169555664062
433,4221844.0,3.164033889770508,1.7585945129394531,8.384749412536621,0.033023834228515625,-3.510152816772461,-3.9756879806518555,0.10172367095947266,0.9070587158203125,-0.39485645294189453,-0.10483169555664062
434,4221844.0,3.164033889770508,1.7585945129394531,8.384749412536621,0.033023834228515625,-3.510152816772461,-3.9756879806518555,0.10172367095947266,0.9070587158203125,-0.39485645294189453,-0.10483169555664062
435,4222064.0,-2.7402467727661133,2.7665843963623047,9.229928970336914,-0.6040229797363281,-0.5912389755249023,1.268768310546875,0.02783679962158203,0.98931884765625,-0.11777973175048828,-0.08109474182128906
436,4222064.0,-2.7402467727661133,2.7665843963623047,9.229928970336914,-0.6040229797363281,-0.5912389755249023,1.268768310546875,0.02783679962158203,0.98931884765625,-0.11777973175048828,-0.08109474182128906
437,4222083.0,-3.2945213317871094,2.230266571044922,9.040781021118164,-0.6040229797363281,-0.5912389755249023,1.268768310546875,0.02783679962158203,0.98931884765625,-0.11777973175048828,-0.08109474182128906
438,4222083.0,-3.2945213317871094,2.230266571044922,9.040781021118164,-0.6040229797363281,-0.5912389755249023,1.268768310546875,0.02783679962158203,0.98931884765625,-0.11777973175048828,-0.08109474182128906
439,4222103.0,-3.2346649169921875,-0.9325695037841797,8.548757553100586,-0.6040229797363281,-0.5912389755249023,1.268768310546875,0.02783679962158203,0.98931884765625,-0.11777973175048828,-0.08109474182128906
440,4222103.0,-3.2346649169921875,-0.9325695037841797,8.548757553100586,-0.6040229797363281,-0.5912389755249023,1.268768310546875,0.02783679962158203,0.98931884765625,-0.11777973175048828,-0.08109474182128906
441,4222123.0,-1.4652957916259766,-2.502017021179199,9.380767822265625,-0.6040229797363281,-0.5912389755249023,1.268768310546875,0.02783679962158203,0.98931884765625,-0.11777973175048828,-0.08109474182128906
442,4222123.0,-1.4652957916259766,-2.502017021179199,9.380767822265625,-0.6040229797363281,-0.5912389755249023,1.268768310546875,0.02783679962158203,0.98931884765625,-0.11777973175048828,-0.08109474182128906
443,4222143.0,0.20111846923828125,-1.540715217590332,10.559947967529297,-0.6040229797363281,-0.5912389755249023,1.268768310546875,0.02783679962158203,0.98931884765625,-0.11777973175048828,-0.08109474182128906
444,4222143.0,0.20111846923828125,-1.540715217590332,10.559947967529297,-0.6040229797363281,-0.5912389755249023,1.268768310546875,0.02783679962158203,0.98931884765625,-0.11777973175048828,-0.08109474182128906
445,4222163.0,-0.12330436706542969,1.3946647644042969,9.969758987426758,-0.6040229797363281,-0.5912389755249023,1.268768310546875,0.02783679962158203,0.98931884765625,-0.11777973175048828,-0.08109474182128906
446,4222163.0,-0.12330436706542969,1.3946647644042969,9.969758987426758,-0.6040229797363281,-0.5912389755249023,1.268768310546875,0.02783679962158203,0.98931884765625,-0.11777973175048828,-0.08109474182128906
447,4222182.0,-0.33519840240478516,0.2765378952026367,10.12658405303955,-0.6040229797363281,-0.5912389755249023,1.268768310546875,0.02783679962158203,0.98931884765625,-0.11777973175048828,-0.08109474182128906
448,4222182.0,-0.33519840240478516,0.2765378952026367,10.12658405303955,-0.6040229797363281,-0.5912389755249023,1.268768310546875,0.02783679962158203,0.98931884765625,-0.11777973175048828,-0.08109474182128906
449,4222202.0,3.5387372970581055,-4.575458526611328,12.291008949279785,-0.6040229797363281,-0.5912389755249023,1.268768310546875,0.02783679962158203,0.98931884765625,-0.11777973175048828,-0.08109474182128906
450,4222202.0,3.5387372970581055,-4.575458526611328,12.291008949279785,-0.6040229797363281,-0.5912389755249023,1.268768310546875,0.02783679962158203,0.98931884765625,-0.11777973175048828,-0.08109474182128906
451,4222222.0,6.038360595703125,-5.257826805114746,13.465400695800781,-0.6040229797363281,-0.5912389755249023,1.268768310546875,0.02783679962158203,0.98931884765625,-0.11777973175048828,-0.08109474182128906
452,4222222.0,6.038360595703125,-5.257826805114746,13.465400695800781,-0.6040229797363281,-0.5912389755249023,1.268768310546875,0.02783679962158203,0.98931884765625,-0.11777973175048828,-0.08109474182128906
453,4222242.0,4.039140701293945,-3.270578384399414,10.233129501342773,-0.6040229797363281,-0.5912389755249023,1.268768310546875,0.02783679962158203,0.98931884765625,-0.11777973175048828,-0.08109474182128906
454,4222242.0,4.039140701293945,-3.270578384399414,10.233129501342773,-0.6040229797363281,-0.5912389755249023,1.268768310546875,0.02783679962158203,0.98931884765625,-0.11777973175048828,-0.08109474182128906
455,4222263.0,3.9445667266845703,-2.7390499114990234,8.351229667663574,-1.1505203247070312,-2.5982589721679688,-2.9135866165161133,0.02783679962158203,0.98931884765625,-0.11777973175048828,-0.08109474182128906
456,4222283.0,6.0156145095825195,-3.7673912048339844,7.947793960571289,-0.9459829330444336,-2.7601842880249023,-2.84647274017334,0.02783679962158203,0.98931884765625,-0.11777973175048828,-0.08109474182128906
457,4222302.0,8.217150688171387,-3.675210952758789,8.472140312194824,-0.23329925537109375,-2.9082603454589844,-2.787881851196289,0.02783679962158203,0.98931884765625,-0.11777973175048828,-0.08109474182128906
458,4222322.0,9.132960319519043,-1.6855688095092773,8.280598640441895,0.053264617919921875,-3.037160873413086,-2.722898483276367,0.02783679962158203,0.98931884765625,-0.11777973175048828,-0.08109474182128906
459,4222342.0,10.501288414001465,-1.3814964294433594,7.752660751342773,-0.01597881317138672,-3.085099220275879,-2.7005271911621094,0.02783679962158203,0.98931884765625,-0.11777973175048828,-0.08109474182128906
460,4222362.0,11.982147216796875,-1.4640989303588867,7.071490287780762,-0.01597881317138672,-3.085099220275879,-2.7005271911621094,0.02783679962158203,0.98931884765625,-0.11777973175048828,-0.08109474182128906
461,4222382.0,12.64775562286377,-1.4652957916259766,6.785373687744141,-0.01597881317138672,-3.085099220275879,-2.7005271911621094,0.02783679962158203,0.98931884765625,-0.11777973175048828,-0.08109474182128906
462,4222401.0,13.331320762634277,-1.351567268371582,6.712348937988281,-0.01597881317138672,-3.085099220275879,-2.7005271911621094,0.02783679962158203,0.98931884765625,-0.11777973175048828,-0.08109474182128906
463,4222421.0,13.762290954589844,-1.1300973892211914,6.903890609741211,-0.01597881317138672,-3.085099220275879,-2.7005271911621094,0.02783679962158203,0.98931884765625,-0.11777973175048828,-0.08109474182128906
464,4222441.0,13.003305435180664,-0.8679237365722656,6.164059638977051,-0.01597881317138672,-3.085099220275879,-2.7005271911621094,0.02783679962158203,0.98931884765625,-0.11777973175048828,-0.08109474182128906
465,4222462.0,11.757085800170898,-0.6177225112915039,5.332049369812012,-0.11505126953125,-1.2400054931640625,-1.099386215209961,0.02783679962158203,0.98931884765625,-0.11777973175048828,-0.08109474182128906
466,4222462.0,11.757085800170898,-0.6177225112915039,5.332049369812012,-0.11505126953125,-1.2400054931640625,-1.099386215209961,0.02783679962158203,0.98931884765625,-0.11777973175048828,-0.08109474182128906
467,4222482.0,10.933454513549805,-0.2885093688964844,4.664046287536621,-0.060721397399902344,-0.8479757308959961,-0.5848474502563477,0.02783679962158203,0.98931884765625,-0.11777973175048828,-0.08109474182128906
468,4222482.0,10.933454513549805,-0.2885093688964844,4.664046287536621,-0.060721397399902344,-0.8479757308959961,-0.5848474502563477,0.02783679962158203,0.98931884765625,-0.11777973175048828,-0.08109474182128906
469,4222501.0,11.012466430664062,0.019153594970703125,4.313285827636719,0.20453643798828125,-0.5763254165649414,-0.054329872131347656,0.02783679962158203,0.98931884765625,-0.11777973175048828,-0.08109474182128906
470,4222501.0,11.012466430664062,0.019153594970703125,4.313285827636719,0.20453643798828125,-0.5763254165649414,-0.054329872131347656,0.02783679962158203,0.98931884765625,-0.11777973175048828,-0.08109474182128906
471,4222521.0,10.654521942138672,0.5207538604736328,3.6297197341918945,0.4197263717651367,-0.2535400390625,0.4080085754394531,0.02783679962158203,0.98931884765625,-0.11777973175048828,-0.08109474182128906
472,4222521.0,10.654521942138672,0.5207538604736328,3.6297197341918945,0.4197263717651367,-0.2535400390625,0.4080085754394531,0.02783679962158203,0.98931884765625,-0.11777973175048828,-0.08109474182128906
473,4222541.0,9.721952438354492,0.9146127700805664,2.927000045776367,0.5731296539306641,0.005326271057128906,0.7297277450561523,0.02783679962158203,0.98931884765625,-0.11777973175048828,-0.08109474182128906
474,4222541.0,9.721952438354492,0.9146127700805664,2.927000045776367,0.5731296539306641,0.005326271057128906,0.7297277450561523,0.02783679962158203,0.98931884765625,-0.11777973175048828,-0.08109474182128906
475,4222761.0,8.921067237854004,1.1336889266967773,2.8300323486328125,0.2311687469482422,0.4261178970336914,0.6807241439819336,0.2706022262573242,0.6906623840332031,-0.4291238784790039,0.5153970718383789
476,4222761.0,8.921067237854004,1.1336889266967773,2.8300323486328125,0.2311687469482422,0.4261178970336914,0.6807241439819336,0.2706022262573242,0.6906623840332031,-0.4291238784790039,0.5153970718383789
477,4222761.0,8.921067237854004,1.1336889266967773,2.8300323486328125,0.2311687469482422,0.4261178970336914,0.6807241439819336,0.2706022262573242,0.6906623840332031,-0.4291238784790039,0.5153970718383789
478,4222781.0,8.936630249023438,0.888275146484375,2.9940404891967773,0.2311687469482422,0.4261178970336914,0.6807241439819336,0.2706022262573242,0.6906623840332031,-0.4291238784790039,0.5153970718383789
479,4222781.0,8.936630249023438,0.888275146484375,2.9940404891967773,0.2311687469482422,0.4261178970336914,0.6807241439819336,0.2706022262573242,0.6906623840332031,-0.4291238784790039,0.5153970718383789
480,4222781.0,8.936630249023438,0.888275146484375,2.9940404891967773,0.2311687469482422,0.4261178970336914,0.6807241439819336,0.2706022262573242,0.6906623840332031,-0.4291238784790039,0.5153970718383789
481,4222800.0,8.989303588867188,0.6428623199462891,3.1089649200439453,0.2311687469482422,0.4261178970336914,0.6807241439819336,0.2706022262573242,0.6906623840332031,-0.4291238784790039,0.5153970718383789
482,4222800.0,8.989303588867188,0.6428623199462891,3.1089649200439453,0.2311687469482422,0.4261178970336914,0.6807241439819336,0.2706022262573242,0.6906623840332031,-0.4291238784790039,0.5153970718383789
483,4222800.0,8.989303588867188,0.6428623199462891,3.1089649200439453,0.2311687469482422,0.4261178970336914,0.6807241439819336,0.2706022262573242,0.6906623840332031,-0.4291238784790039,0.5153970718383789
484,4222820.0,9.02521800994873,0.7254648208618164,3.1963558197021484,0.2311687469482422,0.4261178970336914,0.6807241439819336,0.2706022262573242,0.6906623840332031,-0.4291238784790039,0.5153970718383789
485,4222820.0,9.02521800994873,0.7254648208618164,3.1963558197021484,0.2311687469482422,0.4261178970336914,0.6807241439819336,0.2706022262573242,0.6906623840332031,-0.4291238784790039,0.5153970718383789
486,4222820.0,9.02521800994873,0.7254648208618164,3.1963558197021484,0.2311687469482422,0.4261178970336914,0.6807241439819336,0.2706022262573242,0.6906623840332031,-0.4291238784790039,0.5153970718383789
487,4222840.0,8.931840896606445,0.8308124542236328,3.1353025436401367,0.2311687469482422,0.4261178970336914,0.6807241439819336,0.2706022262573242,0.6906623840332031,-0.4291238784790039,0.5153970718383789
488,4222840.0,8.931840896606445,0.8308124542236328,3.1353025436401367,0.2311687469482422,0.4261178970336914,0.6807241439819336,0.2706022262573242,0.6906623840332031,-0.4291238784790039,0.5153970718383789
489,4222840.0,8.931840896606445,0.8308124542236328,3.1353025436401367,0.2311687469482422,0.4261178970336914,0.6807241439819336,0.2706022262573242,0.6906623840332031,-0.4291238784790039,0.5153970718383789
490,4222960.0,8.952192306518555,0.47167205810546875,3.1987504959106445,0.042611122131347656,0.061786651611328125,0.04793834686279297,0.2706022262573242,0.6906623840332031,-0.4291238784790039,0.5153970718383789
491,4222980.0,9.014443397521973,0.5087833404541016,3.2753677368164062,0.0021305084228515625,0.04474163055419922,0.057525634765625,0.2706022262573242,0.6906623840332031,-0.4291238784790039,0.5153970718383789
492,4222999.0,8.962966918945312,0.5327253341674805,3.308887481689453,-0.08841896057128906,0.03941535949707031,0.057525634765625,0.2706022262573242,0.6906623840332031,-0.4291238784790039,0.5153970718383789
493,4223019.0,8.881561279296875,0.43815135955810547,3.2717761993408203,-0.13422679901123047,0.05646038055419922,0.04367637634277344,0.2706022262573242,0.6906623840332031,-0.4291238784790039,0.5153970718383789
494,4223039.0,8.831281661987305,0.30048084259033203,3.246636390686035,-0.0916147232055664,0.04474163055419922,0.03515434265136719,0.2706022262573242,0.6906623840332031,-0.4291238784790039,0.5153970718383789
495,4223160.0,8.75586223602295,0.21428680419921875,3.3160696029663086,-0.12570476531982422,0.019174575805664062,0.04793834686279297,0.2683582305908203,0.6980857849121094,-0.43102264404296875,0.5048656463623047
496,4223180.0,8.893532752990723,0.24780654907226562,3.4286012649536133,-0.1320962905883789,0.0031957626342773438,0.04687213897705078,0.2683582305908203,0.6980857849121094,-0.43102264404296875,0.5048656463623047
497,4223199.0,8.95578384399414,0.2968893051147461,3.46331787109375,-0.18536090850830078,0.0031957626342773438,0.04367637634277344,0.2683582305908203,0.6980857849121094,-0.43102264404296875,0.5048656463623047
498,4223219.0,8.860013008117676,0.22146987915039062,3.5423288345336914,-0.24501800537109375,0.019174575805664062,0.05113410949707031,0.2683582305908203,0.6980857849121094,-0.43102264404296875,0.5048656463623047
499,4223239.0,8.810930252075195,0.026336669921875,3.46212100982666,-0.2599315643310547,0.03515434265136719,0.060721397399902344,0.2683582305908203,0.6980857849121094,-0.43102264404296875,0.5048656463623047
500,4223259.0,8.871984481811523,0.01197052001953125,3.4716978073120117,-0.2599315643310547,0.03515434265136719,0.060721397399902344,0.2683582305908203,0.6980857849121094,-0.43102264404296875,0.5048656463623047
501,4223279.0,8.921067237854004,0.17717552185058594,3.579440116882324,-0.2599315643310547,0.03515434265136719,0.060721397399902344,0.2683582305908203,0.6980857849121094,-0.43102264404296875,0.5048656463623047
502,4223299.0,8.90311050415039,0.37949180603027344,3.58303165435791,-0.2599315643310547,0.03515434265136719,0.060721397399902344,0.2683582305908203,0.6980857849121094,-0.43102264404296875,0.5048656463623047
503,4223318.0,8.810930252075195,0.32442378997802734,3.586623191833496,-0.2599315643310547,0.03515434265136719,0.060721397399902344,0.2683582305908203,0.6980857849121094,-0.43102264404296875,0.5048656463623047
504,4223338.0,8.83487319946289,-0.07422161102294922,3.3783206939697266,-0.2599315643310547,0.03515434265136719,0.060721397399902344,0.2683582305908203,0.6980857849121094,-0.43102264404296875,0.5048656463623047
505,4223359.0,8.709174156188965,-0.0790109634399414,3.3950815200805664,-0.3110666275024414,0.07350540161132812,0.040480613708496094,0.2683582305908203,0.6980857849121094,-0.43102264404296875,0.5048656463623047
506,4223379.0,8.719947814941406,-0.0035905838012695312,3.51479434967041,-0.18536090850830078,0.03835010528564453,0.03835010528564453,0.2683582305908203,0.6980857849121094,-0.43102264404296875,0.5048656463623047
507,4223399.0,8.909095764160156,0.010773658752441406,3.556694984436035,-0.14807605743408203,0.014913558959960938,0.034089088439941406,0.2683582305908203,0.6980857849121094,-0.43102264404296875,0.5048656463623047
508,4223418.0,8.88634967803955,-0.06225109100341797,3.536343574523926,-0.10652923583984375,0.02982807159423828,0.031958580017089844,0.2683582305908203,0.6980857849121094,-0.43102264404296875,0.5048656463623047
509,4223438.0,8.791776657104492,-0.015562057495117188,3.5399351119995117,-0.05006885528564453,0.010652542114257812,0.033023834228515625,0.2683582305908203,0.6980857849121094,-0.43102264404296875,0.5048656463623047
510,4223558.0,8.80494499206543,0.022745132446289062,3.605776786804199,-0.05006885528564453,0.010652542114257812,0.033023834228515625,0.29438304901123047,0.6979131698608398,-0.4405174255371094,0.48186302185058594
511,4223558.0,8.80494499206543,0.022745132446289062,3.605776786804199,-0.05006885528564453,0.010652542114257812,0.033023834228515625,0.29438304901123047,0.6979131698608398,-0.4405174255371094,0.48186302185058594
512,4223578.0,8.893532752990723,0.03471660614013672,3.612959861755371,-0.05006885528564453,0.010652542114257812,0.033023834228515625,0.29438304901123047,0.6979131698608398,-0.4405174255371094,0.48186302185058594
513,4223578.0,8.893532752990723,0.03471660614013672,3.612959861755371,-0.05006885528564453,0.010652542114257812,0.033023834228515625,0.29438304901123047,0.6979131698608398,-0.4405174255371094,0.48186302185058594
514,4223598.0,8.877969741821289,-0.046688079833984375,3.5782432556152344,-0.05006885528564453,0.010652542114257812,0.033023834228515625,0.29438304901123047,0.6979131698608398,-0.4405174255371094,0.48186302185058594
515,4223598.0,8.877969741821289,-0.046688079833984375,3.5782432556152344,-0.05006885528564453,0.010652542114257812,0.033023834228515625,0.29438304901123047,0.6979131698608398,-0.4405174255371094,0.48186302185058594
516,4223617.0,8.76663589477539,-0.08499622344970703,3.595003128051758,-0.05006885528564453,0.010652542114257812,0.033023834228515625,0.29438304901123047,0.6979131698608398,-0.4405174255371094,0.48186302185058594
517,4223617.0,8.76663589477539,-0.08499622344970703,3.595003128051758,-0.05006885528564453,0.010652542114257812,0.033023834228515625,0.29438304901123047,0.6979131698608398,-0.4405174255371094,0.48186302185058594
518,4223637.0,8.80614185333252,-0.07422161102294922,3.565074920654297,-0.05006885528564453,0.010652542114257812,0.033023834228515625,0.29438304901123047,0.6979131698608398,-0.4405174255371094,0.48186302185058594
519,4223637.0,8.80614185333252,-0.07422161102294922,3.565074920654297,-0.05006885528564453,0.010652542114257812,0.033023834228515625,0.29438304901123047,0.6979131698608398,-0.4405174255371094,0.48186302185058594
520,4223658.0,8.85642147064209,-0.09577083587646484,3.6261281967163086,-0.03728485107421875,-0.01597881317138672,-0.0170440673828125,0.29438304901123047,0.6979131698608398,-0.4405174255371094,0.48186302185058594
521,4223678.0,8.882759094238281,-0.06344795227050781,3.590214729309082,-0.041545867919921875,-0.010652542114257812,-0.01810932159423828,0.29438304901123047,0.6979131698608398,-0.4405174255371094,0.48186302185058594
522,4223698.0,8.788185119628906,-0.10295295715332031,3.580636978149414,-0.0287628173828125,0.0021305084228515625,-0.0170440673828125,0.29438304901123047,0.6979131698608398,-0.4405174255371094,0.48186302185058594
523,4223717.0,8.727130889892578,-0.1185159683227539,3.5734548568725586,-0.033023834228515625,-0.007456779479980469,-0.01597881317138672,0.29438304901123047,0.6979131698608398,-0.4405174255371094,0.48186302185058594
524,4223737.0,8.809733390808105,-0.1185159683227539,3.6021862030029297,-0.03941535949707031,-0.010652542114257812,-0.013848304748535156,0.29438304901123047,0.6979131698608398,-0.4405174255371094,0.48186302185058594
525,4223857.0,8.851633071899414,-0.14245891571044922,3.554300308227539,-0.03941535949707031,-0.010652542114257812,-0.013848304748535156,0.29818058013916016,0.697352409362793,-0.44306468963623047,0.4779787063598633
526,4223857.0,8.851633071899414,-0.14245891571044922,3.554300308227539,-0.03941535949707031,-0.010652542114257812,-0.013848304748535156,0.29818058013916016,0.697352409362793,-0.44306468963623047,0.4779787063598633
527,4223877.0,8.857619285583496,-0.06344795227050781,3.5973968505859375,-0.03941535949707031,-0.010652542114257812,-0.013848304748535156,0.29818058013916016,0.697352409362793,-0.44306468963623047,0.4779787063598633
528,4223877.0,8.857619285583496,-0.06344795227050781,3.5973968505859375,-0.03941535949707031,-0.010652542114257812,-0.013848304748535156,0.29818058013916016,0.697352409362793,-0.44306468963623047,0.4779787063598633
529,4223897.0,8.808536529541016,-0.1915416717529297,3.621339797973633,-0.03941535949707031,-0.010652542114257812,-0.013848304748535156,0.29818058013916016,0.697352409362793,-0.44306468963623047,0.4779787063598633
530,4223897.0,8.808536529541016,-0.1915416717529297,3.621339797973633,-0.03941535949707031,-0.010652542114257812,-0.013848304748535156,0.29818058013916016,0.697352409362793,-0.44306468963623047,0.4779787063598633
531,4223916.0,8.771425247192383,-0.2023153305053711,3.5662717819213867,-0.03941535949707031,-0.010652542114257812,-0.013848304748535156,0.29818058013916016,0.697352409362793,-0.44306468963623047,0.4779787063598633
532,4223916.0,8.771425247192383,-0.2023153305053711,3.5662717819213867,-0.03941535949707031,-0.010652542114257812,-0.013848304748535156,0.29818058013916016,0.697352409362793,-0.44306468963623047,0.4779787063598633
533,4223936.0,8.845647811889648,-0.08020782470703125,3.6321144104003906,-0.03941535949707031,-0.010652542114257812,-0.013848304748535156,0.29818058013916016,0.697352409362793,-0.44306468963623047,0.4779787063598633
534,4223936.0,8.845647811889648,-0.08020782470703125,3.6321144104003906,-0.03941535949707031,-0.010652542114257812,-0.013848304748535156,0.29818058013916016,0.697352409362793,-0.44306468963623047,0.4779787063598633
535,4223956.0,8.8336763381958,-0.08858776092529297,3.605776786804199,0.0063915252685546875,-0.013848304748535156,0.004261016845703125,0.29818058013916016,0.697352409362793,-0.44306468963623047,0.4779787063598633
536,4223976.0,8.814521789550781,-0.09577083587646484,3.618946075439453,-0.022370338439941406,-0.014913558959960938,0.012783050537109375,0.29818058013916016,0.697352409362793,-0.44306468963623047,0.4779787063598633
537,4223996.0,8.808536529541016,-0.11133289337158203,3.6069746017456055,-0.024501800537109375,0.0,0.00852203369140625,0.29818058013916016,0.697352409362793,-0.44306468963623047,0.4779787063598633
538,4224015.0,8.800156593322754,-0.10055923461914062,3.6021862030029297,-0.023435592651367188,0.0010652542114257812,0.010652542114257812,0.29818058013916016,0.697352409362793,-0.44306468963623047,0.4779787063598633
539,4224035.0,8.809733390808105,-0.11372756958007812,3.6045799255371094,-0.01597881317138672,0.0021305084228515625,0.014913558959960938,0.29818058013916016,0.697352409362793,-0.44306468963623047,0.4779787063598633
540,4224057.0,8.813324928283691,-0.05267333984375,3.5985946655273438,-0.01597881317138672,0.0021305084228515625,0.014913558959960938,0.29818058013916016,0.697352409362793,-0.44306468963623047,0.4779787063598633
541,4224077.0,8.83607006072998,-0.13767051696777344,3.5961999893188477,-0.01597881317138672,0.0021305084228515625,0.014913558959960938,0.29818058013916016,0.697352409362793,-0.44306468963623047,0.4779787063598633
542,4224097.0,8.814521789550781,-0.16640186309814453,3.5447235107421875,-0.01597881317138672,0.0021305084228515625,0.014913558959960938,0.29818058013916016,0.697352409362793,-0.44306468963623047,0.4779787063598633
543,4224116.0,8.791776657104492,-0.09337615966796875,3.5782432556152344,-0.01597881317138672,0.0021305084228515625,0.014913558959960938,0.29818058013916016,0.697352409362793,-0.44306468963623047,0.4779787063598633
544,4224136.0,8.83487319946289,0.010773658752441406,3.6321144104003906,-0.01597881317138672,0.0021305084228515625,0.014913558959960938,0.29818058013916016,0.697352409362793,-0.44306468963623047,0.4779787063598633
545,4224156.0,8.864801406860352,-0.015562057495117188,3.6105661392211914,-0.03621959686279297,-0.021305084228515625,-0.007456779479980469,0.29818058013916016,0.697352409362793,-0.44306468963623047,0.4779787063598633
546,4224176.0,8.812127113342285,-0.11372756958007812,3.562680244445801,-0.05006885528564453,-0.011717796325683594,-0.012783050537109375,0.29818058013916016,0.697352409362793,-0.44306468963623047,0.4779787063598633
547,4224196.0,8.761847496032715,-0.12689590454101562,3.5710601806640625,-0.0063915252685546875,-0.011717796325683594,-0.019174575805664062,0.29818058013916016,0.697352409362793,-0.44306468963623047,0.4779787063598633
548,4224215.0,8.777410507202148,-0.05626487731933594,3.5961999893188477,0.019174575805664062,-0.023435592651367188,-0.01810932159423828,0.29818058013916016,0.697352409362793,-0.44306468963623047,0.4779787063598633
549,4224235.0,8.810930252075195,-0.032321929931640625,3.591411590576172,0.0010652542114257812,-0.024501800537109375,-0.01810932159423828,0.29818058013916016,0.697352409362793,-0.44306468963623047,0.4779787063598633
550,4224256.0,8.877969741821289,-0.07781314849853516,3.5782432556152344,-0.011717796325683594,-0.023435592651367188,-0.019174575805664062,0.29818058013916016,0.697352409362793,-0.44306468963623047,0.4779787063598633
551,4224276.0,8.916278839111328,-0.12330436706542969,3.5758485794067383,-0.0063915252685546875,-0.011717796325683594,-0.011717796325683594,0.29818058013916016,0.697352409362793,-0.44306468963623047,0.4779787063598633
552,4224296.0,8.837267875671387,-0.1316843032836914,3.554300308227539,0.0063915252685546875,-0.0031957626342773438,-0.009587287902832031,0.29818058013916016,0.697352409362793,-0.44306468963623047,0.4779787063598633
553,4224315.0,8.858816146850586,-0.08619308471679688,3.557891845703125,0.01597881317138672,-0.011717796325683594,-0.0031957626342773438,0.29818058013916016,0.697352409362793,-0.44306468963623047,0.4779787063598633
554,4224335.0,8.907898902893066,-0.08260154724121094,3.6009883880615234,-0.0031957626342773438,-0.013848304748535156,0.0021305084228515625,0.29818058013916016,0.697352409362793,-0.44306468963623047,0.4779787063598633
555,4224355.0,8.883955955505371,-0.0682363510131836,3.5722570419311523,-0.0031957626342773438,-0.013848304748535156,0.0021305084228515625,0.29818058013916016,0.697352409362793,-0.44306468963623047,0.4779787063598633
556,4224375.0,8.812127113342285,-0.07541942596435547,3.584228515625,-0.0031957626342773438,-0.013848304748535156,0.0021305084228515625,0.29818058013916016,0.697352409362793,-0.44306468963623047,0.4779787063598633
557,4224395.0,8.789381980895996,-0.07063102722167969,3.5746517181396484,-0.0031957626342773438,-0.013848304748535156,0.0021305084228515625,0.29818058013916016,0.697352409362793,-0.44306468963623047,0.4779787063598633
558,4224415.0,8.864801406860352,-0.20949840545654297,3.5483150482177734,-0.0031957626342773438,-0.013848304748535156,0.0021305084228515625,0.29818058013916016,0.697352409362793,-0.44306468963623047,0.4779787063598633
559,4224434.0,8.80733871459961,-0.2633695602416992,3.527963638305664,-0.0031957626342773438,-0.013848304748535156,0.0021305084228515625,0.29818058013916016,0.697352409362793,-0.44306468963623047,0.4779787063598633
560,4224455.0,8.80494499206543,-0.1053476333618164,3.524372100830078,0.03835010528564453,-0.014913558959960938,-0.01597881317138672,0.29818058013916016,0.697352409362793,-0.44306468963623047,0.4779787063598633
561,4224475.0,8.844449996948242,-0.03471660614013672,3.591411590576172,0.014913558959960938,-0.014913558959960938,-0.013848304748535156,0.29818058013916016,0.697352409362793,-0.44306468963623047,0.4779787063598633
562,4224495.0,8.800156593322754,-0.07422161102294922,3.5171890258789062,-0.041545867919921875,-0.012783050537109375,-0.00852203369140625,0.29818058013916016,0.697352409362793,-0.44306468963623047,0.4779787063598633
563,4224515.0,8.78339672088623,-0.09816455841064453,3.5375404357910156,-0.060721397399902344,-0.012783050537109375,-0.007456779479980469,0.29818058013916016,0.697352409362793,-0.44306468963623047,0.4779787063598633
564,4224534.0,8.893532752990723,-0.19872474670410156,3.5375404357910156,-0.05646038055419922,-0.023435592651367188,-0.007456779479980469,0.29818058013916016,0.697352409362793,-0.44306468963623047,0.4779787063598633
565,4224554.0,8.879167556762695,-0.22386455535888672,3.5375404357910156,-0.011717796325683594,-0.019174575805664062,-0.010652542114257812,0.29818058013916016,0.697352409362793,-0.44306468963623047,0.4779787063598633
566,4224574.0,8.777410507202148,-0.19633007049560547,3.556694984436035,0.04793834686279297,-0.033023834228515625,-0.00852203369140625,0.29818058013916016,0.697352409362793,-0.44306468963623047,0.4779787063598633
567,4224594.0,8.797761917114258,-0.08858776092529297,3.589016914367676,0.06604766845703125,-0.03941535949707031,-0.01810932159423828,0.29818058013916016,0.697352409362793,-0.44306468963623047,0.4779787063598633
568,4224614.0,8.889941215515137,-0.025139808654785156,3.6069746017456055,0.02769756317138672,-0.03835010528564453,-0.021305084228515625,0.29818058013916016,0.697352409362793,-0.44306468963623047,0.4779787063598633
569,4224633.0,8.860013008117676,-0.038308143615722656,3.5985946655273438,-0.03941535949707031,-0.021305084228515625,-0.0170440673828125,0.29818058013916016,0.697352409362793,-0.44306468963623047,0.4779787063598633
570,4224654.0,8.818113327026367,-0.15203571319580078,3.6440858840942383,-0.03941535949707031,-0.021305084228515625,-0.0170440673828125,0.29818058013916016,0.697352409362793,-0.44306468963623047,0.4779787063598633
571,4224674.0,8.832478523254395,-0.22745609283447266,3.591411590576172,-0.03941535949707031,-0.021305084228515625,-0.0170440673828125,0.29818058013916016,0.697352409362793,-0.44306468963623047,0.4779787063598633
