,timestamp,accel_x,accel_y,accel_z,gyro_x,gyro_y,gyro_z,ori_scalar,ori_x,ori_y,ori_z
0,5179663.0,8.731919288635254,-0.34836673736572266,3.678802490234375,0.09267997741699219,-0.061786651611328125,0.030893325805664062,0.3499279022216797,0.6683502197265625,-0.5000333786010742,0.42519569396972656
1,5179683.0,8.618191719055176,-0.41660308837890625,3.5016260147094727,0.09267997741699219,-0.061786651611328125,0.030893325805664062,0.3499279022216797,0.6683502197265625,-0.5000333786010742,0.42519569396972656
2,5179703.0,8.633753776550293,-0.4776573181152344,3.3843069076538086,0.09267997741699219,-0.061786651611328125,0.030893325805664062,0.3499279022216797,0.6683502197265625,-0.5000333786010742,0.42519569396972656
3,5179723.0,8.6349515914917,-0.4656858444213867,3.5159921646118164,0.09267997741699219,-0.061786651611328125,0.030893325805664062,0.3499279022216797,0.6683502197265625,-0.5000333786010742,0.42519569396972656
4,5179742.0,8.582277297973633,-0.38188648223876953,3.741053581237793,0.09267997741699219,-0.061786651611328125,0.030893325805664062,0.3499279022216797,0.6683502197265625,-0.5000333786010742,0.42519569396972656
5,5179762.0,8.682836532592773,-0.41181468963623047,3.6548595428466797,0.09267997741699219,-0.061786651611328125,0.030893325805664062,0.3499279022216797,0.6683502197265625,-0.5000333786010742,0.42519569396972656
6,5179782.0,8.75586223602295,-0.42977142333984375,3.627326011657715,0.09267997741699219,-0.061786651611328125,0.030893325805664062,0.34975528717041016,0.6686515808105469,-0.4991273880004883,0.42597293853759766
7,5179802.0,8.660091400146484,-0.4644889831542969,3.8188676834106445,0.060721397399902344,-0.0745706558227539,-0.019174575805664062,0.3495826721191406,0.668522834777832,-0.49865245819091797,0.4269218444824219
8,5179824.0,8.731919288635254,-0.6763820648193359,3.919426918029785,0.02982807159423828,-0.10120296478271484,-0.04367637634277344,0.3495826721191406,0.668522834777832,-0.49865245819091797,0.4269218444824219
9,5179844.0,8.640936851501465,-0.5770196914672852,3.8703441619873047,0.09587669372558594,-0.10120296478271484,-0.0692434310913086,0.3495826721191406,0.668522834777832,-0.49865245819091797,0.4269218444824219
10,5179863.0,8.385946273803711,-0.5039939880371094,3.836824417114258,0.13422679901123047,-0.08735370635986328,-0.0809621810913086,0.3495826721191406,0.668522834777832,-0.49865245819091797,0.4269218444824219
11,5179883.0,8.49728012084961,-0.5997657775878906,3.871541976928711,0.09694194793701172,-0.11611652374267578,-0.10652923583984375,0.3495826721191406,0.668522834777832,-0.49865245819091797,0.4269218444824219
12,5179903.0,8.690019607543945,-0.6272993087768555,3.865555763244629,0.04367637634277344,-0.10865974426269531,-0.12890052795410156,0.3495826721191406,0.668522834777832,-0.49865245819091797,0.4269218444824219
13,5180152.0,8.721144676208496,-0.7553930282592773,3.5997915267944336,-0.0916147232055664,-0.05113410949707031,0.04793834686279297,0.3523874282836914,0.6588983535766602,-0.5037021636962891,0.4336118698120117
14,5180171.0,8.798958778381348,-0.8140525817871094,3.5854263305664062,-0.08309268951416016,-0.06498241424560547,0.04367637634277344,0.3523874282836914,0.6588983535766602,-0.5037021636962891,0.4336118698120117
15,5180191.0,8.789381980895996,-0.8906698226928711,3.621339797973633,-0.031958580017089844,-0.07030868530273438,0.03621959686279297,0.3523874282836914,0.6588983535766602,-0.5037021636962891,0.4336118698120117
16,5180211.0,8.742693901062012,-0.8320102691650391,3.683590888977051,0.03941535949707031,-0.08309268951416016,0.022370338439941406,0.3523874282836914,0.6588983535766602,-0.5037021636962891,0.4336118698120117
17,5180231.0,8.775016784667969,-0.7134933471679688,3.768588066101074,0.054329872131347656,-0.08309268951416016,0.01597881317138672,0.3523874282836914,0.6588983535766602,-0.5037021636962891,0.4336118698120117
18,5180252.0,8.71635627746582,-0.6943387985229492,3.6380996704101562,0.054329872131347656,-0.08309268951416016,0.01597881317138672,0.3523874282836914,0.6588983535766602,-0.5037021636962891,0.4336118698120117
19,5180271.0,8.599037170410156,-0.7266616821289062,3.623734474182129,0.054329872131347656,-0.08309268951416016,0.01597881317138672,0.3639106750488281,0.6570425033569336,-0.501154899597168,0.42977046966552734
20,5180291.0,8.71515941619873,-0.8272218704223633,3.656057357788086,0.054329872131347656,-0.08309268951416016,0.01597881317138672,0.3647737503051758,0.6567831039428711,-0.5009822845458984,0.4296846389770508
21,5180311.0,8.810930252075195,-0.7913074493408203,3.7386598587036133,0.054329872131347656,-0.08309268951416016,0.01597881317138672,0.3656806945800781,0.656524658203125,-0.5006370544433594,0.4296407699584961
22,5180331.0,8.776213645935059,-0.6320877075195312,3.7602081298828125,0.054329872131347656,-0.08309268951416016,0.01597881317138672,0.3660259246826172,0.6565675735473633,-0.5000762939453125,0.4299001693725586
23,5180451.0,8.960572242736816,-0.5997657775878906,3.6620426177978516,0.07563591003417969,-0.04367637634277344,-0.026632308959960938,0.36563682556152344,0.6566104888916016,-0.4980478286743164,0.4326190948486328
24,5180471.0,8.942615509033203,-0.5171632766723633,3.733870506286621,0.07563591003417969,-0.04367637634277344,-0.026632308959960938,0.36563682556152344,0.6566104888916016,-0.4980478286743164,0.4326190948486328
25,5180490.0,8.851633071899414,-0.4644889831542969,3.605776786804199,0.07563591003417969,-0.04367637634277344,-0.026632308959960938,0.36563682556152344,0.6566104888916016,-0.4980478286743164,0.4326190948486328
26,5180510.0,8.771425247192383,-0.5973711013793945,3.4872608184814453,0.07563591003417969,-0.04367637634277344,-0.026632308959960938,0.36563682556152344,0.6566104888916016,-0.4980478286743164,0.4326190948486328
27,5180530.0,8.840858459472656,-0.6811704635620117,3.4693031311035156,0.07563591003417969,-0.04367637634277344,-0.026632308959960938,0.36563682556152344,0.6566104888916016,-0.4980478286743164,0.4326190948486328
28,5180750.0,8.691216468811035,-0.6284961700439453,3.3591670989990234,0.07883167266845703,-0.04687213897705078,-0.06711292266845703,0.3609762191772461,0.6564817428588867,-0.49748706817626953,0.4373664855957031
29,5180770.0,8.828887939453125,-0.5327253341674805,3.4142351150512695,0.057525634765625,-0.052199363708496094,-0.07030868530273438,0.36054420471191406,0.6562652587890625,-0.4972715377807617,0.4381427764892578
30,5180790.0,8.855224609375,-0.5051918029785156,3.423811912536621,0.009587287902832031,-0.04900360107421875,-0.0692434310913086,0.36028575897216797,0.6559638977050781,-0.497314453125,0.4389200210571289
31,5180809.0,8.825296401977539,-0.5279369354248047,3.4214181900024414,-0.033023834228515625,-0.04900360107421875,-0.0628519058227539,0.36032867431640625,0.6554450988769531,-0.4975728988647461,0.43930816650390625
32,5180829.0,8.87437915802002,-0.5758228302001953,3.468106269836426,-0.05859088897705078,-0.05539512634277344,-0.05113410949707031,0.3606739044189453,0.654841423034668,-0.49791812896728516,0.43956756591796875
33,5180949.0,8.812127113342285,-0.3699150085449219,3.589016914367676,-0.009587287902832031,0.007456779479980469,0.03941535949707031,0.3611917495727539,0.6542367935180664,-0.49817752838134766,0.4396533966064453
34,5180969.0,8.745087623596191,-0.3124523162841797,3.5758485794067383,-0.04367637634277344,0.013848304748535156,0.03835010528564453,0.36334991455078125,0.6544532775878906,-0.49770259857177734,0.43809986114501953
35,5180989.0,8.724736213684082,-0.3699150085449219,3.5339488983154297,-0.09694194793701172,0.021305084228515625,0.034089088439941406,0.3637380599975586,0.6545820236206055,-0.4978322982788086,0.4374523162841797
36,5181008.0,8.757059097290039,-0.46329212188720703,3.5447235107421875,-0.09374523162841797,0.022370338439941406,0.019174575805664062,0.36434268951416016,0.6545391082763672,-0.49822044372558594,0.43658924102783203
37,5181028.0,8.794170379638672,-0.5267400741577148,3.4788808822631836,-0.03621959686279297,0.022370338439941406,0.0170440673828125,0.3647308349609375,0.6545391082763672,-0.498565673828125,0.4358558654785156
38,5181049.0,8.80494499206543,-0.41660308837890625,3.433389663696289,-0.03621959686279297,0.022370338439941406,0.0170440673828125,0.36481761932373047,0.6547117233276367,-0.49865245819091797,0.4354238510131836
39,5181069.0,8.758255958557129,-0.4070262908935547,3.379518508911133,-0.03621959686279297,0.022370338439941406,0.0170440673828125,0.36481761932373047,0.6547117233276367,-0.49865245819091797,0.4354238510131836
40,5181089.0,8.880364418029785,-0.5566682815551758,3.3555755615234375,-0.03621959686279297,0.022370338439941406,0.0170440673828125,0.36481761932373047,0.6547117233276367,-0.49865245819091797,0.4354238510131836
41,5181109.0,8.919870376586914,-0.5387115478515625,3.3914899826049805,-0.03621959686279297,0.022370338439941406,0.0170440673828125,0.36481761932373047,0.6547117233276367,-0.49865245819091797,0.4354238510131836
42,5181128.0,8.921067237854004,-0.5626544952392578,3.3304357528686523,-0.03621959686279297,0.022370338439941406,0.0170440673828125,0.36481761932373047,0.6547117233276367,-0.49865245819091797,0.4354238510131836
43,5181348.0,8.916278839111328,-0.578216552734375,3.436981201171875,0.025567054748535156,-0.033023834228515625,0.014913558959960938,0.3652486801147461,0.6541509628295898,-0.49947261810302734,0.43499279022216797
44,5181348.0,8.916278839111328,-0.578216552734375,3.436981201171875,0.025567054748535156,-0.033023834228515625,0.014913558959960938,0.3652486801147461,0.6541509628295898,-0.49947261810302734,0.43499279022216797
45,5181368.0,8.825296401977539,-0.6165256500244141,3.459726333618164,-0.011717796325683594,-0.031958580017089844,0.0170440673828125,0.3652486801147461,0.6541509628295898,-0.49947261810302734,0.43499279022216797
46,5181368.0,8.825296401977539,-0.6165256500244141,3.459726333618164,-0.011717796325683594,-0.031958580017089844,0.0170440673828125,0.3652486801147461,0.6541509628295898,-0.49947261810302734,0.43499279022216797
47,5181388.0,8.88634967803955,-0.6057510375976562,3.4453611373901367,-0.020239830017089844,-0.03621959686279297,0.014913558959960938,0.3652486801147461,0.6541509628295898,-0.49947261810302734,0.43499279022216797
48,5181388.0,8.88634967803955,-0.6057510375976562,3.4453611373901367,-0.020239830017089844,-0.03621959686279297,0.014913558959960938,0.3652486801147461,0.6541509628295898,-0.49947261810302734,0.43499279022216797
49,5181408.0,8.892335891723633,-0.6512422561645508,3.460923194885254,-0.013848304748535156,-0.031958580017089844,0.021305084228515625,0.3652486801147461,0.6541509628295898,-0.49947261810302734,0.43499279022216797
50,5181408.0,8.892335891723633,-0.6512422561645508,3.460923194885254,-0.013848304748535156,-0.031958580017089844,0.021305084228515625,0.3652486801147461,0.6541509628295898,-0.49947261810302734,0.43499279022216797
51,5181427.0,8.87437915802002,-0.6356792449951172,3.5112037658691406,0.012783050537109375,-0.0287628173828125,0.025567054748535156,0.3652486801147461,0.6541509628295898,-0.49947261810302734,0.43499279022216797
52,5181427.0,8.87437915802002,-0.6356792449951172,3.5112037658691406,0.012783050537109375,-0.0287628173828125,0.025567054748535156,0.3652486801147461,0.6541509628295898,-0.49947261810302734,0.43499279022216797
53,5181448.0,8.885152816772461,-0.584202766418457,3.5782432556152344,0.012783050537109375,-0.0287628173828125,0.025567054748535156,0.3652486801147461,0.6541509628295898,-0.49947261810302734,0.43499279022216797
54,5181448.0,8.885152816772461,-0.584202766418457,3.5782432556152344,0.012783050537109375,-0.0287628173828125,0.025567054748535156,0.3652486801147461,0.6541509628295898,-0.49947261810302734,0.43499279022216797
55,5181468.0,8.95458698272705,-0.4920225143432617,3.4764862060546875,0.012783050537109375,-0.0287628173828125,0.025567054748535156,0.3652486801147461,0.6541509628295898,-0.49947261810302734,0.43499279022216797
56,5181468.0,8.95458698272705,-0.4920225143432617,3.4764862060546875,0.012783050537109375,-0.0287628173828125,0.025567054748535156,0.3652486801147461,0.6541509628295898,-0.49947261810302734,0.43499279022216797
57,5181488.0,8.8767728805542,-0.5016002655029297,3.5016260147094727,0.012783050537109375,-0.0287628173828125,0.025567054748535156,0.3652486801147461,0.6541509628295898,-0.49947261810302734,0.43499279022216797
58,5181488.0,8.8767728805542,-0.5016002655029297,3.5016260147094727,0.012783050537109375,-0.0287628173828125,0.025567054748535156,0.3652486801147461,0.6541509628295898,-0.49947261810302734,0.43499279022216797
59,5181508.0,8.842056274414062,-0.578216552734375,3.5064144134521484,0.012783050537109375,-0.0287628173828125,0.025567054748535156,0.3652486801147461,0.6541509628295898,-0.49947261810302734,0.43499279022216797
60,5181508.0,8.842056274414062,-0.578216552734375,3.5064144134521484,0.012783050537109375,-0.0287628173828125,0.025567054748535156,0.3652486801147461,0.6541509628295898,-0.49947261810302734,0.43499279022216797
61,5181528.0,8.939023971557617,-0.5961742401123047,3.51479434967041,0.012783050537109375,-0.0287628173828125,0.025567054748535156,0.3652486801147461,0.6541509628295898,-0.49947261810302734,0.43499279022216797
62,5181528.0,8.939023971557617,-0.5961742401123047,3.51479434967041,0.012783050537109375,-0.0287628173828125,0.025567054748535156,0.3652486801147461,0.6541509628295898,-0.49947261810302734,0.43499279022216797
63,5181647.0,8.880364418029785,-0.5626544952392578,3.3878984451293945,-0.013848304748535156,0.025567054748535156,0.0170440673828125,0.3652486801147461,0.6541509628295898,-0.49947261810302734,0.43499279022216797
64,5181667.0,8.792973518371582,-0.6536369323730469,3.397475242614746,-0.021305084228515625,0.024501800537109375,0.023435592651367188,0.3690032958984375,0.6554889678955078,-0.4965801239013672,0.4331369400024414
65,5181687.0,8.860013008117676,-0.6308908462524414,3.390292167663574,0.0031957626342773438,0.011717796325683594,0.019174575805664062,0.36913299560546875,0.6556615829467773,-0.4965801239013672,0.43274879455566406
66,5181707.0,8.92705249786377,-0.5758228302001953,3.405855178833008,0.01597881317138672,0.0170440673828125,0.019174575805664062,0.36909008026123047,0.6558771133422852,-0.49645137786865234,0.4326190948486328
67,5181727.0,8.749876022338867,-0.5758228302001953,3.345998764038086,-0.012783050537109375,0.0287628173828125,0.021305084228515625,0.3690462112426758,0.656092643737793,-0.4963216781616211,0.432403564453125
68,5181746.0,8.842056274414062,-0.6416654586791992,3.338815689086914,-0.031958580017089844,0.012783050537109375,0.019174575805664062,0.36913299560546875,0.6562223434448242,-0.4963645935058594,0.43205833435058594
69,5181766.0,8.956981658935547,-0.6715936660766602,3.397475242614746,-0.012783050537109375,0.005326271057128906,0.0170440673828125,0.36913299560546875,0.6562223434448242,-0.4963645935058594,0.43205833435058594
70,5181786.0,8.921067237854004,-0.6548337936401367,3.4070520401000977,0.02982807159423828,0.007456779479980469,0.014913558959960938,0.36913299560546875,0.6562223434448242,-0.4963645935058594,0.43205833435058594
71,5181806.0,8.837267875671387,-0.6045541763305664,3.3507871627807617,0.030893325805664062,0.004261016845703125,0.007456779479980469,0.36913299560546875,0.6562223434448242,-0.4963645935058594,0.43205833435058594
72,5181826.0,8.792973518371582,-0.610539436340332,3.430994987487793,-0.007456779479980469,0.005326271057128906,-0.004261016845703125,0.36913299560546875,0.6562223434448242,-0.4963645935058594,0.43205833435058594
73,5181946.0,8.90670108795166,-0.5818080902099609,3.4453611373901367,0.01597881317138672,-0.0063915252685546875,-0.0021305084228515625,0.36913299560546875,0.6562223434448242,-0.4963645935058594,0.43205833435058594
74,5181966.0,8.868392944335938,-0.6237077713012695,3.426206588745117,-0.0170440673828125,-0.0021305084228515625,0.0,0.3696937561035156,0.6568269729614258,-0.49593353271484375,0.43123817443847656
75,5181986.0,8.837267875671387,-0.6344823837280273,3.441769599914551,-0.034089088439941406,-0.004261016845703125,-0.01597881317138672,0.3698234558105469,0.6567401885986328,-0.4960193634033203,0.4311084747314453
76,5182006.0,8.92585563659668,-0.6835651397705078,3.3843069076538086,-0.0287628173828125,-0.014913558959960938,-0.012783050537109375,0.3700389862060547,0.6565675735473633,-0.4962787628173828,0.43097877502441406
77,5182026.0,8.934235572814941,-0.7027187347412109,3.4477548599243164,-0.0063915252685546875,-0.011717796325683594,-0.013848304748535156,0.3702116012573242,0.6563949584960938,-0.4963645935058594,0.43097877502441406
78,5182046.0,8.891139030456543,-0.6691989898681641,3.4094467163085938,-0.0063915252685546875,-0.011717796325683594,-0.013848304748535156,0.3702554702758789,0.6563091278076172,-0.4963645935058594,0.43102169036865234
79,5182066.0,8.819310188293457,-0.6440591812133789,3.4130382537841797,-0.0063915252685546875,-0.011717796325683594,-0.013848304748535156,0.3702554702758789,0.6563091278076172,-0.4963645935058594,0.43102169036865234
80,5182086.0,8.830084800720215,-0.6715936660766602,3.4357833862304688,-0.0063915252685546875,-0.011717796325683594,-0.013848304748535156,0.3702554702758789,0.6563091278076172,-0.4963645935058594,0.43102169036865234
81,5182106.0,8.880364418029785,-0.6691989898681641,3.4800777435302734,-0.0063915252685546875,-0.011717796325683594,-0.013848304748535156,0.3702554702758789,0.6563091278076172,-0.4963645935058594,0.43102169036865234
82,5182126.0,8.8336763381958,-0.6596221923828125,3.4776830673217773,-0.0063915252685546875,-0.011717796325683594,-0.013848304748535156,0.3702554702758789,0.6563091278076172,-0.4963645935058594,0.43102169036865234
83,5182245.0,8.837267875671387,-0.5734281539916992,3.459726333618164,0.007456779479980469,-0.0010652542114257812,0.011717796325683594,0.3702554702758789,0.6563091278076172,-0.4963645935058594,0.43102169036865234
84,5182264.0,8.828887939453125,-0.6201162338256836,3.4489526748657227,-0.025567054748535156,0.0021305084228515625,0.0063915252685546875,0.3708162307739258,0.6574735641479492,-0.4947681427001953,0.43054771423339844
85,5182284.0,8.758255958557129,-0.682368278503418,3.4214181900024414,-0.02982807159423828,0.0010652542114257812,0.0063915252685546875,0.3709888458251953,0.6573877334594727,-0.49494075775146484,0.4303750991821289
86,5182304.0,8.849238395690918,-0.6919450759887695,3.4429664611816406,-0.0031957626342773438,-0.00852203369140625,0.0,0.37116146087646484,0.6573448181152344,-0.4950704574584961,0.4302024841308594
87,5182324.0,8.900715827941895,-0.6512422561645508,3.423811912536621,0.023435592651367188,-0.005326271057128906,0.007456779479980469,0.37111854553222656,0.6574306488037109,-0.4949836730957031,0.4301586151123047
88,5182445.0,8.871984481811523,-0.6296939849853516,3.401066780090332,-0.007456779479980469,-0.0170440673828125,-0.01597881317138672,0.3709888458251953,0.6575174331665039,-0.49489784240722656,0.43028831481933594
89,5182464.0,8.88634967803955,-0.6596221923828125,3.436981201171875,-0.012783050537109375,-0.0170440673828125,-0.014913558959960938,0.3709888458251953,0.6575174331665039,-0.49489784240722656,0.43028831481933594
90,5182484.0,8.832478523254395,-0.6703968048095703,3.433389663696289,-0.012783050537109375,-0.009587287902832031,-0.010652542114257812,0.3709888458251953,0.6575174331665039,-0.49489784240722656,0.43028831481933594
91,5182504.0,8.830084800720215,-0.6835651397705078,3.4250097274780273,-0.007456779479980469,-0.009587287902832031,-0.0021305084228515625,0.3709888458251953,0.6575174331665039,-0.49489784240722656,0.43028831481933594
92,5182524.0,8.822901725769043,-0.6524391174316406,3.4070520401000977,-0.0021305084228515625,-0.010652542114257812,0.007456779479980469,0.3709888458251953,0.6575174331665039,-0.49489784240722656,0.43028831481933594
93,5182544.0,8.837267875671387,-0.6703968048095703,3.4489526748657227,-0.0031957626342773438,-0.010652542114257812,0.012783050537109375,0.3709888458251953,0.6575174331665039,-0.49489784240722656,0.43028831481933594
94,5182564.0,8.849238395690918,-0.6536369323730469,3.4465579986572266,-0.007456779479980469,-0.007456779479980469,0.010652542114257812,0.3709888458251953,0.6575174331665039,-0.49489784240722656,0.43028831481933594
95,5182583.0,8.788185119628906,-0.6512422561645508,3.4070520401000977,-0.013848304748535156,-0.0021305084228515625,0.014913558959960938,0.3709888458251953,0.6575174331665039,-0.49489784240722656,0.43028831481933594
96,5182603.0,8.816916465759277,-0.6763820648193359,3.4752893447875977,-0.0170440673828125,-0.0031957626342773438,0.012783050537109375,0.3709888458251953,0.6575174331665039,-0.49489784240722656,0.43028831481933594
97,5182623.0,8.85402774810791,-0.7194786071777344,3.470500946044922,-0.0063915252685546875,-0.0031957626342773438,0.014913558959960938,0.3709888458251953,0.6575174331665039,-0.49489784240722656,0.43028831481933594
98,5182644.0,8.827690124511719,-0.6739873886108398,3.3962783813476562,-0.0063915252685546875,-0.0031957626342773438,0.014913558959960938,0.3709888458251953,0.6575174331665039,-0.49489784240722656,0.43028831481933594
99,5182664.0,8.846844673156738,-0.7110986709594727,3.4178266525268555,-0.0063915252685546875,-0.0031957626342773438,0.014913558959960938,0.37215423583984375,0.6570425033569336,-0.4948539733886719,0.42998600006103516
100,5182683.0,8.864801406860352,-0.6656074523925781,3.423811912536621,-0.0063915252685546875,-0.0031957626342773438,0.014913558959960938,0.37215423583984375,0.6570854187011719,-0.4948110580444336,0.42998600006103516
101,5182703.0,8.822901725769043,-0.6919450759887695,3.4393749237060547,-0.0063915252685546875,-0.0031957626342773438,0.014913558959960938,0.372283935546875,0.6569995880126953,-0.49489784240722656,0.4298572540283203
102,5182723.0,8.837267875671387,-0.7326478958129883,3.3771238327026367,-0.0063915252685546875,-0.0031957626342773438,0.014913558959960938,0.37245655059814453,0.6569557189941406,-0.4950265884399414,0.42977046966552734
103,5182843.0,8.827690124511719,-0.5961742401123047,3.3783206939697266,-0.0021305084228515625,0.0010652542114257812,-0.0063915252685546875,0.3724994659423828,0.6569128036499023,-0.4950704574584961,0.42972755432128906
104,5182863.0,8.7654390335083,-0.5806112289428711,3.372335433959961,0.0010652542114257812,-0.0010652542114257812,-0.010652542114257812,0.3724994659423828,0.6569128036499023,-0.4950704574584961,0.42972755432128906
105,5182882.0,8.7869873046875,-0.6201162338256836,3.4154319763183594,-0.004261016845703125,-0.0063915252685546875,-0.01810932159423828,0.3724994659423828,0.6569128036499023,-0.4950704574584961,0.42972755432128906
106,5182902.0,8.794170379638672,-0.6284961700439453,3.3543787002563477,0.0010652542114257812,-0.0063915252685546875,-0.019174575805664062,0.3724994659423828,0.6569128036499023,-0.4950704574584961,0.42972755432128906
107,5182922.0,8.791776657104492,-0.5626544952392578,3.3412094116210938,0.009587287902832031,-0.00852203369140625,-0.023435592651367188,0.3724994659423828,0.6569128036499023,-0.4950704574584961,0.42972755432128906
108,5182942.0,8.901912689208984,-0.5650482177734375,3.3543787002563477,0.0,-0.012783050537109375,-0.030893325805664062,0.3724994659423828,0.6569128036499023,-0.4950704574584961,0.42972755432128906
109,5183043.0,8.935432434082031,-0.519556999206543,3.379518508911133,0.0,-0.012783050537109375,-0.030893325805664062,0.37241268157958984,0.6551437377929688,-0.49666690826416016,0.4305906295776367
110,5183043.0,8.935432434082031,-0.519556999206543,3.379518508911133,0.0,-0.012783050537109375,-0.030893325805664062,0.37241268157958984,0.6551437377929688,-0.49666690826416016,0.4305906295776367
111,5183063.0,8.852829933166504,-0.584202766418457,3.367547035217285,0.0,-0.012783050537109375,-0.030893325805664062,0.37241268157958984,0.6551437377929688,-0.49666690826416016,0.4305906295776367
112,5183063.0,8.852829933166504,-0.584202766418457,3.367547035217285,0.0,-0.012783050537109375,-0.030893325805664062,0.37241268157958984,0.6551437377929688,-0.49666690826416016,0.4305906295776367
113,5183083.0,8.885152816772461,-0.5937795639038086,3.39388370513916,0.0,-0.012783050537109375,-0.030893325805664062,0.37241268157958984,0.6551437377929688,-0.49666690826416016,0.4305906295776367
114,5183083.0,8.885152816772461,-0.5937795639038086,3.39388370513916,0.0,-0.012783050537109375,-0.030893325805664062,0.37241268157958984,0.6551437377929688,-0.49666690826416016,0.4305906295776367
115,5183102.0,8.850436210632324,-0.6500453948974609,3.4465579986572266,0.0,-0.012783050537109375,-0.030893325805664062,0.37241268157958984,0.6551437377929688,-0.49666690826416016,0.4305906295776367
116,5183102.0,8.850436210632324,-0.6500453948974609,3.4465579986572266,0.0,-0.012783050537109375,-0.030893325805664062,0.37241268157958984,0.6551437377929688,-0.49666690826416016,0.4305906295776367
117,5183122.0,8.771425247192383,-0.6584253311157227,3.408249855041504,0.0,-0.012783050537109375,-0.030893325805664062,0.37241268157958984,0.6551437377929688,-0.49666690826416016,0.4305906295776367
118,5183122.0,8.771425247192383,-0.6584253311157227,3.408249855041504,0.0,-0.012783050537109375,-0.030893325805664062,0.37241268157958984,0.6551437377929688,-0.49666690826416016,0.4305906295776367
119,5183142.0,8.803747177124023,-0.5901880264282227,3.4214181900024414,0.0,-0.012783050537109375,-0.030893325805664062,0.37241268157958984,0.6551437377929688,-0.49666690826416016,0.4305906295776367
120,5183142.0,8.803747177124023,-0.5901880264282227,3.4214181900024414,0.0,-0.012783050537109375,-0.030893325805664062,0.37241268157958984,0.6551437377929688,-0.49666690826416016,0.4305906295776367
121,5183161.0,8.749876022338867,-0.5399084091186523,3.525568962097168,0.0,-0.012783050537109375,-0.030893325805664062,0.37241268157958984,0.6551437377929688,-0.49666690826416016,0.4305906295776367
122,5183181.0,8.697202682495117,-0.6428623199462891,3.5351457595825195,0.0,-0.012783050537109375,-0.030893325805664062,0.37241268157958984,0.6551437377929688,-0.49666690826416016,0.4305906295776367
123,5183200.0,8.83607006072998,-0.7374362945556641,3.5088090896606445,0.0,-0.012783050537109375,-0.030893325805664062,0.37241268157958984,0.6551437377929688,-0.49666690826416016,0.4305906295776367
124,5183220.0,8.956981658935547,-0.8188419342041016,3.489654541015625,0.0,-0.012783050537109375,-0.030893325805664062,0.37241268157958984,0.6551437377929688,-0.49666690826416016,0.4305906295776367
125,5183241.0,9.000078201293945,-0.8715152740478516,3.5171890258789062,-0.08415794372558594,0.025567054748535156,0.03621959686279297,0.37241268157958984,0.6551437377929688,-0.49666690826416016,0.4305906295776367
126,5183261.0,9.040781021118164,-0.7398300170898438,3.500429153442383,0.011717796325683594,0.019174575805664062,0.0287628173828125,0.37241268157958984,0.6551437377929688,-0.49666690826416016,0.4305906295776367
127,5183281.0,8.898321151733398,-0.6201162338256836,3.5171890258789062,0.021305084228515625,0.030893325805664062,0.022370338439941406,0.37241268157958984,0.6551437377929688,-0.49666690826416016,0.4305906295776367
128,5183300.0,8.87557601928711,-0.7254648208618164,3.460923194885254,-0.021305084228515625,0.023435592651367188,0.01597881317138672,0.37241268157958984,0.6551437377929688,-0.49666690826416016,0.4305906295776367
129,5183320.0,8.992895126342773,-0.7158880233764648,3.4764862060546875,-0.00852203369140625,0.0170440673828125,0.021305084228515625,0.37241268157958984,0.6551437377929688,-0.49666690826416016,0.4305906295776367
130,5183340.0,8.868392944335938,-0.6943387985229492,3.4573326110839844,0.0031957626342773438,0.024501800537109375,0.03515434265136719,0.37241268157958984,0.6551437377929688,-0.49666690826416016,0.4305906295776367
131,5183361.0,8.728327751159668,-0.731450080871582,3.3914899826049805,0.0063915252685546875,0.025567054748535156,0.03941535949707031,0.37241268157958984,0.6551437377929688,-0.49666690826416016,0.4305906295776367
132,5183381.0,8.760650634765625,-0.7290563583374023,3.3843069076538086,0.02982807159423828,0.020239830017089844,0.03728485107421875,0.37241268157958984,0.6551437377929688,-0.49666690826416016,0.4305906295776367
133,5183400.0,8.849238395690918,-0.7027187347412109,3.375926971435547,0.04687213897705078,0.0170440673828125,0.041545867919921875,0.37241268157958984,0.6551437377929688,-0.49666690826416016,0.4305906295776367
134,5183420.0,8.871984481811523,-0.7099018096923828,3.3663501739501953,0.034089088439941406,0.013848304748535156,0.04900360107421875,0.37241268157958984,0.6551437377929688,-0.49666690826416016,0.4305906295776367
135,5183440.0,8.771425247192383,-0.7218732833862305,3.3890953063964844,0.010652542114257812,0.013848304748535156,0.04793834686279297,0.37241268157958984,0.6551437377929688,-0.49666690826416016,0.4305906295776367
136,5183560.0,8.809733390808105,-0.8894729614257812,3.502823829650879,0.034089088439941406,0.012783050537109375,0.10546398162841797,0.37241268157958984,0.6551437377929688,-0.49666690826416016,0.4305906295776367
137,5183560.0,8.809733390808105,-0.8894729614257812,3.502823829650879,0.034089088439941406,0.012783050537109375,0.10546398162841797,0.37241268157958984,0.6551437377929688,-0.49666690826416016,0.4305906295776367
138,5183580.0,8.782198905944824,-0.855952262878418,3.5124006271362305,0.03728485107421875,0.0170440673828125,0.11398601531982422,0.37241268157958984,0.6551437377929688,-0.49666690826416016,0.4305906295776367
139,5183580.0,8.782198905944824,-0.855952262878418,3.5124006271362305,0.03728485107421875,0.0170440673828125,0.11398601531982422,0.37241268157958984,0.6551437377929688,-0.49666690826416016,0.4305906295776367
140,5183600.0,8.753467559814453,-0.8164472579956055,3.51479434967041,0.01810932159423828,0.01810932159423828,0.11718177795410156,0.37241268157958984,0.6551437377929688,-0.49666690826416016,0.4305906295776367
141,5183600.0,8.753467559814453,-0.8164472579956055,3.51479434967041,0.01810932159423828,0.01810932159423828,0.11718177795410156,0.37241268157958984,0.6551437377929688,-0.49666690826416016,0.4305906295776367
142,5183619.0,8.646923065185547,-0.7769412994384766,3.5602855682373047,0.0031957626342773438,0.019174575805664062,0.09267997741699219,0.37241268157958984,0.6551437377929688,-0.49666690826416016,0.4305906295776367
143,5183619.0,8.646923065185547,-0.7769412994384766,3.5602855682373047,0.0031957626342773438,0.019174575805664062,0.09267997741699219,0.37241268157958984,0.6551437377929688,-0.49666690826416016,0.4305906295776367
144,5183639.0,8.68762493133545,-0.8236303329467773,3.527963638305664,-0.024501800537109375,0.01810932159423828,0.08309268951416016,0.37241268157958984,0.6551437377929688,-0.49666690826416016,0.4305906295776367
145,5183639.0,8.68762493133545,-0.8236303329467773,3.527963638305664,-0.024501800537109375,0.01810932159423828,0.08309268951416016,0.37241268157958984,0.6551437377929688,-0.49666690826416016,0.4305906295776367
146,5183660.0,8.698399543762207,-0.8212356567382812,3.470500946044922,-0.024501800537109375,0.01810932159423828,0.08309268951416016,0.37241268157958984,0.6551437377929688,-0.49666690826416016,0.4305906295776367
147,5183680.0,8.662485122680664,-0.8583469390869141,3.489654541015625,-0.024501800537109375,0.01810932159423828,0.08309268951416016,0.37241268157958984,0.6551437377929688,-0.49666690826416016,0.4305906295776367
148,5183700.0,8.767833709716797,-0.8607416152954102,3.434586524963379,-0.024501800537109375,0.01810932159423828,0.08309268951416016,0.37241268157958984,0.6551437377929688,-0.49666690826416016,0.4305906295776367
149,5183719.0,8.830084800720215,-0.8535585403442383,3.4226150512695312,-0.024501800537109375,0.01810932159423828,0.08309268951416016,0.37241268157958984,0.6551437377929688,-0.49666690826416016,0.4305906295776367
150,5183739.0,8.769030570983887,-0.8655300140380859,3.4429664611816406,-0.024501800537109375,0.01810932159423828,0.08309268951416016,0.37241268157958984,0.6551437377929688,-0.49666690826416016,0.4305906295776367
151,5183859.0,8.92705249786377,-0.9589061737060547,3.423811912536621,-0.014913558959960938,-0.031958580017089844,0.041545867919921875,0.37241268157958984,0.6551437377929688,-0.49666690826416016,0.4305906295776367
152,5183859.0,8.92705249786377,-0.9589061737060547,3.423811912536621,-0.014913558959960938,-0.031958580017089844,0.041545867919921875,0.37241268157958984,0.6551437377929688,-0.49666690826416016,0.4305906295776367
153,5183879.0,8.90311050415039,-0.9601039886474609,3.3783206939697266,-0.004261016845703125,-0.031958580017089844,0.042611122131347656,0.37241268157958984,0.6551437377929688,-0.49666690826416016,0.4305906295776367
154,5183879.0,8.90311050415039,-0.9601039886474609,3.3783206939697266,-0.004261016845703125,-0.031958580017089844,0.042611122131347656,0.37241268157958984,0.6551437377929688,-0.49666690826416016,0.4305906295776367
155,5183899.0,8.83607006072998,-0.9840459823608398,3.4489526748657227,-0.0063915252685546875,-0.03728485107421875,0.03515434265136719,0.37241268157958984,0.6551437377929688,-0.49666690826416016,0.4305906295776367
156,5183899.0,8.83607006072998,-0.9840459823608398,3.4489526748657227,-0.0063915252685546875,-0.03728485107421875,0.03515434265136719,0.37241268157958984,0.6551437377929688,-0.49666690826416016,0.4305906295776367
157,5183918.0,8.819310188293457,-0.920598030090332,3.5195837020874023,-0.007456779479980469,-0.041545867919921875,0.02769756317138672,0.37241268157958984,0.6551437377929688,-0.49666690826416016,0.4305906295776367
158,5183918.0,8.819310188293457,-0.920598030090332,3.5195837020874023,-0.007456779479980469,-0.041545867919921875,0.02769756317138672,0.37241268157958984,0.6551437377929688,-0.49666690826416016,0.4305906295776367
159,5183938.0,8.779805183410645,-0.9541177749633789,3.4764862060546875,-0.01810932159423828,-0.03728485107421875,0.01810932159423828,0.37241268157958984,0.6551437377929688,-0.49666690826416016,0.4305906295776367
160,5183938.0,8.779805183410645,-0.9541177749633789,3.4764862060546875,-0.01810932159423828,-0.03728485107421875,0.01810932159423828,0.37241268157958984,0.6551437377929688,-0.49666690826416016,0.4305906295776367
161,5183959.0,8.711567878723145,-0.946934700012207,3.5303573608398438,-0.01810932159423828,-0.03728485107421875,0.01810932159423828,0.37241268157958984,0.6551437377929688,-0.49666690826416016,0.4305906295776367
162,5183979.0,8.71635627746582,-0.950526237487793,3.53155517578125,-0.01810932159423828,-0.03728485107421875,0.01810932159423828,0.37241268157958984,0.6551437377929688,-0.49666690826416016,0.4305906295776367
163,5183999.0,8.71515941619873,-0.9170064926147461,3.5447235107421875,-0.01810932159423828,-0.03728485107421875,0.01810932159423828,0.37241268157958984,0.6551437377929688,-0.49666690826416016,0.4305906295776367
164,5184019.0,8.707976341247559,-0.9445409774780273,3.4908523559570312,-0.01810932159423828,-0.03728485107421875,0.01810932159423828,0.37241268157958984,0.6551437377929688,-0.49666690826416016,0.4305906295776367
165,5184038.0,8.778607368469238,-0.9409494400024414,3.5112037658691406,-0.01810932159423828,-0.03728485107421875,0.01810932159423828,0.37241268157958984,0.6551437377929688,-0.49666690826416016,0.4305906295776367
166,5184059.0,8.860013008117676,-0.9277811050415039,3.518385887145996,-0.02982807159423828,-0.005326271057128906,0.00852203369140625,0.37241268157958984,0.6551437377929688,-0.49666690826416016,0.4305906295776367
167,5184079.0,8.828887939453125,-0.9756660461425781,3.484866142272949,-0.033023834228515625,0.004261016845703125,0.01597881317138672,0.37241268157958984,0.6551437377929688,-0.49666690826416016,0.4305906295776367
168,5184099.0,8.794170379638672,-0.9517240524291992,3.401066780090332,-0.033023834228515625,0.0010652542114257812,0.020239830017089844,0.37241268157958984,0.6551437377929688,-0.49666690826416016,0.4305906295776367
169,5184119.0,8.844449996948242,-1.0175666809082031,3.432191848754883,-0.023435592651367188,-0.0010652542114257812,0.019174575805664062,0.37241268157958984,0.6551437377929688,-0.49666690826416016,0.4305906295776367
170,5184138.0,8.917475700378418,-1.0043973922729492,3.4465579986572266,0.0021305084228515625,-0.0063915252685546875,0.0170440673828125,0.37241268157958984,0.6551437377929688,-0.49666690826416016,0.4305906295776367
171,5184158.0,8.883955955505371,-0.9337663650512695,3.433389663696289,0.0021305084228515625,-0.0063915252685546875,0.0170440673828125,0.37241268157958984,0.6551437377929688,-0.49666690826416016,0.4305906295776367
172,5184178.0,8.721144676208496,-0.9265842437744141,3.4154319763183594,0.0021305084228515625,-0.0063915252685546875,0.0170440673828125,0.37241268157958984,0.6551437377929688,-0.49666690826416016,0.4305906295776367
173,5184198.0,8.66607666015625,-0.9577093124389648,3.4178266525268555,0.0021305084228515625,-0.0063915252685546875,0.0170440673828125,0.37241268157958984,0.6551437377929688,-0.49666690826416016,0.4305906295776367
174,5184218.0,8.80494499206543,-1.015172004699707,3.390292167663574,0.0021305084228515625,-0.0063915252685546875,0.0170440673828125,0.37241268157958984,0.6551437377929688,-0.49666690826416016,0.4305906295776367
175,5184237.0,8.901912689208984,-0.9852437973022461,3.4441633224487305,0.0021305084228515625,-0.0063915252685546875,0.0170440673828125,0.37241268157958984,0.6551437377929688,-0.49666690826416016,0.4305906295776367
176,5184357.0,8.80494499206543,-0.9421463012695312,3.440572738647461,0.03941535949707031,-0.021305084228515625,-0.026632308959960938,0.3831596374511719,0.6620922088623047,-0.48885536193847656,0.41923999786376953
177,5184377.0,8.73670768737793,-0.9840459823608398,3.4250097274780273,0.019174575805664062,-0.012783050537109375,-0.024501800537109375,0.3831596374511719,0.6620922088623047,-0.48885536193847656,0.41923999786376953
178,5184397.0,8.743890762329102,-1.022355079650879,3.4453611373901367,0.011717796325683594,-0.010652542114257812,-0.020239830017089844,0.3831596374511719,0.6620922088623047,-0.48885536193847656,0.41923999786376953
179,5184417.0,8.840858459472656,-1.0103836059570312,3.436981201171875,0.012783050537109375,-0.007456779479980469,-0.0021305084228515625,0.3831596374511719,0.6620922088623047,-0.48885536193847656,0.41923999786376953
180,5184437.0,8.798958778381348,-0.9960174560546875,3.4130382537841797,-0.0021305084228515625,0.0063915252685546875,0.013848304748535156,0.3831596374511719,0.6620922088623047,-0.48885536193847656,0.41923999786376953
181,5184556.0,9.104228973388672,-1.103759765625,3.470500946044922,-0.0021305084228515625,0.0063915252685546875,0.013848304748535156,0.3830299377441406,0.6636886596679688,-0.48656749725341797,0.4196281433105469
182,5184556.0,9.104228973388672,-1.103759765625,3.470500946044922,-0.0021305084228515625,0.0063915252685546875,0.013848304748535156,0.3830299377441406,0.6636886596679688,-0.48656749725341797,0.4196281433105469
183,5184556.0,9.104228973388672,-1.103759765625,3.470500946044922,-0.0021305084228515625,0.0063915252685546875,0.013848304748535156,0.3830299377441406,0.6636886596679688,-0.48656749725341797,0.4196281433105469
184,5184576.0,9.159296989440918,-1.1875600814819336,3.460923194885254,-0.0021305084228515625,0.0063915252685546875,0.013848304748535156,0.3830299377441406,0.6636886596679688,-0.48656749725341797,0.4196281433105469
185,5184576.0,9.159296989440918,-1.1875600814819336,3.460923194885254,-0.0021305084228515625,0.0063915252685546875,0.013848304748535156,0.3830299377441406,0.6636886596679688,-0.48656749725341797,0.4196281433105469
186,5184576.0,9.159296989440918,-1.1875600814819336,3.460923194885254,-0.0021305084228515625,0.0063915252685546875,0.013848304748535156,0.3830299377441406,0.6636886596679688,-0.48656749725341797,0.4196281433105469
187,5184596.0,9.4968900680542,-1.7789459228515625,3.5770463943481445,-0.0021305084228515625,0.0063915252685546875,0.013848304748535156,0.3830299377441406,0.6636886596679688,-0.48656749725341797,0.4196281433105469
188,5184596.0,9.4968900680542,-1.7789459228515625,3.5770463943481445,-0.0021305084228515625,0.0063915252685546875,0.013848304748535156,0.3830299377441406,0.6636886596679688,-0.48656749725341797,0.4196281433105469
189,5184596.0,9.4968900680542,-1.7789459228515625,3.5770463943481445,-0.0021305084228515625,0.0063915252685546875,0.013848304748535156,0.3830299377441406,0.6636886596679688,-0.48656749725341797,0.4196281433105469
190,5184616.0,10.124190330505371,-2.6360960006713867,3.836824417114258,-0.0021305084228515625,0.0063915252685546875,0.013848304748535156,0.3830299377441406,0.6636886596679688,-0.48656749725341797,0.4196281433105469
191,5184616.0,10.124190330505371,-2.6360960006713867,3.836824417114258,-0.0021305084228515625,0.0063915252685546875,0.013848304748535156,0.3830299377441406,0.6636886596679688,-0.48656749725341797,0.4196281433105469
192,5184616.0,10.124190330505371,-2.6360960006713867,3.836824417114258,-0.0021305084228515625,0.0063915252685546875,0.013848304748535156,0.3830299377441406,0.6636886596679688,-0.48656749725341797,0.4196281433105469
193,5184636.0,10.831698417663574,-2.5858163833618164,4.787351608276367,-0.0021305084228515625,0.0063915252685546875,0.013848304748535156,0.3830299377441406,0.6636886596679688,-0.48656749725341797,0.4196281433105469
194,5184636.0,10.831698417663574,-2.5858163833618164,4.787351608276367,-0.0021305084228515625,0.0063915252685546875,0.013848304748535156,0.3830299377441406,0.6636886596679688,-0.48656749725341797,0.4196281433105469
195,5184636.0,10.831698417663574,-2.5858163833618164,4.787351608276367,-0.0021305084228515625,0.0063915252685546875,0.013848304748535156,0.3830299377441406,0.6636886596679688,-0.48656749725341797,0.4196281433105469
196,5184756.0,15.08871841430664,-2.4541311264038086,6.198777198791504,1.5201778411865234,1.1963281631469727,2.701592445373535,0.3830299377441406,0.6636886596679688,-0.48656749725341797,0.4196281433105469
197,5184776.0,14.990553855895996,-2.6372928619384766,6.468132972717285,1.5201778411865234,1.1963281631469727,2.701592445373535,0.3373250961303711,0.7772388458251953,-0.36205577850341797,0.3886833190917969
198,5184796.0,14.435081481933594,-2.109355926513672,6.30532169342041,1.5201778411865234,1.1963281631469727,2.701592445373535,0.3209686279296875,0.805938720703125,-0.3328380584716797,0.3697376251220703
199,5184816.0,13.17569351196289,-2.1021728515625,7.421053886413574,1.5201778411865234,1.1963281631469727,2.701592445373535,0.3068122863769531,0.8331718444824219,-0.30353355407714844,0.3458271026611328
200,5184836.0,11.613429069519043,-2.4553279876708984,6.999661445617676,1.5201778411865234,1.1963281631469727,2.701592445373535,0.30219459533691406,0.8559160232543945,-0.27854442596435547,0.31384754180908203
201,5184856.0,10.4953031539917,-4.139700889587402,5.687599182128906,1.5201778411865234,1.1963281631469727,2.701592445373535,0.30323028564453125,0.8735675811767578,-0.2589073181152344,0.27906131744384766
202,5184876.0,7.582667350769043,-5.169239044189453,6.287364959716797,1.5201778411865234,1.1963281631469727,2.701592445373535,0.30323028564453125,0.8735675811767578,-0.2589073181152344,0.27906131744384766
203,5184896.0,5.688796043395996,-3.751828193664551,5.662459373474121,1.5201778411865234,1.1963281631469727,2.701592445373535,0.30323028564453125,0.8735675811767578,-0.2589073181152344,0.27906131744384766
204,5184916.0,4.362367630004883,-2.759401321411133,4.170825958251953,1.5201778411865234,1.1963281631469727,2.701592445373535,0.30323028564453125,0.8735675811767578,-0.2589073181152344,0.27906131744384766
205,5184936.0,1.7418346405029297,-3.465712547302246,3.0084056854248047,1.5201778411865234,1.1963281631469727,2.701592445373535,0.30323028564453125,0.8735675811767578,-0.2589073181152344,0.27906131744384766
206,5184955.0,-0.9349641799926758,-2.7869348526000977,3.164033889770508,1.3966035842895508,2.9391536712646484,1.9963655471801758,0.30323028564453125,0.8735675811767578,-0.2589073181152344,0.27906131744384766
207,5184975.0,-2.340402603149414,-1.9585161209106445,3.4070520401000977,1.756673812866211,2.6302175521850586,1.74176025390625,0.24509620666503906,0.9520730972290039,-0.1683177947998047,0.07185840606689453
208,5184995.0,-3.192765235900879,-2.6803903579711914,4.448561668395996,1.7449560165405273,2.4192886352539062,1.634164810180664,0.22476863861083984,0.9605751037597656,-0.15713977813720703,0.046265602111816406
209,5185015.0,-4.856785774230957,-0.8619384765625,4.337227821350098,1.4658479690551758,2.3330001831054688,1.560659408569336,0.20543289184570312,0.967437744140625,-0.14604854583740234,0.022355079650878906
210,5185035.0,-6.87515926361084,-0.7146902084350586,4.927416801452637,1.082341194152832,2.2925186157226562,1.5691814422607422,0.18924903869628906,0.9725732803344727,-0.13538837432861328,-0.0013380050659179688
211,5185154.0,-10.800572395324707,0.8188419342041016,5.023187637329102,1.1654348373413086,2.597193717956543,2.574822425842285,0.17617225646972656,0.9761552810668945,-0.1240377426147461,-0.02520465850830078
212,5185174.0,-11.593077659606934,1.1336889266967773,5.837241172790527,1.3273591995239258,2.4342031478881836,2.4437904357910156,0.17617225646972656,0.9761552810668945,-0.1240377426147461,-0.02520465850830078
213,5185194.0,-13.051191329956055,1.5155754089355469,5.640911102294922,1.390212059020996,2.1902503967285156,2.064544677734375,0.17617225646972656,0.9761552810668945,-0.1240377426147461,-0.02520465850830078
214,5185214.0,-13.1493558883667,1.175588607788086,6.216733932495117,1.2922048568725586,1.6650590896606445,1.645883560180664,0.17617225646972656,0.9761552810668945,-0.1240377426147461,-0.02520465850830078
215,5185234.0,-12.104255676269531,0.0814046859741211,7.387534141540527,1.4360198974609375,0.9630279541015625,1.003509521484375,0.17617225646972656,0.9761552810668945,-0.1240377426147461,-0.02520465850830078
216,5185254.0,-9.793780326843262,-0.5806112289428711,8.90311050415039,1.4360198974609375,0.9630279541015625,1.003509521484375,0.17617225646972656,0.9761552810668945,-0.1240377426147461,-0.02520465850830078
217,5185274.0,-8.572700500488281,-1.1265058517456055,9.074300765991211,1.4360198974609375,0.9630279541015625,1.003509521484375,0.17617225646972656,0.9761552810668945,-0.1240377426147461,-0.02520465850830078
218,5185294.0,-7.308523178100586,0.5470914840698242,8.628965377807617,1.4360198974609375,0.9630279541015625,1.003509521484375,0.17617225646972656,0.9761552810668945,-0.1240377426147461,-0.02520465850830078
219,5185314.0,-4.421028137207031,1.916616439819336,8.224332809448242,1.4360198974609375,0.9630279541015625,1.003509521484375,0.17617225646972656,0.9761552810668945,-0.1240377426147461,-0.02520465850830078
220,5185334.0,-0.3124523162841797,-0.7518014907836914,8.575094223022461,1.4360198974609375,0.9630279541015625,1.003509521484375,0.17617225646972656,0.9761552810668945,-0.1240377426147461,-0.02520465850830078
221,5185354.0,4.8735456466674805,-0.6967334747314453,10.107430458068848,-0.25673580169677734,-3.085099220275879,-2.9988107681274414,0.17617225646972656,0.9761552810668945,-0.1240377426147461,-0.02520465850830078
222,5185354.0,4.8735456466674805,-0.6967334747314453,10.107430458068848,-0.25673580169677734,-3.085099220275879,-2.9988107681274414,0.17617225646972656,0.9761552810668945,-0.1240377426147461,-0.02520465850830078
223,5185374.0,6.37355899810791,1.6364860534667969,8.174053192138672,-0.9044370651245117,-3.553830146789551,-3.509087562561035,0.17617225646972656,0.9761552810668945,-0.1240377426147461,-0.02520465850830078
224,5185374.0,6.37355899810791,1.6364860534667969,8.174053192138672,-0.9044370651245117,-3.553830146789551,-3.509087562561035,0.17617225646972656,0.9761552810668945,-0.1240377426147461,-0.02520465850830078
225,5185394.0,12.616630554199219,1.0893945693969727,7.6377363204956055,-0.9960517883300781,-4.073695182800293,-4.023626327514648,0.17617225646972656,0.9761552810668945,-0.1240377426147461,-0.02520465850830078
226,5185394.0,12.616630554199219,1.0893945693969727,7.6377363204956055,-0.9960517883300781,-4.073695182800293,-4.023626327514648,0.17617225646972656,0.9761552810668945,-0.1240377426147461,-0.02520465850830078
227,5185414.0,16.356487274169922,-0.4201946258544922,4.817279815673828,-0.6839199066162109,-4.456136703491211,-4.394349098205566,0.17617225646972656,0.9761552810668945,-0.1240377426147461,-0.02520465850830078
228,5185414.0,16.356487274169922,-0.4201946258544922,4.817279815673828,-0.6839199066162109,-4.456136703491211,-4.394349098205566,0.17617225646972656,0.9761552810668945,-0.1240377426147461,-0.02520465850830078
229,5185434.0,19.715654373168945,0.45371437072753906,8.681639671325684,-0.11931324005126953,-5.158166885375977,-4.541359901428223,0.17617225646972656,0.9761552810668945,-0.1240377426147461,-0.02520465850830078
230,5185434.0,19.715654373168945,0.45371437072753906,8.681639671325684,-0.11931324005126953,-5.158166885375977,-4.541359901428223,0.17617225646972656,0.9761552810668945,-0.1240377426147461,-0.02520465850830078
231,5185553.0,2.3308258056640625,0.07661628723144531,9.11739730834961,0.15872859954833984,0.8724775314331055,0.8639554977416992,0.1398754119873047,0.9558706283569336,-0.2541170120239258,0.04630851745605469
232,5185573.0,1.822042465209961,1.8328170776367188,5.976109504699707,0.15872859954833984,0.8724775314331055,0.8639554977416992,0.1398754119873047,0.9558706283569336,-0.2541170120239258,0.04630851745605469
233,5185593.0,1.877110481262207,3.8499937057495117,7.239089012145996,0.15872859954833984,0.8724775314331055,0.8639554977416992,0.1398754119873047,0.9558706283569336,-0.2541170120239258,0.04630851745605469
234,5185613.0,1.883096694946289,2.162029266357422,8.721144676208496,0.15872859954833984,0.8724775314331055,0.8639554977416992,0.1398754119873047,0.9558706283569336,-0.2541170120239258,0.04630851745605469
235,5185633.0,2.2745609283447266,0.08858776092529297,9.313728332519531,0.15872859954833984,0.8724775314331055,0.8639554977416992,0.1398754119873047,0.9558706283569336,-0.2541170120239258,0.04630851745605469
236,5185652.0,3.3507871627807617,-1.2593879699707031,10.064332962036133,-1.099386215209961,0.2588663101196289,0.599761962890625,0.1398754119873047,0.9558706283569336,-0.2541170120239258,0.04630851745605469
237,5185672.0,3.929004669189453,-0.14006423950195312,11.26506233215332,-0.8831310272216797,0.5049505233764648,1.1952629089355469,0.1398754119873047,0.9558706283569336,-0.2541170120239258,0.04630851745605469
238,5185692.0,5.334444046020508,-0.3962516784667969,9.38675308227539,-1.1984586715698242,0.8916530609130859,1.8653345108032227,0.1398754119873047,0.9558706283569336,-0.2541170120239258,0.04630851745605469
239,5185712.0,5.903083801269531,-2.065061569213867,8.7869873046875,-1.5201778411865234,0.92254638671875,2.64406681060791,0.1398754119873047,0.9558706283569336,-0.2541170120239258,0.04630851745605469
240,5185732.0,7.604215621948242,-2.807286262512207,11.290202140808105,-1.283681869506836,0.7371854782104492,3.382317543029785,0.1398754119873047,0.9558706283569336,-0.2541170120239258,0.04630851745605469
241,5185752.0,8.90550422668457,-5.13212776184082,10.258269309997559,-1.283681869506836,0.7371854782104492,3.382317543029785,0.1398754119873047,0.9558706283569336,-0.2541170120239258,0.04630851745605469
242,5185752.0,8.90550422668457,-5.13212776184082,10.258269309997559,-1.283681869506836,0.7371854782104492,3.382317543029785,0.1398754119873047,0.9558706283569336,-0.2541170120239258,0.04630851745605469
243,5185772.0,8.156096458435059,-7.089447021484375,8.643331527709961,-1.283681869506836,0.7371854782104492,3.382317543029785,0.1398754119873047,0.9558706283569336,-0.2541170120239258,0.04630851745605469
244,5185772.0,8.156096458435059,-7.089447021484375,8.643331527709961,-1.283681869506836,0.7371854782104492,3.382317543029785,0.1398754119873047,0.9558706283569336,-0.2541170120239258,0.04630851745605469
245,5185792.0,6.162862777709961,-3.72189998626709,8.791776657104492,-1.283681869506836,0.7371854782104492,3.382317543029785,0.1398754119873047,0.9558706283569336,-0.2541170120239258,0.04630851745605469
246,5185792.0,6.162862777709961,-3.72189998626709,8.791776657104492,-1.283681869506836,0.7371854782104492,3.382317543029785,0.1398754119873047,0.9558706283569336,-0.2541170120239258,0.04630851745605469
247,5185812.0,3.5016260147094727,-0.43216609954833984,8.934235572814941,-1.283681869506836,0.7371854782104492,3.382317543029785,0.1398754119873047,0.9558706283569336,-0.2541170120239258,0.04630851745605469
248,5185812.0,3.5016260147094727,-0.43216609954833984,8.934235572814941,-1.283681869506836,0.7371854782104492,3.382317543029785,0.1398754119873047,0.9558706283569336,-0.2541170120239258,0.04630851745605469
249,5185832.0,0.03591346740722656,1.116929054260254,7.85561466217041,-1.283681869506836,0.7371854782104492,3.382317543029785,0.1398754119873047,0.9558706283569336,-0.2541170120239258,0.04630851745605469
250,5185832.0,0.03591346740722656,1.116929054260254,7.85561466217041,-1.283681869506836,0.7371854782104492,3.382317543029785,0.1398754119873047,0.9558706283569336,-0.2541170120239258,0.04630851745605469
251,5185951.0,-5.707950592041016,2.138087272644043,4.327651023864746,0.3685922622680664,-0.8660860061645508,0.15446758270263672,0.07492256164550781,0.9929008483886719,0.051876068115234375,-0.07647705078125
252,5185971.0,-6.155679702758789,2.687572479248047,5.1536760330200195,0.3685922622680664,-0.8660860061645508,0.15446758270263672,0.07492256164550781,0.9929008483886719,0.051876068115234375,-0.07647705078125
253,5185991.0,-4.535952568054199,0.5363168716430664,5.616968154907227,0.3685922622680664,-0.8660860061645508,0.15446758270263672,0.07492256164550781,0.9929008483886719,0.051876068115234375,-0.07647705078125
254,5186011.0,-2.1476640701293945,-3.295718193054199,5.091424942016602,0.3685922622680664,-0.8660860061645508,0.15446758270263672,0.07492256164550781,0.9929008483886719,0.051876068115234375,-0.07647705078125
255,5186031.0,-1.818450927734375,-1.2833309173583984,6.1101884841918945,0.3685922622680664,-0.8660860061645508,0.15446758270263672,0.07492256164550781,0.9929008483886719,0.051876068115234375,-0.07647705078125
256,5186052.0,-2.3332204818725586,0.7170848846435547,7.215146064758301,-1.2538537979125977,-2.665372848510742,-2.8230361938476562,0.07492256164550781,0.9929008483886719,0.051876068115234375,-0.07647705078125
257,5186071.0,-1.4676895141601562,-0.9265842437744141,7.152894973754883,-2.0485658645629883,-2.9476757049560547,-2.7687063217163086,0.07492256164550781,0.9929008483886719,0.051876068115234375,-0.07647705078125
258,5186091.0,0.9780607223510742,-4.355185508728027,8.318906784057617,-1.964406967163086,-2.994548797607422,-3.0595321655273438,0.07492256164550781,0.9929008483886719,0.051876068115234375,-0.07647705078125
259,5186111.0,1.856760025024414,-5.618165016174316,8.089056968688965,-0.5795211791992188,-2.5662994384765625,-3.1000137329101562,0.07492256164550781,0.9929008483886719,0.051876068115234375,-0.07647705078125
260,5186131.0,1.3491735458374023,-4.611372947692871,8.391932487487793,1.0109663009643555,-2.564168930053711,-3.12345027923584,0.07492256164550781,0.9929008483886719,0.051876068115234375,-0.07647705078125
261,5186152.0,2.4649057388305664,-2.286531448364258,9.500481605529785,1.0109663009643555,-2.564168930053711,-3.12345027923584,0.07492256164550781,0.9929008483886719,0.051876068115234375,-0.07647705078125
262,5186171.0,5.650487899780273,-0.45610904693603516,9.912297248840332,1.0109663009643555,-2.564168930053711,-3.12345027923584,0.07492256164550781,0.9929008483886719,0.051876068115234375,-0.07647705078125
263,5186191.0,8.152504920959473,-1.9537277221679688,8.97493839263916,1.0109663009643555,-2.564168930053711,-3.12345027923584,0.07492256164550781,0.9929008483886719,0.051876068115234375,-0.07647705078125
264,5186211.0,8.879167556762695,-5.400285720825195,8.582277297973633,1.0109663009643555,-2.564168930053711,-3.12345027923584,0.07492256164550781,0.9929008483886719,0.051876068115234375,-0.07647705078125
265,5186231.0,8.700794219970703,-6.041952133178711,8.88634967803955,1.0109663009643555,-2.564168930053711,-3.12345027923584,0.07492256164550781,0.9929008483886719,0.051876068115234375,-0.07647705078125
266,5186251.0,9.538789749145508,-3.057488441467285,9.040781021118164,0.6018924713134766,-2.654719352722168,-2.619565010070801,0.07492256164550781,0.9929008483886719,0.051876068115234375,-0.07647705078125
267,5186270.0,10.710787773132324,-0.2394266128540039,8.37636947631836,0.8959140777587891,-2.619565010070801,-2.5077085494995117,0.07492256164550781,0.9929008483886719,0.051876068115234375,-0.07647705078125
268,5186290.0,10.758672714233398,0.3028755187988281,7.640130043029785,0.19494915008544922,-2.4171581268310547,-2.2573633193969727,0.07492256164550781,0.9929008483886719,0.051876068115234375,-0.07647705078125
269,5186310.0,10.270240783691406,-0.5267400741577148,7.1086015701293945,-0.8288002014160156,-2.220078468322754,-2.141246795654297,0.07492256164550781,0.9929008483886719,0.051876068115234375,-0.07647705078125
270,5186330.0,12.020455360412598,-1.599374771118164,6.658477783203125,-1.3390779495239258,-2.1476383209228516,-2.2094249725341797,0.07492256164550781,0.9929008483886719,0.051876068115234375,-0.07647705078125
271,5186450.0,10.379179954528809,-0.525543212890625,4.369550704956055,-1.447737693786621,-0.8490409851074219,-1.3177719116210938,0.07492256164550781,0.9929008483886719,0.051876068115234375,-0.07647705078125
272,5186470.0,9.45499038696289,-0.6069478988647461,4.2725830078125,-1.447737693786621,-0.8490409851074219,-1.3177719116210938,0.07492256164550781,0.9929008483886719,0.051876068115234375,-0.07647705078125
273,5186489.0,9.653715133666992,-0.2705526351928711,4.15286922454834,-1.447737693786621,-0.8490409851074219,-1.3177719116210938,0.07492256164550781,0.9929008483886719,0.051876068115234375,-0.07647705078125
274,5186509.0,9.584280967712402,0.1364736557006836,4.009212493896484,-1.447737693786621,-0.8490409851074219,-1.3177719116210938,0.07492256164550781,0.9929008483886719,0.051876068115234375,-0.07647705078125
275,5186529.0,8.967755317687988,-0.21428680419921875,3.8583736419677734,-1.447737693786621,-0.8490409851074219,-1.3177719116210938,0.07492256164550781,0.9929008483886719,0.051876068115234375,-0.07647705078125
276,5186551.0,8.675653457641602,-0.23703289031982422,3.743448257446289,-0.8341274261474609,-0.08309268951416016,0.09054946899414062,0.07492256164550781,0.9929008483886719,0.051876068115234375,-0.07647705078125
277,5186571.0,8.900715827941895,-0.06105327606201172,3.809290885925293,-0.7542295455932617,-0.07350540161132812,0.06817817687988281,0.07492256164550781,0.9929008483886719,0.051876068115234375,-0.07647705078125
278,5186590.0,9.049160957336426,-0.1316843032836914,3.6512680053710938,-0.7457075119018555,-0.011717796325683594,0.0745706558227539,0.07492256164550781,0.9929008483886719,0.051876068115234375,-0.07647705078125
279,5186610.0,8.891139030456543,-0.1891469955444336,3.53155517578125,-0.6860504150390625,0.030893325805664062,0.07883167266845703,0.07492256164550781,0.9929008483886719,0.051876068115234375,-0.07647705078125
280,5186630.0,8.929447174072266,-0.09936237335205078,3.452543258666992,-0.5571498870849609,0.012783050537109375,0.08415794372558594,0.07492256164550781,0.9929008483886719,0.051876068115234375,-0.07647705078125
281,5186649.0,9.125777244567871,-0.08858776092529297,3.308887481689453,-0.461273193359375,0.007456779479980469,0.11824703216552734,0.07492256164550781,0.9929008483886719,0.051876068115234375,-0.07647705078125
282,5186649.0,9.125777244567871,-0.08858776092529297,3.308887481689453,-0.461273193359375,0.007456779479980469,0.11824703216552734,0.07492256164550781,0.9929008483886719,0.051876068115234375,-0.07647705078125
283,5186669.0,9.058737754821777,-0.24301815032958984,3.15206241607666,-0.3387641906738281,0.045806884765625,0.15446758270263672,0.07492256164550781,0.9929008483886719,0.051876068115234375,-0.07647705078125
284,5186669.0,9.058737754821777,-0.24301815032958984,3.15206241607666,-0.3387641906738281,0.045806884765625,0.15446758270263672,0.07492256164550781,0.9929008483886719,0.051876068115234375,-0.07647705078125
285,5186688.0,8.919870376586914,-0.19872474670410156,3.094599723815918,-0.1906881332397461,0.045806884765625,0.19388389587402344,0.07492256164550781,0.9929008483886719,0.051876068115234375,-0.07647705078125
286,5186688.0,8.919870376586914,-0.19872474670410156,3.094599723815918,-0.1906881332397461,0.045806884765625,0.19388389587402344,0.07492256164550781,0.9929008483886719,0.051876068115234375,-0.07647705078125
287,5186708.0,8.893532752990723,-0.06703948974609375,3.2322702407836914,-0.06711292266845703,0.01810932159423828,0.2194509506225586,0.07492256164550781,0.9929008483886719,0.051876068115234375,-0.07647705078125
288,5186708.0,8.893532752990723,-0.06703948974609375,3.2322702407836914,-0.06711292266845703,0.01810932159423828,0.2194509506225586,0.07492256164550781,0.9929008483886719,0.051876068115234375,-0.07647705078125
289,5186728.0,8.950995445251465,-0.046688079833984375,3.3483924865722656,0.019174575805664062,0.021305084228515625,0.23756027221679688,0.07492256164550781,0.9929008483886719,0.051876068115234375,-0.07647705078125
290,5186728.0,8.950995445251465,-0.046688079833984375,3.3483924865722656,0.019174575805664062,0.021305084228515625,0.23756027221679688,0.07492256164550781,0.9929008483886719,0.051876068115234375,-0.07647705078125
291,5186750.0,9.000078201293945,0.022745132446289062,3.2095251083374023,0.019174575805664062,0.021305084228515625,0.23756027221679688,0.07492256164550781,0.9929008483886719,0.051876068115234375,-0.07647705078125
292,5186770.0,8.871984481811523,0.1316843032836914,3.156850814819336,0.019174575805664062,0.021305084228515625,0.23756027221679688,0.07492256164550781,0.9929008483886719,0.051876068115234375,-0.07647705078125
293,5186789.0,8.669668197631836,0.12809276580810547,3.1915674209594727,0.019174575805664062,0.021305084228515625,0.23756027221679688,0.07492256164550781,0.9929008483886719,0.051876068115234375,-0.07647705078125
294,5186809.0,8.888744354248047,0.03471660614013672,3.189173698425293,0.019174575805664062,0.021305084228515625,0.23756027221679688,0.07492256164550781,0.9929008483886719,0.051876068115234375,-0.07647705078125
295,5186829.0,9.006063461303711,0.16640186309814453,3.2358617782592773,0.019174575805664062,0.021305084228515625,0.23756027221679688,0.07492256164550781,0.9929008483886719,0.051876068115234375,-0.07647705078125
296,5186849.0,8.769030570983887,0.07661628723144531,3.2298765182495117,0.019174575805664062,0.021305084228515625,0.23756027221679688,0.07492256164550781,0.9929008483886719,0.051876068115234375,-0.07647705078125
297,5186869.0,8.815718650817871,0.059856414794921875,3.1652307510375977,0.019174575805664062,0.021305084228515625,0.23756027221679688,0.07492256164550781,0.9929008483886719,0.051876068115234375,-0.07647705078125
298,5186888.0,9.018034934997559,0.15562725067138672,3.1592445373535156,0.019174575805664062,0.021305084228515625,0.23756027221679688,0.07492256164550781,0.9929008483886719,0.051876068115234375,-0.07647705078125
299,5186908.0,8.985712051391602,0.023941993713378906,3.1472740173339844,0.019174575805664062,0.021305084228515625,0.23756027221679688,0.07492256164550781,0.9929008483886719,0.051876068115234375,-0.07647705078125
300,5186928.0,8.897124290466309,0.05626487731933594,3.190370559692383,0.019174575805664062,0.021305084228515625,0.23756027221679688,0.07492256164550781,0.9929008483886719,0.051876068115234375,-0.07647705078125
301,5186949.0,8.971346855163574,0.019153594970703125,3.269381523132324,0.13103103637695312,-0.07350540161132812,0.09694194793701172,0.07492256164550781,0.9929008483886719,0.051876068115234375,-0.07647705078125
302,5186969.0,9.009654998779297,0.08739089965820312,3.2969160079956055,0.1438150405883789,-0.07563591003417969,0.07670116424560547,0.07492256164550781,0.9929008483886719,0.051876068115234375,-0.07647705078125
303,5186988.0,8.900715827941895,0.17238712310791016,3.276564598083496,0.13103103637695312,-0.06498241424560547,0.057525634765625,0.07492256164550781,0.9929008483886719,0.051876068115234375,-0.07647705078125
304,5187008.0,8.881561279296875,0.1053476333618164,3.269381523132324,0.1033334732055664,-0.06498241424560547,0.05113410949707031,0.07492256164550781,0.9929008483886719,0.051876068115234375,-0.07647705078125
305,5187028.0,8.97374153137207,0.11372756958007812,3.2250871658325195,0.08841896057128906,-0.0745706558227539,0.04793834686279297,0.07492256164550781,0.9929008483886719,0.051876068115234375,-0.07647705078125
306,5187049.0,8.918672561645508,0.0790109634399414,3.3160696029663086,0.06391716003417969,-0.060721397399902344,0.041545867919921875,0.07492256164550781,0.9929008483886719,0.051876068115234375,-0.07647705078125
307,5187069.0,8.85642147064209,-0.055068016052246094,3.284944534301758,0.0628519058227539,-0.057525634765625,0.03835010528564453,0.07492256164550781,0.9929008483886719,0.051876068115234375,-0.07647705078125
308,5187089.0,8.939023971557617,0.010773658752441406,3.2310733795166016,0.11292076110839844,-0.06817817687988281,0.031958580017089844,0.07492256164550781,0.9929008483886719,0.051876068115234375,-0.07647705078125
309,5187108.0,8.983318328857422,0.15443038940429688,3.211918830871582,0.10226821899414062,-0.053264617919921875,0.022370338439941406,0.07492256164550781,0.9929008483886719,0.051876068115234375,-0.07647705078125
310,5187128.0,8.937827110290527,0.08978462219238281,3.128119468688965,0.024501800537109375,-0.04367637634277344,0.007456779479980469,0.07492256164550781,0.9929008483886719,0.051876068115234375,-0.07647705078125
311,5187148.0,8.988106727600098,-0.033519744873046875,3.1149511337280273,0.0010652542114257812,-0.04793834686279297,-0.021305084228515625,0.07492256164550781,0.9929008483886719,0.051876068115234375,-0.07647705078125
312,5187148.0,8.988106727600098,-0.033519744873046875,3.1149511337280273,0.0010652542114257812,-0.04793834686279297,-0.021305084228515625,0.07492256164550781,0.9929008483886719,0.051876068115234375,-0.07647705078125
313,5187168.0,9.092257499694824,-0.11013603210449219,3.0814313888549805,0.014913558959960938,-0.054329872131347656,-0.026632308959960938,0.07492256164550781,0.9929008483886719,0.051876068115234375,-0.07647705078125
314,5187168.0,9.092257499694824,-0.11013603210449219,3.0814313888549805,0.014913558959960938,-0.054329872131347656,-0.026632308959960938,0.07492256164550781,0.9929008483886719,0.051876068115234375,-0.07647705078125
315,5187188.0,9.106623649597168,-0.08619308471679688,3.1400909423828125,0.023435592651367188,-0.05006885528564453,-0.031958580017089844,0.07492256164550781,0.9929008483886719,0.051876068115234375,-0.07647705078125
316,5187188.0,9.106623649597168,-0.08619308471679688,3.1400909423828125,0.023435592651367188,-0.05006885528564453,-0.031958580017089844,0.07492256164550781,0.9929008483886719,0.051876068115234375,-0.07647705078125
317,5187207.0,8.97374153137207,-0.09696769714355469,3.15325927734375,0.011717796325683594,-0.041545867919921875,-0.033023834228515625,0.07492256164550781,0.9929008483886719,0.051876068115234375,-0.07647705078125
318,5187207.0,8.97374153137207,-0.09696769714355469,3.15325927734375,0.011717796325683594,-0.041545867919921875,-0.033023834228515625,0.07492256164550781,0.9929008483886719,0.051876068115234375,-0.07647705078125
319,5187227.0,9.007261276245117,-0.08499622344970703,3.0778398513793945,0.011717796325683594,-0.05539512634277344,-0.031958580017089844,0.07492256164550781,0.9929008483886719,0.051876068115234375,-0.07647705078125
320,5187227.0,9.007261276245117,-0.08499622344970703,3.0778398513793945,0.011717796325683594,-0.05539512634277344,-0.031958580017089844,0.07492256164550781,0.9929008483886719,0.051876068115234375,-0.07647705078125
321,5187248.0,9.04556941986084,-0.06225109100341797,3.0383338928222656,0.011717796325683594,-0.05539512634277344,-0.031958580017089844,0.07492256164550781,0.9929008483886719,0.051876068115234375,-0.07647705078125
322,5187268.0,9.001275062561035,-0.1077423095703125,3.1149511337280273,0.011717796325683594,-0.05539512634277344,-0.031958580017089844,0.07492256164550781,0.9929008483886719,0.051876068115234375,-0.07647705078125
323,5187288.0,9.02641487121582,-0.06344795227050781,3.116147994995117,0.011717796325683594,-0.05539512634277344,-0.031958580017089844,0.07492256164550781,0.9929008483886719,0.051876068115234375,-0.07647705078125
324,5187307.0,9.001275062561035,-0.051476478576660156,3.1353025436401367,0.011717796325683594,-0.05539512634277344,-0.031958580017089844,0.07492256164550781,0.9929008483886719,0.051876068115234375,-0.07647705078125
325,5187327.0,8.958178520202637,-0.1340789794921875,3.1053733825683594,0.011717796325683594,-0.05539512634277344,-0.031958580017089844,0.07492256164550781,0.9929008483886719,0.051876068115234375,-0.07647705078125
326,5187347.0,9.079089164733887,-0.17478179931640625,3.1077680587768555,-0.01597881317138672,-0.042611122131347656,-0.011717796325683594,0.07492256164550781,0.9929008483886719,0.051876068115234375,-0.07647705078125
327,5187367.0,9.104228973388672,-0.16640186309814453,3.158047676086426,-0.00852203369140625,-0.031958580017089844,0.004261016845703125,0.07492256164550781,0.9929008483886719,0.051876068115234375,-0.07647705078125
328,5187387.0,8.979726791381836,-0.06344795227050781,3.0778398513793945,-0.022370338439941406,-0.025567054748535156,0.011717796325683594,0.07492256164550781,0.9929008483886719,0.051876068115234375,-0.07647705078125
329,5187406.0,8.97733211517334,0.05865955352783203,3.0969934463500977,-0.03621959686279297,-0.0287628173828125,-0.004261016845703125,0.07492256164550781,0.9929008483886719,0.051876068115234375,-0.07647705078125
330,5187426.0,9.070709228515625,0.029928207397460938,3.128119468688965,-0.03835010528564453,-0.021305084228515625,-0.01597881317138672,0.07492256164550781,0.9929008483886719,0.051876068115234375,-0.07647705078125
331,5187547.0,8.8336763381958,-0.18076705932617188,3.080233573913574,-0.0021305084228515625,-0.023435592651367188,0.007456779479980469,0.3174724578857422,0.6957550048828125,-0.42549896240234375,0.48380470275878906
332,5187567.0,9.015641212463379,-0.17478179931640625,3.0969934463500977,-0.0021305084228515625,-0.023435592651367188,0.007456779479980469,0.3174724578857422,0.6957550048828125,-0.42549896240234375,0.48380470275878906
333,5187587.0,9.087469100952148,-0.15682411193847656,3.1005849838256836,-0.0021305084228515625,-0.023435592651367188,0.007456779479980469,0.3174724578857422,0.6957550048828125,-0.42549896240234375,0.48380470275878906
334,5187606.0,9.052752494812012,-0.1711902618408203,3.122134208679199,-0.0021305084228515625,-0.023435592651367188,0.007456779479980469,0.3174724578857422,0.6957550048828125,-0.42549896240234375,0.48380470275878906
335,5187626.0,9.014443397521973,-0.14844417572021484,3.1376962661743164,-0.0021305084228515625,-0.023435592651367188,0.007456779479980469,0.3174724578857422,0.6957550048828125,-0.42549896240234375,0.48380470275878906
336,5187646.0,9.02641487121582,-0.16161346435546875,3.1353025436401367,-0.0063915252685546875,-0.03728485107421875,-0.011717796325683594,0.3174724578857422,0.6957550048828125,-0.42549896240234375,0.48380470275878906
337,5187666.0,9.043174743652344,-0.1915416717529297,3.088613510131836,0.0063915252685546875,-0.041545867919921875,-0.007456779479980469,0.3174724578857422,0.6957550048828125,-0.42549896240234375,0.48380470275878906
338,5187686.0,9.033597946166992,-0.16879558563232422,3.065868377685547,0.01810932159423828,-0.03515434265136719,0.0,0.3174724578857422,0.6957550048828125,-0.42549896240234375,0.48380470275878906
339,5187705.0,8.887547492980957,-0.15682411193847656,3.0969934463500977,0.033023834228515625,-0.01597881317138672,-0.004261016845703125,0.3174724578857422,0.6957550048828125,-0.42549896240234375,0.48380470275878906
340,5187725.0,8.87557601928711,-0.1340789794921875,3.065868377685547,0.02982807159423828,-0.0287628173828125,0.0021305084228515625,0.3174724578857422,0.6957550048828125,-0.42549896240234375,0.48380470275878906
341,5187746.0,8.989303588867188,-0.1364736557006836,3.0503053665161133,0.02982807159423828,-0.0287628173828125,0.0021305084228515625,0.3174724578857422,0.6957550048828125,-0.42549896240234375,0.48380470275878906
342,5187766.0,8.97733211517334,-0.173583984375,3.0119972229003906,0.02982807159423828,-0.0287628173828125,0.0021305084228515625,0.3174724578857422,0.6957550048828125,-0.42549896240234375,0.48380470275878906
343,5187786.0,8.936630249023438,-0.1783733367919922,3.0131940841674805,0.02982807159423828,-0.0287628173828125,0.0021305084228515625,0.3174724578857422,0.6957550048828125,-0.42549896240234375,0.48380470275878906
344,5187805.0,9.043174743652344,-0.1759786605834961,2.989251136779785,0.02982807159423828,-0.0287628173828125,0.0021305084228515625,0.3174724578857422,0.6957550048828125,-0.42549896240234375,0.48380470275878906
345,5187825.0,9.101835250854492,-0.1316843032836914,2.970097541809082,0.02982807159423828,-0.0287628173828125,0.0021305084228515625,0.3174724578857422,0.6957550048828125,-0.42549896240234375,0.48380470275878906
346,5187845.0,9.070709228515625,-0.1915416717529297,3.010800361633301,-0.03728485107421875,-0.020239830017089844,-0.020239830017089844,0.3174724578857422,0.6957550048828125,-0.42549896240234375,0.48380470275878906
347,5187865.0,9.11739730834961,-0.23822975158691406,3.000025749206543,-0.03941535949707031,-0.0287628173828125,-0.010652542114257812,0.3174724578857422,0.6957550048828125,-0.42549896240234375,0.48380470275878906
348,5187885.0,9.09345531463623,-0.1783733367919922,2.9473514556884766,-0.01810932159423828,-0.021305084228515625,0.0,0.3174724578857422,0.6957550048828125,-0.42549896240234375,0.48380470275878906
349,5187904.0,9.034794807434082,-0.20949840545654297,2.9904489517211914,-0.012783050537109375,-0.014913558959960938,0.013848304748535156,0.3174724578857422,0.6957550048828125,-0.42549896240234375,0.48380470275878906
350,5187924.0,9.113805770874023,-0.19393539428710938,2.96291446685791,-0.007456779479980469,-0.023435592651367188,0.026632308959960938,0.3174724578857422,0.6957550048828125,-0.42549896240234375,0.48380470275878906
351,5187945.0,9.180846214294434,-0.09337615966796875,2.989251136779785,0.0010652542114257812,-0.011717796325683594,0.030893325805664062,0.3174724578857422,0.6957550048828125,-0.42549896240234375,0.48380470275878906
352,5187965.0,9.018034934997559,-0.005985260009765625,2.996434211730957,-0.034089088439941406,0.0031957626342773438,0.03835010528564453,0.3174724578857422,0.6957550048828125,-0.42549896240234375,0.48380470275878906
353,5187985.0,8.971346855163574,-0.12569904327392578,2.9880542755126953,-0.052199363708496094,-0.0021305084228515625,0.026632308959960938,0.3174724578857422,0.6957550048828125,-0.42549896240234375,0.48380470275878906
354,5188004.0,9.047964096069336,-0.0790109634399414,2.938971519470215,-0.03728485107421875,-0.013848304748535156,0.013848304748535156,0.3174724578857422,0.6957550048828125,-0.42549896240234375,0.48380470275878906
355,5188024.0,9.087469100952148,-0.09337615966796875,2.997631072998047,-0.0170440673828125,-0.00852203369140625,0.004261016845703125,0.3174724578857422,0.6957550048828125,-0.42549896240234375,0.48380470275878906
356,5188144.0,9.06472396850586,-0.23224449157714844,2.9880542755126953,-0.025567054748535156,-0.0021305084228515625,0.011717796325683594,0.3212699890136719,0.6911373138427734,-0.42528343200683594,0.48812103271484375
357,5188144.0,9.06472396850586,-0.23224449157714844,2.9880542755126953,-0.025567054748535156,-0.0021305084228515625,0.011717796325683594,0.3212699890136719,0.6911373138427734,-0.42528343200683594,0.48812103271484375
358,5188164.0,9.092257499694824,-0.1891469955444336,2.936577796936035,-0.025567054748535156,-0.0021305084228515625,0.011717796325683594,0.3212699890136719,0.6911373138427734,-0.42528343200683594,0.48812103271484375
359,5188164.0,9.092257499694824,-0.1891469955444336,2.936577796936035,-0.025567054748535156,-0.0021305084228515625,0.011717796325683594,0.3212699890136719,0.6911373138427734,-0.42528343200683594,0.48812103271484375
360,5188184.0,9.04676628112793,-0.1448535919189453,2.9258031845092773,-0.025567054748535156,-0.0021305084228515625,0.011717796325683594,0.3212699890136719,0.6911373138427734,-0.42528343200683594,0.48812103271484375
361,5188184.0,9.04676628112793,-0.1448535919189453,2.9258031845092773,-0.025567054748535156,-0.0021305084228515625,0.011717796325683594,0.3212699890136719,0.6911373138427734,-0.42528343200683594,0.48812103271484375
362,5188203.0,8.95458698272705,-0.17478179931640625,2.868340492248535,-0.025567054748535156,-0.0021305084228515625,0.011717796325683594,0.3212699890136719,0.6911373138427734,-0.42528343200683594,0.48812103271484375
363,5188203.0,8.95458698272705,-0.17478179931640625,2.868340492248535,-0.025567054748535156,-0.0021305084228515625,0.011717796325683594,0.3212699890136719,0.6911373138427734,-0.42528343200683594,0.48812103271484375
364,5188223.0,9.013246536254883,-0.23822975158691406,2.8994665145874023,-0.025567054748535156,-0.0021305084228515625,0.011717796325683594,0.3212699890136719,0.6911373138427734,-0.42528343200683594,0.48812103271484375
365,5188223.0,9.013246536254883,-0.23822975158691406,2.8994665145874023,-0.025567054748535156,-0.0021305084228515625,0.011717796325683594,0.3212699890136719,0.6911373138427734,-0.42528343200683594,0.48812103271484375
366,5188244.0,8.998881340026855,-0.1975269317626953,2.967702865600586,-0.025567054748535156,-0.0021305084228515625,0.011717796325683594,0.3212699890136719,0.6911373138427734,-0.42528343200683594,0.48812103271484375
367,5188264.0,8.971346855163574,-0.20111846923828125,2.944957733154297,-0.025567054748535156,-0.0021305084228515625,0.011717796325683594,0.3212699890136719,0.6911373138427734,-0.42528343200683594,0.48812103271484375
368,5188284.0,8.983318328857422,-0.15921878814697266,2.9545345306396484,-0.025567054748535156,-0.0021305084228515625,0.011717796325683594,0.3212699890136719,0.6911373138427734,-0.42528343200683594,0.48812103271484375
369,5188303.0,9.038386344909668,-0.2047100067138672,3.007208824157715,-0.025567054748535156,-0.0021305084228515625,0.011717796325683594,0.3212699890136719,0.6911373138427734,-0.42528343200683594,0.48812103271484375
370,5188323.0,9.050357818603516,-0.2502012252807617,2.9724912643432617,-0.025567054748535156,-0.0021305084228515625,0.011717796325683594,0.3212699890136719,0.6911373138427734,-0.42528343200683594,0.48812103271484375
371,5188444.0,9.016838073730469,-0.20830154418945312,2.9916458129882812,-0.042611122131347656,-0.0031957626342773438,-0.0010652542114257812,0.3212699890136719,0.6911373138427734,-0.42528343200683594,0.48812103271484375
372,5188444.0,9.016838073730469,-0.20830154418945312,2.9916458129882812,-0.042611122131347656,-0.0031957626342773438,-0.0010652542114257812,0.3212699890136719,0.6911373138427734,-0.42528343200683594,0.48812103271484375
373,5188464.0,9.049160957336426,-0.2502012252807617,2.959322929382324,-0.021305084228515625,-0.007456779479980469,-0.0010652542114257812,0.3212699890136719,0.6911373138427734,-0.42528343200683594,0.48812103271484375
374,5188464.0,9.049160957336426,-0.2502012252807617,2.959322929382324,-0.021305084228515625,-0.007456779479980469,-0.0010652542114257812,0.3212699890136719,0.6911373138427734,-0.42528343200683594,0.48812103271484375
375,5188484.0,9.137748718261719,-0.147247314453125,2.9246063232421875,-0.0031957626342773438,-0.020239830017089844,-0.0063915252685546875,0.3212699890136719,0.6911373138427734,-0.42528343200683594,0.48812103271484375
376,5188484.0,9.137748718261719,-0.147247314453125,2.9246063232421875,-0.0031957626342773438,-0.020239830017089844,-0.0063915252685546875,0.3212699890136719,0.6911373138427734,-0.42528343200683594,0.48812103271484375
377,5188503.0,9.04556941986084,-0.13886737823486328,2.9234085083007812,-0.01810932159423828,-0.010652542114257812,-0.0021305084228515625,0.3212699890136719,0.6911373138427734,-0.42528343200683594,0.48812103271484375
378,5188503.0,9.04556941986084,-0.13886737823486328,2.9234085083007812,-0.01810932159423828,-0.010652542114257812,-0.0021305084228515625,0.3212699890136719,0.6911373138427734,-0.42528343200683594,0.48812103271484375
379,5188523.0,8.983318328857422,-0.19872474670410156,2.9138317108154297,-0.023435592651367188,-0.01810932159423828,-0.009587287902832031,0.3212699890136719,0.6911373138427734,-0.42528343200683594,0.48812103271484375
380,5188523.0,8.983318328857422,-0.19872474670410156,2.9138317108154297,-0.023435592651367188,-0.01810932159423828,-0.009587287902832031,0.3212699890136719,0.6911373138427734,-0.42528343200683594,0.48812103271484375
381,5188543.0,9.068314552307129,-0.1999216079711914,2.9293947219848633,-0.023435592651367188,-0.01810932159423828,-0.009587287902832031,0.3212699890136719,0.6911373138427734,-0.42528343200683594,0.48812103271484375
382,5188543.0,9.068314552307129,-0.1999216079711914,2.9293947219848633,-0.023435592651367188,-0.01810932159423828,-0.009587287902832031,0.3212699890136719,0.6911373138427734,-0.42528343200683594,0.48812103271484375
383,5188563.0,9.059934616088867,-0.15083885192871094,2.8970718383789062,-0.023435592651367188,-0.01810932159423828,-0.009587287902832031,0.3212699890136719,0.6911373138427734,-0.42528343200683594,0.48812103271484375
384,5188563.0,9.059934616088867,-0.15083885192871094,2.8970718383789062,-0.023435592651367188,-0.01810932159423828,-0.009587287902832031,0.3212699890136719,0.6911373138427734,-0.42528343200683594,0.48812103271484375
385,5188583.0,8.989303588867188,-0.16520404815673828,2.9234085083007812,-0.023435592651367188,-0.01810932159423828,-0.009587287902832031,0.3212699890136719,0.6911373138427734,-0.42528343200683594,0.48812103271484375
386,5188583.0,8.989303588867188,-0.16520404815673828,2.9234085083007812,-0.023435592651367188,-0.01810932159423828,-0.009587287902832031,0.3212699890136719,0.6911373138427734,-0.42528343200683594,0.48812103271484375
387,5188602.0,9.003669738769531,-0.17717552185058594,2.9509429931640625,-0.023435592651367188,-0.01810932159423828,-0.009587287902832031,0.3212699890136719,0.6911373138427734,-0.42528343200683594,0.48812103271484375
388,5188602.0,9.003669738769531,-0.17717552185058594,2.9509429931640625,-0.023435592651367188,-0.01810932159423828,-0.009587287902832031,0.3212699890136719,0.6911373138427734,-0.42528343200683594,0.48812103271484375
389,5188622.0,9.041977882385254,-0.15562725067138672,2.932986259460449,-0.023435592651367188,-0.01810932159423828,-0.009587287902832031,0.3212699890136719,0.6911373138427734,-0.42528343200683594,0.48812103271484375
390,5188622.0,9.041977882385254,-0.15562725067138672,2.932986259460449,-0.023435592651367188,-0.01810932159423828,-0.009587287902832031,0.3212699890136719,0.6911373138427734,-0.42528343200683594,0.48812103271484375
391,5188642.0,9.061132431030273,-0.15083885192871094,2.9222116470336914,0.01597881317138672,-0.024501800537109375,-0.022370338439941406,0.3212699890136719,0.6911373138427734,-0.42528343200683594,0.48812103271484375
392,5188662.0,9.001275062561035,-0.1604156494140625,2.964111328125,0.011717796325683594,-0.026632308959960938,-0.025567054748535156,0.3212699890136719,0.6911373138427734,-0.42528343200683594,0.48812103271484375
393,5188682.0,9.061132431030273,-0.14605045318603516,2.931788444519043,0.0021305084228515625,-0.031958580017089844,-0.026632308959960938,0.3212699890136719,0.6911373138427734,-0.42528343200683594,0.48812103271484375
394,5188701.0,9.073103904724121,-0.1975269317626953,2.9832658767700195,0.005326271057128906,-0.025567054748535156,-0.022370338439941406,0.3212699890136719,0.6911373138427734,-0.42528343200683594,0.48812103271484375
395,5188721.0,9.020429611206055,-0.17478179931640625,2.964111328125,0.024501800537109375,-0.021305084228515625,-0.030893325805664062,0.3212699890136719,0.6911373138427734,-0.42528343200683594,0.48812103271484375
396,5188742.0,9.015641212463379,-0.13886737823486328,2.9772796630859375,0.03515434265136719,-0.01810932159423828,-0.02982807159423828,0.3212699890136719,0.6911373138427734,-0.42528343200683594,0.48812103271484375
397,5188762.0,9.059934616088867,-0.14006423950195312,2.9557313919067383,0.0170440673828125,-0.020239830017089844,-0.033023834228515625,0.3212699890136719,0.6911373138427734,-0.42528343200683594,0.48812103271484375
398,5188782.0,9.09584903717041,-0.12091064453125,2.942563056945801,0.0010652542114257812,-0.01597881317138672,-0.02982807159423828,0.3212699890136719,0.6911373138427734,-0.42528343200683594,0.48812103271484375
399,5188801.0,9.052752494812012,-0.2047100067138672,2.9174232482910156,-0.009587287902832031,-0.007456779479980469,-0.02769756317138672,0.3212699890136719,0.6911373138427734,-0.42528343200683594,0.48812103271484375
400,5188821.0,9.124580383300781,-0.18316173553466797,2.9246063232421875,-0.0031957626342773438,-0.010652542114257812,-0.03621959686279297,0.3212699890136719,0.6911373138427734,-0.42528343200683594,0.48812103271484375
401,5188942.0,9.073103904724121,-0.09696769714355469,2.91263484954834,0.014913558959960938,-0.0031957626342773438,-0.005326271057128906,0.3212699890136719,0.6911373138427734,-0.42528343200683594,0.48812103271484375
402,5188962.0,9.061132431030273,-0.13767051696777344,2.8910865783691406,-0.013848304748535156,-0.00852203369140625,-0.009587287902832031,0.3212699890136719,0.6911373138427734,-0.42528343200683594,0.48812103271484375
403,5188982.0,9.050357818603516,-0.09577083587646484,2.873128890991211,-0.02982807159423828,-0.014913558959960938,-0.014913558959960938,0.3212699890136719,0.6911373138427734,-0.42528343200683594,0.48812103271484375
404,5189002.0,9.02641487121582,-0.15323352813720703,2.942563056945801,-0.033023834228515625,-0.012783050537109375,-0.009587287902832031,0.3212699890136719,0.6911373138427734,-0.42528343200683594,0.48812103271484375
405,5189021.0,9.039584159851074,-0.14844417572021484,2.9186201095581055,-0.014913558959960938,-0.0170440673828125,-0.0170440673828125,0.3212699890136719,0.6911373138427734,-0.42528343200683594,0.48812103271484375
406,5189041.0,8.970149993896484,-0.12809276580810547,2.91263484954834,-0.014913558959960938,-0.0170440673828125,-0.0170440673828125,0.3212699890136719,0.6911373138427734,-0.42528343200683594,0.48812103271484375
407,5189061.0,9.027612686157227,-0.11372756958007812,2.941366195678711,-0.014913558959960938,-0.0170440673828125,-0.0170440673828125,0.3232126235961914,0.6841888427734375,-0.42929649353027344,0.4929971694946289
408,5189081.0,9.039584159851074,-0.11013603210449219,2.905451774597168,-0.014913558959960938,-0.0170440673828125,-0.0170440673828125,0.3231697082519531,0.6840591430664062,-0.4293394088745117,0.4932136535644531
409,5189101.0,9.073103904724121,-0.0921792984008789,2.879115104675293,-0.014913558959960938,-0.0170440673828125,-0.0170440673828125,0.3232126235961914,0.6839733123779297,-0.4293394088745117,0.49334239959716797
410,5189120.0,9.02402114868164,-0.12450218200683594,2.8934803009033203,-0.014913558959960938,-0.0170440673828125,-0.0170440673828125,0.3232126235961914,0.6838865280151367,-0.4294261932373047,0.49342918395996094
411,5189240.0,9.176057815551758,-0.08499622344970703,2.864748954772949,0.034089088439941406,-0.00852203369140625,0.0063915252685546875,0.3231697082519531,0.6837577819824219,-0.42955589294433594,0.4934720993041992
412,5189260.0,9.031203269958496,-0.11612224578857422,2.876720428466797,0.009587287902832031,0.00852203369140625,0.01810932159423828,0.32260799407958984,0.6832828521728516,-0.4295988082885742,0.4944648742675781
413,5189280.0,8.964163780212402,-0.1185159683227539,2.880311965942383,-0.010652542114257812,-0.0031957626342773438,0.012783050537109375,0.32265186309814453,0.6834125518798828,-0.42946910858154297,0.49442195892333984
414,5189300.0,9.152114868164062,-0.17478179931640625,2.8851003646850586,-0.00852203369140625,-0.01597881317138672,0.014913558959960938,0.32282447814941406,0.6833686828613281,-0.4294261932373047,0.4943351745605469
415,5189319.0,9.288588523864746,-0.12210750579833984,2.8815088272094727,0.005326271057128906,-0.010652542114257812,0.012783050537109375,0.3229532241821289,0.6833686828613281,-0.42925357818603516,0.49437808990478516
416,5189339.0,9.141340255737305,-0.173583984375,2.9234085083007812,-0.005326271057128906,0.00852203369140625,0.02982807159423828,0.3230400085449219,0.6834125518798828,-0.4291238784790039,0.49437808990478516
417,5189360.0,9.11500358581543,-0.22984981536865234,2.9461545944213867,-0.005326271057128906,0.00852203369140625,0.02982807159423828,0.3232126235961914,0.6835412979125977,-0.4289083480834961,0.4942922592163086
418,5189380.0,9.23471736907959,-0.2106952667236328,2.9461545944213867,-0.005326271057128906,0.00852203369140625,0.02982807159423828,0.3232126235961914,0.6835412979125977,-0.4289083480834961,0.4942922592163086
419,5189400.0,9.165283203125,-0.16879558563232422,2.937774658203125,-0.005326271057128906,0.00852203369140625,0.02982807159423828,0.3232126235961914,0.6835412979125977,-0.4289083480834961,0.4942922592163086
420,5189419.0,9.052752494812012,-0.23344135284423828,2.9653091430664062,-0.005326271057128906,0.00852203369140625,0.02982807159423828,0.3232126235961914,0.6835412979125977,-0.4289083480834961,0.4942922592163086
421,5189440.0,9.061132431030273,-0.3292121887207031,2.871932029724121,-0.03515434265136719,0.023435592651367188,0.09694194793701172,0.3232126235961914,0.6835412979125977,-0.4289083480834961,0.4942922592163086
422,5189460.0,9.09465217590332,-0.5243453979492188,2.8958749771118164,-0.0031957626342773438,0.01597881317138672,0.08948421478271484,0.3232126235961914,0.6835412979125977,-0.4289083480834961,0.4942922592163086
423,5189480.0,9.028809547424316,-0.5734281539916992,2.909043312072754,0.06604766845703125,0.01597881317138672,0.07350540161132812,0.3232126235961914,0.6835412979125977,-0.4289083480834961,0.4942922592163086
424,5189500.0,8.947403907775879,-0.5339231491088867,2.91263484954834,0.10013771057128906,0.014913558959960938,0.07563591003417969,0.3232126235961914,0.6835412979125977,-0.4289083480834961,0.4942922592163086
425,5189519.0,8.935432434082031,-0.5387115478515625,2.869537353515625,0.06391716003417969,0.012783050537109375,0.09267997741699219,0.3232126235961914,0.6835412979125977,-0.4289083480834961,0.4942922592163086
426,5189539.0,9.039584159851074,-0.336395263671875,2.8898887634277344,0.041545867919921875,0.009587287902832031,0.10652923583984375,0.3232126235961914,0.6835412979125977,-0.4289083480834961,0.4942922592163086
427,5189559.0,9.04437255859375,-0.3842802047729492,2.8886919021606445,0.0021305084228515625,0.02982807159423828,0.1502065658569336,0.3232126235961914,0.6835412979125977,-0.4289083480834961,0.4942922592163086
428,5189579.0,9.104228973388672,-0.42139148712158203,2.874326705932617,-0.019174575805664062,0.03515434265136719,0.1608591079711914,0.3232126235961914,0.6835412979125977,-0.4289083480834961,0.4942922592163086
429,5189599.0,9.435835838317871,-0.3160438537597656,3.0155887603759766,-0.025567054748535156,0.02982807159423828,0.1619243621826172,0.3232126235961914,0.6835412979125977,-0.4289083480834961,0.4942922592163086
430,5189618.0,9.732726097106934,-0.28012943267822266,3.2945213317871094,-0.041545867919921875,0.05859088897705078,0.18109989166259766,0.3232126235961914,0.6835412979125977,-0.4289083480834961,0.4942922592163086
431,5189638.0,9.945816993713379,-0.31963539123535156,3.553103446960449,-0.07670116424560547,0.09481048583984375,0.23223400115966797,0.3232126235961914,0.6835412979125977,-0.4289083480834961,0.4942922592163086
432,5189759.0,14.863656997680664,-2.927000045776367,3.806896209716797,-0.07670116424560547,0.09481048583984375,0.23223400115966797,0.34876251220703125,0.7214775085449219,-0.3901948928833008,0.4534645080566406
433,5189779.0,14.960624694824219,-2.540325164794922,4.205543518066406,-0.07670116424560547,0.09481048583984375,0.23223400115966797,0.34876251220703125,0.7214775085449219,-0.3901948928833008,0.4534645080566406
434,5189799.0,15.10667610168457,-3.84281063079834,4.369550704956055,-0.07670116424560547,0.09481048583984375,0.23223400115966797,0.34876251220703125,0.7214775085449219,-0.3901948928833008,0.4534645080566406
435,5189819.0,15.34969425201416,-5.267403602600098,5.067481994628906,-0.07670116424560547,0.09481048583984375,0.23223400115966797,0.34876251220703125,0.7214775085449219,-0.3901948928833008,0.4534645080566406
436,5189838.0,13.949044227600098,-3.338815689086914,5.725907325744629,-0.07670116424560547,0.09481048583984375,0.23223400115966797,0.34876251220703125,0.7214775085449219,-0.3901948928833008,0.4534645080566406
437,5189858.0,13.065556526184082,-2.9533376693725586,6.955367088317871,0.9736804962158203,2.522623062133789,3.102144241333008,0.34876251220703125,0.7214775085449219,-0.3901948928833008,0.4534645080566406
438,5189878.0,11.296187400817871,-4.382719039916992,6.839244842529297,0.19175338745117188,2.8528642654418945,3.114927291870117,0.34876251220703125,0.7214775085449219,-0.3901948928833008,0.4534645080566406
439,5189898.0,8.95458698272705,-4.240260124206543,5.788158416748047,0.1384878158569336,3.0243778228759766,2.781489372253418,0.34876251220703125,0.7214775085449219,-0.3901948928833008,0.4534645080566406
440,5189918.0,6.966141700744629,-4.108574867248535,5.438594818115234,0.37711429595947266,3.1894989013671875,2.5673646926879883,0.34876251220703125,0.7214775085449219,-0.3901948928833008,0.4534645080566406
441,5189937.0,5.32486629486084,-4.757423400878906,5.505634307861328,0.6125450134277344,3.323725700378418,2.481076240539551,0.34876251220703125,0.7214775085449219,-0.3901948928833008,0.4534645080566406
442,5190058.0,-5.044735908508301,-0.7446193695068359,4.127729415893555,1.2368097305297852,3.0030717849731445,1.9015541076660156,0.34876251220703125,0.7214775085449219,-0.3901948928833008,0.4534645080566406
443,5190078.0,-6.284970283508301,0.20590686798095703,4.734677314758301,0.9981822967529297,2.9210433959960938,1.8877058029174805,0.34876251220703125,0.7214775085449219,-0.3901948928833008,0.4534645080566406
444,5190098.0,-6.630943298339844,0.3962516784667969,5.282966613769531,0.5411701202392578,2.857126235961914,2.0783939361572266,0.34876251220703125,0.7214775085449219,-0.3901948928833008,0.4534645080566406
445,5190118.0,-6.63453483581543,-0.26456642150878906,5.643304824829102,0.3121318817138672,2.8336896896362305,2.2435150146484375,0.34876251220703125,0.7214775085449219,-0.3901948928833008,0.4534645080566406
446,5190137.0,-7.713155746459961,-1.3072738647460938,5.270995140075684,0.6146755218505859,2.8688440322875977,2.5098390579223633,0.34876251220703125,0.7214775085449219,-0.3901948928833008,0.4534645080566406
447,5190157.0,-8.320104598999023,-0.6560306549072266,4.929811477661133,0.6146755218505859,2.8688440322875977,2.5098390579223633,0.34876251220703125,0.7214775085449219,-0.3901948928833008,0.4534645080566406
448,5190177.0,-9.480130195617676,0.48723411560058594,5.005230903625488,0.6146755218505859,2.8688440322875977,2.5098390579223633,0.14725589752197266,0.9751195907592773,-0.04825115203857422,-0.15839195251464844
449,5190197.0,-10.26425552368164,-1.3707218170166016,5.511619567871094,0.6146755218505859,2.8688440322875977,2.5098390579223633,0.13167572021484375,0.9726591110229492,-0.028614044189453125,-0.18907737731933594
450,5190217.0,-10.732336044311523,-1.9034481048583984,5.354794502258301,0.6146755218505859,2.8688440322875977,2.5098390579223633,0.11859893798828125,0.96868896484375,-0.0075531005859375,-0.2178640365600586
451,5190236.0,-12.073129653930664,-0.20351314544677734,5.327260971069336,0.6146755218505859,2.8688440322875977,2.5098390579223633,0.10401153564453125,0.9641141891479492,0.012126922607421875,-0.2440176010131836
452,5190357.0,-7.168457984924316,1.7071170806884766,7.802940368652344,0.6146755218505859,2.8688440322875977,2.5098390579223633,0.08739566802978516,0.9594097137451172,0.027448654174804688,-0.26676273345947266
453,5190377.0,-5.061496734619141,0.24780654907226562,9.073103904724121,0.6146755218505859,2.8688440322875977,2.5098390579223633,0.08739566802978516,0.9594097137451172,0.027448654174804688,-0.26676273345947266
454,5190397.0,-2.1763954162597656,-0.20111846923828125,9.068314552307129,0.6146755218505859,2.8688440322875977,2.5098390579223633,0.08739566802978516,0.9594097137451172,0.027448654174804688,-0.26676273345947266
455,5190417.0,-0.7972927093505859,1.941756248474121,8.467351913452148,0.6146755218505859,2.8688440322875977,2.5098390579223633,0.08739566802978516,0.9594097137451172,0.027448654174804688,-0.26676273345947266
456,5190436.0,3.8871049880981445,2.935379981994629,7.504853248596191,0.6146755218505859,2.8688440322875977,2.5098390579223633,0.08739566802978516,0.9594097137451172,0.027448654174804688,-0.26676273345947266
457,5190556.0,6.281378746032715,-8.6349515914917,16.902381896972656,-0.020239830017089844,-2.3138246536254883,-2.001692771911621,0.08739566802978516,0.9594097137451172,0.027448654174804688,-0.26676273345947266
458,5190576.0,0.03591346740722656,-5.733090400695801,12.88718318939209,-1.8983583450317383,-0.07776641845703125,0.08735370635986328,0.1151895523071289,0.9602727890014648,-0.2523040771484375,0.03085803985595703
459,5190596.0,0.43815135955810547,2.41342830657959,9.070709228515625,-1.7289762496948242,0.38244152069091797,0.7797966003417969,0.1335315704345703,0.958806037902832,-0.249542236328125,0.024168014526367188
460,5190616.0,2.5199737548828125,-2.1692123413085938,10.26545238494873,-0.4836444854736328,0.7989721298217773,0.6924428939819336,0.14699649810791016,0.9586763381958008,-0.24319744110107422,0.015105247497558594
461,5190635.0,1.419804573059082,-0.6368770599365234,8.172856330871582,1.1579771041870117,0.8415842056274414,0.7073564529418945,0.14501190185546875,0.9604024887084961,-0.23784637451171875,0.006214141845703125
462,5190656.0,1.416213035583496,0.8739099502563477,6.380742073059082,1.1579771041870117,0.8415842056274414,0.7073564529418945,0.13085556030273438,0.9639415740966797,-0.2317180633544922,0.0005178451538085938
463,5190676.0,1.909433364868164,2.065061569213867,8.466155052185059,1.1579771041870117,0.8415842056274414,0.7073564529418945,0.13085556030273438,0.9639415740966797,-0.2317180633544922,0.0005178451538085938
464,5190696.0,2.3344173431396484,1.332413673400879,10.482133865356445,1.1579771041870117,0.8415842056274414,0.7073564529418945,0.13085556030273438,0.9639415740966797,-0.2317180633544922,0.0005178451538085938
465,5190716.0,2.8192577362060547,-0.5925827026367188,11.050774574279785,1.1579771041870117,0.8415842056274414,0.7073564529418945,0.13085556030273438,0.9639415740966797,-0.2317180633544922,0.0005178451538085938
466,5190736.0,3.022770881652832,-0.7817306518554688,10.606636047363281,1.1579771041870117,0.8415842056274414,0.7073564529418945,0.13085556030273438,0.9639415740966797,-0.2317180633544922,0.0005178451538085938
467,5190755.0,3.6069746017456055,0.32442378997802734,9.299362182617188,1.1579771041870117,0.8415842056274414,0.7073564529418945,0.13085556030273438,0.9639415740966797,-0.2317180633544922,0.0005178451538085938
468,5190755.0,3.6069746017456055,0.32442378997802734,9.299362182617188,1.1579771041870117,0.8415842056274414,0.7073564529418945,0.13085556030273438,0.9639415740966797,-0.2317180633544922,0.0005178451538085938
469,5190775.0,4.948965072631836,-1.011580467224121,10.111021995544434,1.1579771041870117,0.8415842056274414,0.7073564529418945,0.13085556030273438,0.9639415740966797,-0.2317180633544922,0.0005178451538085938
470,5190775.0,4.948965072631836,-1.011580467224121,10.111021995544434,1.1579771041870117,0.8415842056274414,0.7073564529418945,0.13085556030273438,0.9639415740966797,-0.2317180633544922,0.0005178451538085938
471,5190795.0,6.68361759185791,-3.4776830673217773,10.263057708740234,1.1579771041870117,0.8415842056274414,0.7073564529418945,0.13085556030273438,0.9639415740966797,-0.2317180633544922,0.0005178451538085938
472,5190795.0,6.68361759185791,-3.4776830673217773,10.263057708740234,1.1579771041870117,0.8415842056274414,0.7073564529418945,0.13085556030273438,0.9639415740966797,-0.2317180633544922,0.0005178451538085938
473,5190815.0,7.300143241882324,-6.041952133178711,9.081483840942383,1.1579771041870117,0.8415842056274414,0.7073564529418945,0.13085556030273438,0.9639415740966797,-0.2317180633544922,0.0005178451538085938
474,5190815.0,7.300143241882324,-6.041952133178711,9.081483840942383,1.1579771041870117,0.8415842056274414,0.7073564529418945,0.13085556030273438,0.9639415740966797,-0.2317180633544922,0.0005178451538085938
475,5190835.0,6.800936698913574,-6.508835792541504,8.275810241699219,1.1579771041870117,0.8415842056274414,0.7073564529418945,0.13085556030273438,0.9639415740966797,-0.2317180633544922,0.0005178451538085938
476,5190835.0,6.800936698913574,-6.508835792541504,8.275810241699219,1.1579771041870117,0.8415842056274414,0.7073564529418945,0.13085556030273438,0.9639415740966797,-0.2317180633544922,0.0005178451538085938
477,5191054.0,-6.342432975769043,0.07182788848876953,4.995654106140137,-0.7552947998046875,-1.8344411849975586,-0.7797966003417969,0.13849449157714844,0.9706745147705078,0.10802459716796875,-0.16421794891357422
478,5191054.0,-6.342432975769043,0.07182788848876953,4.995654106140137,-0.7552947998046875,-1.8344411849975586,-0.7797966003417969,0.13849449157714844,0.9706745147705078,0.10802459716796875,-0.16421794891357422
479,5191074.0,-5.27338981628418,0.483642578125,5.177618980407715,-1.6064672470092773,-2.336195945739746,-1.4189748764038086,0.13849449157714844,0.9706745147705078,0.10802459716796875,-0.16421794891357422
480,5191074.0,-5.27338981628418,0.483642578125,5.177618980407715,-1.6064672470092773,-2.336195945739746,-1.4189748764038086,0.13849449157714844,0.9706745147705078,0.10802459716796875,-0.16421794891357422
481,5191094.0,-3.927806854248047,-0.25139808654785156,5.20395565032959,-2.002758026123047,-2.4384641647338867,-2.132723808288574,0.13849449157714844,0.9706745147705078,0.10802459716796875,-0.16421794891357422
482,5191094.0,-3.927806854248047,-0.25139808654785156,5.20395565032959,-2.002758026123047,-2.4384641647338867,-2.132723808288574,0.13849449157714844,0.9706745147705078,0.10802459716796875,-0.16421794891357422
483,5191114.0,-3.3555755615234375,-2.814469337463379,5.156069755554199,-2.1156787872314453,-2.342587471008301,-2.3873300552368164,0.13849449157714844,0.9706745147705078,0.10802459716796875,-0.16421794891357422
484,5191114.0,-3.3555755615234375,-2.814469337463379,5.156069755554199,-2.1156787872314453,-2.342587471008301,-2.3873300552368164,0.13849449157714844,0.9706745147705078,0.10802459716796875,-0.16421794891357422
485,5191134.0,-2.9784774780273438,-3.0766429901123047,4.8472089767456055,-1.9441661834716797,-2.520491600036621,-2.739943504333496,0.13849449157714844,0.9706745147705078,0.10802459716796875,-0.16421794891357422
486,5191134.0,-2.9784774780273438,-3.0766429901123047,4.8472089767456055,-1.9441661834716797,-2.520491600036621,-2.739943504333496,0.13849449157714844,0.9706745147705078,0.10802459716796875,-0.16421794891357422
487,5191354.0,10.702407836914062,-3.4716978073120117,9.032401084899902,0.551823616027832,-2.5396671295166016,-3.6891231536865234,0.13918495178222656,0.9160356521606445,-0.19382476806640625,0.32234954833984375
488,5191354.0,10.702407836914062,-3.4716978073120117,9.032401084899902,0.551823616027832,-2.5396671295166016,-3.6891231536865234,0.13918495178222656,0.9160356521606445,-0.19382476806640625,0.32234954833984375
489,5191373.0,11.2674560546875,-3.780559539794922,8.846844673156738,0.551823616027832,-2.5396671295166016,-3.6891231536865234,0.13918495178222656,0.9160356521606445,-0.19382476806640625,0.32234954833984375
490,5191373.0,11.2674560546875,-3.780559539794922,8.846844673156738,0.551823616027832,-2.5396671295166016,-3.6891231536865234,0.13918495178222656,0.9160356521606445,-0.19382476806640625,0.32234954833984375
491,5191393.0,10.492908477783203,-0.924189567565918,8.575094223022461,0.551823616027832,-2.5396671295166016,-3.6891231536865234,0.13918495178222656,0.9160356521606445,-0.19382476806640625,0.32234954833984375
492,5191393.0,10.492908477783203,-0.924189567565918,8.575094223022461,0.551823616027832,-2.5396671295166016,-3.6891231536865234,0.13918495178222656,0.9160356521606445,-0.19382476806640625,0.32234954833984375
493,5191413.0,10.66769027709961,-0.8954582214355469,7.9058942794799805,0.551823616027832,-2.5396671295166016,-3.6891231536865234,0.13918495178222656,0.9160356521606445,-0.19382476806640625,0.32234954833984375
494,5191413.0,10.66769027709961,-0.8954582214355469,7.9058942794799805,0.551823616027832,-2.5396671295166016,-3.6891231536865234,0.13918495178222656,0.9160356521606445,-0.19382476806640625,0.32234954833984375
495,5191433.0,11.365621566772461,-1.2976961135864258,7.452179908752441,0.551823616027832,-2.5396671295166016,-3.6891231536865234,0.13918495178222656,0.9160356521606445,-0.19382476806640625,0.32234954833984375
496,5191433.0,11.365621566772461,-1.2976961135864258,7.452179908752441,0.551823616027832,-2.5396671295166016,-3.6891231536865234,0.13918495178222656,0.9160356521606445,-0.19382476806640625,0.32234954833984375
497,5191553.0,10.820923805236816,-0.03591346740722656,5.129733085632324,-0.5411701202392578,-1.3934078216552734,-1.3305549621582031,0.18126487731933594,0.7602338790893555,-0.3403902053833008,0.5228195190429688
498,5191553.0,10.820923805236816,-0.03591346740722656,5.129733085632324,-0.5411701202392578,-1.3934078216552734,-1.3305549621582031,0.18126487731933594,0.7602338790893555,-0.3403902053833008,0.5228195190429688
499,5191572.0,10.067924499511719,-0.18076705932617188,5.041145324707031,-0.5411701202392578,-1.3934078216552734,-1.3305549621582031,0.18126487731933594,0.7602338790893555,-0.3403902053833008,0.5228195190429688
500,5191572.0,10.067924499511719,-0.18076705932617188,5.041145324707031,-0.5411701202392578,-1.3934078216552734,-1.3305549621582031,0.18126487731933594,0.7602338790893555,-0.3403902053833008,0.5228195190429688
501,5191592.0,10.40791130065918,-0.2765378952026367,4.765803337097168,-0.5411701202392578,-1.3934078216552734,-1.3305549621582031,0.18126487731933594,0.7602338790893555,-0.3403902053833008,0.5228195190429688
502,5191592.0,10.40791130065918,-0.2765378952026367,4.765803337097168,-0.5411701202392578,-1.3934078216552734,-1.3305549621582031,0.18126487731933594,0.7602338790893555,-0.3403902053833008,0.5228195190429688
503,5191612.0,10.485725402832031,-0.16879558563232422,4.470109939575195,-0.5411701202392578,-1.3934078216552734,-1.3305549621582031,0.18126487731933594,0.7602338790893555,-0.3403902053833008,0.5228195190429688
504,5191612.0,10.485725402832031,-0.16879558563232422,4.470109939575195,-0.5411701202392578,-1.3934078216552734,-1.3305549621582031,0.18126487731933594,0.7602338790893555,-0.3403902053833008,0.5228195190429688
505,5191632.0,9.446610450744629,0.040701866149902344,4.176812171936035,-0.5411701202392578,-1.3934078216552734,-1.3305549621582031,0.18126487731933594,0.7602338790893555,-0.3403902053833008,0.5228195190429688
506,5191632.0,9.446610450744629,0.040701866149902344,4.176812171936035,-0.5411701202392578,-1.3934078216552734,-1.3305549621582031,0.18126487731933594,0.7602338790893555,-0.3403902053833008,0.5228195190429688
507,5191752.0,8.745087623596191,0.5303316116333008,3.8559789657592773,-0.4559469223022461,0.04687213897705078,0.1619243621826172,0.18126487731933594,0.7602338790893555,-0.3403902053833008,0.5228195190429688
508,5191752.0,8.745087623596191,0.5303316116333008,3.8559789657592773,-0.4559469223022461,0.04687213897705078,0.1619243621826172,0.18126487731933594,0.7602338790893555,-0.3403902053833008,0.5228195190429688
509,5191772.0,8.991698265075684,0.14365577697753906,3.6524658203125,-0.4559469223022461,0.04687213897705078,0.1619243621826172,0.18126487731933594,0.7602338790893555,-0.3403902053833008,0.5228195190429688
510,5191772.0,8.991698265075684,0.14365577697753906,3.6524658203125,-0.4559469223022461,0.04687213897705078,0.1619243621826172,0.18126487731933594,0.7602338790893555,-0.3403902053833008,0.5228195190429688
511,5191791.0,9.089863777160645,0.21907520294189453,3.586623191833496,-0.4559469223022461,0.04687213897705078,0.1619243621826172,0.18126487731933594,0.7602338790893555,-0.3403902053833008,0.5228195190429688
512,5191791.0,9.089863777160645,0.21907520294189453,3.586623191833496,-0.4559469223022461,0.04687213897705078,0.1619243621826172,0.18126487731933594,0.7602338790893555,-0.3403902053833008,0.5228195190429688
513,5191811.0,8.848041534423828,0.6033563613891602,3.5758485794067383,-0.4559469223022461,0.04687213897705078,0.1619243621826172,0.18126487731933594,0.7602338790893555,-0.3403902053833008,0.5228195190429688
514,5191811.0,8.848041534423828,0.6033563613891602,3.5758485794067383,-0.4559469223022461,0.04687213897705078,0.1619243621826172,0.18126487731933594,0.7602338790893555,-0.3403902053833008,0.5228195190429688
515,5191831.0,8.867196083068848,0.6931419372558594,3.529160499572754,-0.4559469223022461,0.04687213897705078,0.1619243621826172,0.18126487731933594,0.7602338790893555,-0.3403902053833008,0.5228195190429688
516,5191831.0,8.867196083068848,0.6931419372558594,3.529160499572754,-0.4559469223022461,0.04687213897705078,0.1619243621826172,0.18126487731933594,0.7602338790893555,-0.3403902053833008,0.5228195190429688
517,5191851.0,9.000078201293945,0.6380739212036133,3.5985946655273438,-0.4559469223022461,0.04687213897705078,0.1619243621826172,0.18126487731933594,0.7602338790893555,-0.3403902053833008,0.5228195190429688
518,5191871.0,9.122185707092285,0.39864635467529297,3.336421012878418,-0.4559469223022461,0.04687213897705078,0.1619243621826172,0.18126487731933594,0.7602338790893555,-0.3403902053833008,0.5228195190429688
519,5191891.0,8.956981658935547,0.3603382110595703,3.2669878005981445,-0.4559469223022461,0.04687213897705078,0.1619243621826172,0.18126487731933594,0.7602338790893555,-0.3403902053833008,0.5228195190429688
520,5191910.0,8.901912689208984,0.48005199432373047,3.423811912536621,-0.4559469223022461,0.04687213897705078,0.1619243621826172,0.18126487731933594,0.7602338790893555,-0.3403902053833008,0.5228195190429688
521,5191930.0,9.033597946166992,0.6165256500244141,3.438178062438965,-0.4559469223022461,0.04687213897705078,0.1619243621826172,0.18126487731933594,0.7602338790893555,-0.3403902053833008,0.5228195190429688
522,5192051.0,8.643331527709961,0.3124523162841797,3.3663501739501953,-0.2716503143310547,0.05539512634277344,0.11718177795410156,0.18126487731933594,0.7602338790893555,-0.3403902053833008,0.5228195190429688
523,5192071.0,8.801353454589844,0.2549896240234375,3.4178266525268555,-0.2716503143310547,0.05539512634277344,0.11718177795410156,0.24013233184814453,0.7513866424560547,-0.3709897994995117,0.4900197982788086
524,5192091.0,8.889941215515137,0.007182121276855469,3.375926971435547,-0.2716503143310547,0.05539512634277344,0.11718177795410156,0.24362850189208984,0.7504367828369141,-0.37193965911865234,0.4890270233154297
525,5192111.0,8.782198905944824,-0.12210750579833984,3.458529472351074,-0.2716503143310547,0.05539512634277344,0.11718177795410156,0.24690818786621094,0.7499628067016602,-0.37267303466796875,0.48755931854248047
526,5192130.0,8.80614185333252,-0.16640186309814453,3.499232292175293,-0.2716503143310547,0.05539512634277344,0.11718177795410156,0.2495412826538086,0.7499628067016602,-0.3730182647705078,0.4859628677368164
527,5192250.0,8.883955955505371,0.1975269317626953,3.6404943466186523,-0.013848304748535156,-0.033023834228515625,0.009587287902832031,0.2513542175292969,0.750091552734375,-0.37297534942626953,0.48484039306640625
528,5192250.0,8.883955955505371,0.1975269317626953,3.6404943466186523,-0.013848304748535156,-0.033023834228515625,0.009587287902832031,0.2513542175292969,0.750091552734375,-0.37297534942626953,0.48484039306640625
529,5192270.0,8.917475700378418,-0.014365196228027344,3.553103446960449,-0.0916147232055664,-0.019174575805664062,0.014913558959960938,0.2513542175292969,0.750091552734375,-0.37297534942626953,0.48484039306640625
530,5192270.0,8.917475700378418,-0.014365196228027344,3.553103446960449,-0.0916147232055664,-0.019174575805664062,0.014913558959960938,0.2513542175292969,0.750091552734375,-0.37297534942626953,0.48484039306640625
531,5192290.0,8.92705249786377,-0.0658416748046875,3.4166297912597656,-0.04474163055419922,-0.03835010528564453,0.021305084228515625,0.2513542175292969,0.750091552734375,-0.37297534942626953,0.48484039306640625
532,5192290.0,8.92705249786377,-0.0658416748046875,3.4166297912597656,-0.04474163055419922,-0.03835010528564453,0.021305084228515625,0.2513542175292969,0.750091552734375,-0.37297534942626953,0.48484039306640625
533,5192310.0,8.779805183410645,0.009576797485351562,3.4537410736083984,0.034089088439941406,-0.03621959686279297,0.010652542114257812,0.2513542175292969,0.750091552734375,-0.37297534942626953,0.48484039306640625
534,5192310.0,8.779805183410645,0.009576797485351562,3.4537410736083984,0.034089088439941406,-0.03621959686279297,0.010652542114257812,0.2513542175292969,0.750091552734375,-0.37297534942626953,0.48484039306640625
535,5192329.0,8.705582618713379,0.022745132446289062,3.5973968505859375,0.042611122131347656,-0.054329872131347656,0.014913558959960938,0.2513542175292969,0.750091552734375,-0.37297534942626953,0.48484039306640625
536,5192329.0,8.705582618713379,0.022745132446289062,3.5973968505859375,0.042611122131347656,-0.054329872131347656,0.014913558959960938,0.2513542175292969,0.750091552734375,-0.37297534942626953,0.48484039306640625
537,5192449.0,8.889941215515137,0.07541942596435547,3.58303165435791,0.042611122131347656,-0.054329872131347656,0.014913558959960938,0.25588512420654297,0.7452154159545898,-0.37137794494628906,0.49118518829345703
538,5192469.0,8.775016784667969,0.040701866149902344,3.51479434967041,0.042611122131347656,-0.054329872131347656,0.014913558959960938,0.25588512420654297,0.7452154159545898,-0.37137794494628906,0.49118518829345703
539,5192489.0,8.889941215515137,-0.041899681091308594,3.559088706970215,0.042611122131347656,-0.054329872131347656,0.014913558959960938,0.25588512420654297,0.7452154159545898,-0.37137794494628906,0.49118518829345703
540,5192509.0,9.140143394470215,-0.18555545806884766,3.466909408569336,0.042611122131347656,-0.054329872131347656,0.014913558959960938,0.25588512420654297,0.7452154159545898,-0.37137794494628906,0.49118518829345703
541,5192529.0,9.008458137512207,-0.22506141662597656,3.423811912536621,0.042611122131347656,-0.054329872131347656,0.014913558959960938,0.25588512420654297,0.7452154159545898,-0.37137794494628906,0.49118518829345703
542,5192549.0,8.838464736938477,-0.23583602905273438,3.4441633224487305,0.042611122131347656,-0.054329872131347656,0.014913558959960938,0.25588512420654297,0.7452154159545898,-0.37137794494628906,0.49118518829345703
543,5192569.0,8.956981658935547,-0.15083885192871094,3.433389663696289,0.042611122131347656,-0.054329872131347656,0.014913558959960938,0.25588512420654297,0.7452154159545898,-0.37137794494628906,0.49118518829345703
544,5192589.0,9.067117691040039,-0.0921792984008789,3.4429664611816406,0.042611122131347656,-0.054329872131347656,0.014913558959960938,0.25588512420654297,0.7452154159545898,-0.37137794494628906,0.49118518829345703
545,5192609.0,8.862407684326172,-0.11013603210449219,3.4752893447875977,0.042611122131347656,-0.054329872131347656,0.014913558959960938,0.25588512420654297,0.7452154159545898,-0.37137794494628906,0.49118518829345703
546,5192629.0,8.792973518371582,-0.21428680419921875,3.484866142272949,0.042611122131347656,-0.054329872131347656,0.014913558959960938,0.25588512420654297,0.7452154159545898,-0.37137794494628906,0.49118518829345703
547,5192648.0,8.946207046508789,-0.36871814727783203,3.474092483520508,-0.184295654296875,0.014913558959960938,0.09481048583984375,0.25588512420654297,0.7452154159545898,-0.37137794494628906,0.49118518829345703
548,5192668.0,8.934235572814941,-0.46089744567871094,3.405855178833008,-0.11718177795410156,0.0287628173828125,0.10759449005126953,0.25588512420654297,0.7452154159545898,-0.37137794494628906,0.49118518829345703
549,5192688.0,8.728327751159668,-0.36153507232666016,3.5195837020874023,-0.01810932159423828,0.019174575805664062,0.09481048583984375,0.25588512420654297,0.7452154159545898,-0.37137794494628906,0.49118518829345703
550,5192708.0,8.721144676208496,-0.24660968780517578,3.5303573608398438,0.025567054748535156,-0.005326271057128906,0.07776641845703125,0.25588512420654297,0.7452154159545898,-0.37137794494628906,0.49118518829345703
551,5192728.0,8.73551082611084,-0.1340789794921875,3.5447235107421875,-0.004261016845703125,-0.0031957626342773438,0.04474163055419922,0.25588512420654297,0.7452154159545898,-0.37137794494628906,0.49118518829345703
552,5192747.0,8.660091400146484,-0.12210750579833984,3.524372100830078,-0.004261016845703125,-0.0031957626342773438,0.04474163055419922,0.25588512420654297,0.7452154159545898,-0.37137794494628906,0.49118518829345703
553,5192767.0,8.673259735107422,-0.20590686798095703,3.521977424621582,-0.004261016845703125,-0.0031957626342773438,0.04474163055419922,0.25588512420654297,0.7452154159545898,-0.37137794494628906,0.49118518829345703
554,5192787.0,8.792973518371582,-0.21668148040771484,3.502823829650879,-0.004261016845703125,-0.0031957626342773438,0.04474163055419922,0.25588512420654297,0.7452154159545898,-0.37137794494628906,0.49118518829345703
555,5192807.0,8.912687301635742,-0.2861156463623047,3.523174285888672,-0.004261016845703125,-0.0031957626342773438,0.04474163055419922,0.25588512420654297,0.7452154159545898,-0.37137794494628906,0.49118518829345703
556,5192827.0,8.937827110290527,-0.3830833435058594,3.434586524963379,-0.004261016845703125,-0.0031957626342773438,0.04474163055419922,0.25588512420654297,0.7452154159545898,-0.37137794494628906,0.49118518829345703
557,5192849.0,8.934235572814941,-0.2525959014892578,3.4836692810058594,0.01597881317138672,0.0,0.033023834228515625,0.25588512420654297,0.7452154159545898,-0.37137794494628906,0.49118518829345703
558,5192868.0,9.02402114868164,-0.1867532730102539,3.500429153442383,0.005326271057128906,0.0010652542114257812,0.052199363708496094,0.25588512420654297,0.7452154159545898,-0.37137794494628906,0.49118518829345703
559,5192888.0,9.050357818603516,-0.18196487426757812,3.4980344772338867,-0.04687213897705078,0.020239830017089844,0.06711292266845703,0.25588512420654297,0.7452154159545898,-0.37137794494628906,0.49118518829345703
560,5192908.0,8.968952178955078,-0.2286529541015625,3.5076122283935547,-0.09907245635986328,0.026632308959960938,0.07563591003417969,0.25588512420654297,0.7452154159545898,-0.37137794494628906,0.49118518829345703
561,5192928.0,8.894729614257812,-0.3316068649291992,3.496837615966797,-0.12037849426269531,0.02982807159423828,0.07776641845703125,0.25588512420654297,0.7452154159545898,-0.37137794494628906,0.49118518829345703
562,5192948.0,8.930644035339355,-0.40822315216064453,3.51479434967041,-0.12037849426269531,0.02982807159423828,0.07776641845703125,0.25588512420654297,0.7452154159545898,-0.37137794494628906,0.49118518829345703
563,5192948.0,8.930644035339355,-0.40822315216064453,3.51479434967041,-0.12037849426269531,0.02982807159423828,0.07776641845703125,0.25588512420654297,0.7452154159545898,-0.37137794494628906,0.49118518829345703
564,5192967.0,8.868392944335938,-0.4285745620727539,3.4716978073120117,-0.12037849426269531,0.02982807159423828,0.07776641845703125,0.25588512420654297,0.7452154159545898,-0.37137794494628906,0.49118518829345703
565,5192967.0,8.868392944335938,-0.4285745620727539,3.4716978073120117,-0.12037849426269531,0.02982807159423828,0.07776641845703125,0.25588512420654297,0.7452154159545898,-0.37137794494628906,0.49118518829345703
566,5192987.0,8.707976341247559,-0.2885093688964844,3.5399351119995117,-0.12037849426269531,0.02982807159423828,0.07776641845703125,0.25588512420654297,0.7452154159545898,-0.37137794494628906,0.49118518829345703
567,5192987.0,8.707976341247559,-0.2885093688964844,3.5399351119995117,-0.12037849426269531,0.02982807159423828,0.07776641845703125,0.25588512420654297,0.7452154159545898,-0.37137794494628906,0.49118518829345703
568,5193007.0,8.739102363586426,-0.28012943267822266,3.621339797973633,-0.12037849426269531,0.02982807159423828,0.07776641845703125,0.25588512420654297,0.7452154159545898,-0.37137794494628906,0.49118518829345703
569,5193007.0,8.739102363586426,-0.28012943267822266,3.621339797973633,-0.12037849426269531,0.02982807159423828,0.07776641845703125,0.25588512420654297,0.7452154159545898,-0.37137794494628906,0.49118518829345703
570,5193027.0,8.825296401977539,-0.3232269287109375,3.559088706970215,-0.12037849426269531,0.02982807159423828,0.07776641845703125,0.25588512420654297,0.7452154159545898,-0.37137794494628906,0.49118518829345703
