,timestamp,accel_x,accel_y,accel_z,gyro_x,gyro_y,gyro_z,ori_scalar,ori_x,ori_y,ori_z
0,4668064.0,14.684085845947266,-1.6544437408447266,7.272608757019043,-1.6043367385864258,-0.599761962890625,-0.0980072021484375,0.45618343353271484,0.5678339004516602,-0.5800924301147461,0.36460113525390625
1,4668084.0,14.787039756774902,-0.5925827026367188,6.002446174621582,-1.6043367385864258,-0.599761962890625,-0.0980072021484375,0.45618343353271484,0.5678339004516602,-0.5800924301147461,0.36460113525390625
2,4668104.0,12.83570671081543,-0.9648923873901367,4.5694732666015625,-1.6043367385864258,-0.599761962890625,-0.0980072021484375,0.45618343353271484,0.5678339004516602,-0.5800924301147461,0.36460113525390625
3,4668124.0,10.7371244430542,-1.4413528442382812,4.142094612121582,-1.6043367385864258,-0.599761962890625,-0.0980072021484375,0.45618343353271484,0.5678339004516602,-0.5800924301147461,0.36460113525390625
4,4668144.0,9.794977188110352,-1.3407936096191406,4.650877952575684,-1.6043367385864258,-0.599761962890625,-0.0980072021484375,0.45618343353271484,0.5678339004516602,-0.5800924301147461,0.36460113525390625
5,4668164.0,9.820116996765137,-0.5147686004638672,4.721508979797363,-1.6043367385864258,-0.599761962890625,-0.0980072021484375,0.45618343353271484,0.5678339004516602,-0.5800924301147461,0.36460113525390625
6,4668184.0,9.690826416015625,-0.6009626388549805,4.476096153259277,-1.8312454223632812,-0.3568744659423828,0.3526124954223633,0.45618343353271484,0.5678339004516602,-0.5800924301147461,0.36460113525390625
7,4668204.0,8.796565055847168,-0.705113410949707,4.333636283874512,-1.858942985534668,-0.18749141693115234,0.4729909896850586,0.45618343353271484,0.5678339004516602,-0.5800924301147461,0.36460113525390625
8,4668224.0,8.674456596374512,-0.7541961669921875,4.072660446166992,-1.7502822875976562,-0.1374225616455078,0.46446895599365234,0.45618343353271484,0.5678339004516602,-0.5800924301147461,0.36460113525390625
9,4668244.0,8.845647811889648,-0.5554714202880859,3.8787240982055664,-1.7502822875976562,-0.1374225616455078,0.46446895599365234,0.45618343353271484,0.5678339004516602,-0.5800924301147461,0.36460113525390625
10,4668264.0,8.794170379638672,-0.8379955291748047,3.7063369750976562,-1.7502822875976562,-0.1374225616455078,0.46446895599365234,0.45618343353271484,0.5678339004516602,-0.5800924301147461,0.36460113525390625
11,4668284.0,8.87437915802002,-0.8691215515136719,3.6692256927490234,-1.7502822875976562,-0.1374225616455078,0.46446895599365234,0.45618343353271484,0.5678339004516602,-0.5800924301147461,0.36460113525390625
12,4668304.0,9.259857177734375,-0.46688270568847656,3.6764087677001953,-1.7502822875976562,-0.1374225616455078,0.46446895599365234,0.4616212844848633,0.565546989440918,-0.5817747116088867,0.3586454391479492
13,4668324.0,9.301756858825684,-0.19872474670410156,3.4501495361328125,-1.7502822875976562,-0.1374225616455078,0.46446895599365234,0.4650735855102539,0.5645971298217773,-0.5824661254882812,0.35450267791748047
14,4668563.0,9.269433975219727,-0.12569904327392578,2.7366552352905273,0.23969173431396484,-0.05965614318847656,0.08735370635986328,0.47905731201171875,0.5730133056640625,-0.578883171081543,0.32713985443115234
15,4668583.0,9.177254676818848,-0.05626487731933594,2.9293947219848633,0.23969173431396484,-0.05965614318847656,0.08735370635986328,0.47905731201171875,0.5730133056640625,-0.578883171081543,0.32713985443115234
16,4668603.0,9.171268463134766,0.16999340057373047,2.8024978637695312,0.23969173431396484,-0.05965614318847656,0.08735370635986328,0.47905731201171875,0.5730133056640625,-0.578883171081543,0.32713985443115234
17,4668623.0,9.077892303466797,0.16161346435546875,2.846792221069336,0.23969173431396484,-0.05965614318847656,0.08735370635986328,0.47905731201171875,0.5730133056640625,-0.578883171081543,0.32713985443115234
18,4668643.0,9.001275062561035,0.01795673370361328,2.930591583251953,0.23969173431396484,-0.05965614318847656,0.08735370635986328,0.47905731201171875,0.5730133056640625,-0.578883171081543,0.32713985443115234
19,4668762.0,9.120988845825195,0.12689590454101562,2.9808712005615234,0.15979385375976562,-0.053264617919921875,0.11398601531982422,0.4454803466796875,0.5416374206542969,-0.5940322875976562,0.39403533935546875
20,4668781.0,9.062329292297363,0.02154827117919922,2.9904489517211914,0.15979385375976562,-0.053264617919921875,0.11398601531982422,0.4454803466796875,0.5416374206542969,-0.5940322875976562,0.39403533935546875
21,4668801.0,9.122185707092285,-0.06105327606201172,3.022770881652832,0.15979385375976562,-0.053264617919921875,0.11398601531982422,0.4454803466796875,0.5416374206542969,-0.5940322875976562,0.39403533935546875
22,4668821.0,9.071906089782715,-0.0682363510131836,2.9796743392944336,0.15979385375976562,-0.053264617919921875,0.11398601531982422,0.4454803466796875,0.5416374206542969,-0.5940322875976562,0.39403533935546875
23,4668841.0,9.021626472473145,-0.09098243713378906,2.936577796936035,0.15979385375976562,-0.053264617919921875,0.11398601531982422,0.4454803466796875,0.5416374206542969,-0.5940322875976562,0.39403533935546875
24,4668961.0,9.128171920776367,-0.07063102722167969,2.901860237121582,0.07244014739990234,-0.014913558959960938,-0.004261016845703125,0.44159603118896484,0.550872802734375,-0.5856590270996094,0.3981781005859375
25,4668981.0,9.055146217346191,-0.1185159683227539,2.847989082336426,0.034089088439941406,-0.00852203369140625,-0.005326271057128906,0.44159603118896484,0.550872802734375,-0.5856590270996094,0.3981781005859375
26,4669000.0,9.09584903717041,-0.18555545806884766,2.8851003646850586,0.03941535949707031,-0.012783050537109375,-0.01810932159423828,0.44159603118896484,0.550872802734375,-0.5856590270996094,0.3981781005859375
27,4669020.0,9.135354995727539,-0.09816455841064453,2.869537353515625,0.061786651611328125,-0.014913558959960938,-0.01810932159423828,0.44159603118896484,0.550872802734375,-0.5856590270996094,0.3981781005859375
28,4669040.0,9.047964096069336,-0.10055923461914062,2.84200382232666,0.041545867919921875,0.0,-0.022370338439941406,0.44159603118896484,0.550872802734375,-0.5856590270996094,0.3981781005859375
29,4669161.0,9.165283203125,-0.2789325714111328,2.900663375854492,0.05859088897705078,-0.01810932159423828,-0.025567054748535156,0.4379701614379883,0.5519084930419922,-0.5852279663085938,0.40137195587158203
30,4669181.0,9.135354995727539,-0.23224449157714844,2.8551721572875977,0.0628519058227539,0.0,-0.01597881317138672,0.4379701614379883,0.5519084930419922,-0.5852279663085938,0.40137195587158203
31,4669200.0,8.99409294128418,-0.22146987915039062,2.8934803009033203,0.04900360107421875,0.009587287902832031,-0.007456779479980469,0.4379701614379883,0.5519084930419922,-0.5852279663085938,0.40137195587158203
32,4669220.0,8.935432434082031,-0.2633695602416992,2.8599605560302734,0.03621959686279297,0.0021305084228515625,0.007456779479980469,0.4379701614379883,0.5519084930419922,-0.5852279663085938,0.40137195587158203
33,4669240.0,9.162888526916504,-0.2657642364501953,2.821652412414551,0.04367637634277344,-0.011717796325683594,0.014913558959960938,0.4379701614379883,0.5519084930419922,-0.5852279663085938,0.40137195587158203
34,4669360.0,9.107820510864258,-0.11253070831298828,2.8264408111572266,0.026632308959960938,-0.007456779479980469,0.014913558959960938,0.4354238510131836,0.5544118881225586,-0.5834150314331055,0.4032278060913086
35,4669380.0,9.020429611206055,-0.11133289337158203,2.879115104675293,0.021305084228515625,0.0021305084228515625,0.01810932159423828,0.4354238510131836,0.5544118881225586,-0.5834150314331055,0.4032278060913086
36,4669400.0,8.991698265075684,-0.19513320922851562,2.876720428466797,0.023435592651367188,-0.0063915252685546875,0.010652542114257812,0.4354238510131836,0.5544118881225586,-0.5834150314331055,0.4032278060913086
37,4669419.0,9.02521800994873,-0.1185159683227539,2.8779172897338867,0.057525634765625,-0.007456779479980469,0.0031957626342773438,0.4354238510131836,0.5544118881225586,-0.5834150314331055,0.4032278060913086
38,4669439.0,9.06592082977295,-0.06943321228027344,2.8575668334960938,0.05965614318847656,-0.007456779479980469,0.009587287902832031,0.4354238510131836,0.5544118881225586,-0.5834150314331055,0.4032278060913086
39,4669460.0,9.092257499694824,-0.13048744201660156,2.91263484954834,0.05965614318847656,-0.007456779479980469,0.009587287902832031,0.43430233001708984,0.5558357238769531,-0.5824222564697266,0.4040050506591797
40,4669480.0,9.0970458984375,-0.10654449462890625,2.8922834396362305,0.05965614318847656,-0.007456779479980469,0.009587287902832031,0.43400001525878906,0.5560522079467773,-0.5822935104370117,0.4042205810546875
41,4669500.0,9.155706405639648,-0.13527584075927734,2.871932029724121,0.05965614318847656,-0.007456779479980469,0.009587287902832031,0.4336977005004883,0.5562677383422852,-0.5820770263671875,0.4045228958129883
42,4669520.0,9.057540893554688,-0.09577083587646484,2.880311965942383,0.05965614318847656,-0.007456779479980469,0.009587287902832031,0.4333953857421875,0.5565261840820312,-0.581904411315918,0.4047384262084961
43,4669539.0,8.968952178955078,-0.12330436706542969,2.9150285720825195,0.05965614318847656,-0.007456779479980469,0.009587287902832031,0.4331369400024414,0.5567855834960938,-0.5817317962646484,0.4049978256225586
44,4669659.0,9.082680702209473,-0.12450218200683594,2.8252439498901367,0.0063915252685546875,-0.0010652542114257812,0.014913558959960938,0.4326190948486328,0.5574760437011719,-0.5814733505249023,0.4049110412597656
45,4669679.0,8.948601722717285,-0.15203571319580078,2.847989082336426,0.0063915252685546875,-0.0010652542114257812,0.014913558959960938,0.4326190948486328,0.5574760437011719,-0.5814733505249023,0.4049110412597656
46,4669699.0,8.97613525390625,-0.12929058074951172,2.836017608642578,0.0063915252685546875,-0.0010652542114257812,0.014913558959960938,0.4326190948486328,0.5574760437011719,-0.5814733505249023,0.4049110412597656
47,4669719.0,9.04437255859375,-0.009576797485351562,2.777358055114746,0.0063915252685546875,-0.0010652542114257812,0.014913558959960938,0.4326190948486328,0.5574760437011719,-0.5814733505249023,0.4049110412597656
48,4669739.0,9.118595123291016,-0.07182788848876953,2.7905263900756836,0.0063915252685546875,-0.0010652542114257812,0.014913558959960938,0.4326190948486328,0.5574760437011719,-0.5814733505249023,0.4049110412597656
49,4669759.0,9.022823333740234,-0.13288211822509766,2.7977094650268555,0.01597881317138672,-0.0170440673828125,-0.04793834686279297,0.4326190948486328,0.5574760437011719,-0.5814733505249023,0.4049110412597656
50,4669779.0,9.034794807434082,-0.16999340057373047,2.7941179275512695,0.03728485107421875,-0.02769756317138672,-0.03728485107421875,0.4326190948486328,0.5574760437011719,-0.5814733505249023,0.4049110412597656
51,4669799.0,9.104228973388672,-0.21907520294189453,2.8228492736816406,0.07883167266845703,-0.03515434265136719,-0.02982807159423828,0.4326190948486328,0.5574760437011719,-0.5814733505249023,0.4049110412597656
52,4669819.0,9.107820510864258,-0.12929058074951172,2.788132667541504,0.10546398162841797,-0.0287628173828125,-0.020239830017089844,0.4326190948486328,0.5574760437011719,-0.5814733505249023,0.4049110412597656
53,4669839.0,9.06592082977295,-0.08499622344970703,2.850383758544922,0.08841896057128906,-0.024501800537109375,-0.0031957626342773438,0.4326190948486328,0.5574760437011719,-0.5814733505249023,0.4049110412597656
54,4669857.0,9.103032112121582,-0.07661628723144531,2.8527774810791016,0.08841896057128906,-0.024501800537109375,-0.0031957626342773438,0.4326190948486328,0.5574760437011719,-0.5814733505249023,0.4049110412597656
55,4669877.0,9.083877563476562,-0.1077423095703125,2.8515806198120117,0.08841896057128906,-0.024501800537109375,-0.0031957626342773438,0.4326190948486328,0.5574760437011719,-0.5814733505249023,0.4049110412597656
56,4669897.0,9.016838073730469,-0.11372756958007812,2.84200382232666,0.08841896057128906,-0.024501800537109375,-0.0031957626342773438,0.4326190948486328,0.5574760437011719,-0.5814733505249023,0.4049110412597656
57,4669917.0,8.95578384399414,-0.05746173858642578,2.779752731323242,0.08841896057128906,-0.024501800537109375,-0.0031957626342773438,0.4326190948486328,0.5574760437011719,-0.5814733505249023,0.4049110412597656
58,4669937.0,9.113805770874023,-0.0945730209350586,2.8228492736816406,0.08841896057128906,-0.024501800537109375,-0.0031957626342773438,0.4326190948486328,0.5574760437011719,-0.5814733505249023,0.4049110412597656
59,4669957.0,9.070709228515625,0.01197052001953125,2.849186897277832,0.03515434265136719,-0.022370338439941406,-0.004261016845703125,0.4326190948486328,0.5574760437011719,-0.5814733505249023,0.4049110412597656
60,4669977.0,9.105425834655762,0.08858776092529297,2.8348207473754883,0.026632308959960938,-0.030893325805664062,-0.020239830017089844,0.4326190948486328,0.5574760437011719,-0.5814733505249023,0.4049110412597656
61,4669997.0,9.176057815551758,-0.0131683349609375,2.846792221069336,0.0063915252685546875,-0.0287628173828125,-0.033023834228515625,0.4326190948486328,0.5574760437011719,-0.5814733505249023,0.4049110412597656
62,4670017.0,9.073103904724121,-0.005985260009765625,2.8300323486328125,0.007456779479980469,-0.020239830017089844,-0.03515434265136719,0.4326190948486328,0.5574760437011719,-0.5814733505249023,0.4049110412597656
63,4670037.0,8.983318328857422,-0.028730392456054688,2.807286262512207,0.009587287902832031,-0.026632308959960938,-0.019174575805664062,0.4326190948486328,0.5574760437011719,-0.5814733505249023,0.4049110412597656
64,4670158.0,9.126975059509277,-0.01795673370361328,2.814469337463379,0.009587287902832031,-0.026632308959960938,-0.019174575805664062,0.4300727844238281,0.5573463439941406,-0.577977180480957,0.4127225875854492
65,4670177.0,9.081483840942383,-0.05387115478515625,2.847989082336426,0.009587287902832031,-0.026632308959960938,-0.019174575805664062,0.4300727844238281,0.5573463439941406,-0.577977180480957,0.4127225875854492
66,4670197.0,9.120988845825195,-0.041899681091308594,2.84439754486084,0.009587287902832031,-0.026632308959960938,-0.019174575805664062,0.4300727844238281,0.5573463439941406,-0.577977180480957,0.4127225875854492
67,4670217.0,9.16648006439209,-0.0682363510131836,2.8515806198120117,0.009587287902832031,-0.026632308959960938,-0.019174575805664062,0.4300727844238281,0.5573463439941406,-0.577977180480957,0.4127225875854492
68,4670237.0,9.069512367248535,-0.06225109100341797,2.8300323486328125,0.009587287902832031,-0.026632308959960938,-0.019174575805664062,0.4300727844238281,0.5573463439941406,-0.577977180480957,0.4127225875854492
69,4670258.0,9.080286026000977,-0.12450218200683594,2.84439754486084,0.007456779479980469,-0.0170440673828125,-0.009587287902832031,0.4300727844238281,0.5573463439941406,-0.577977180480957,0.4127225875854492
70,4670277.0,9.118595123291016,-0.08739089965820312,2.849186897277832,0.012783050537109375,-0.013848304748535156,-0.0031957626342773438,0.4300727844238281,0.5573463439941406,-0.577977180480957,0.4127225875854492
71,4670297.0,9.079089164733887,-0.08020782470703125,2.8587636947631836,0.030893325805664062,-0.007456779479980469,0.0,0.4300727844238281,0.5573463439941406,-0.577977180480957,0.4127225875854492
72,4670317.0,9.099440574645996,-0.10654449462890625,2.8635520935058594,0.023435592651367188,-0.007456779479980469,-0.0031957626342773438,0.4300727844238281,0.5573463439941406,-0.577977180480957,0.4127225875854492
73,4670337.0,9.1437349319458,-0.03471660614013672,2.832426071166992,0.012783050537109375,-0.0063915252685546875,-0.007456779479980469,0.4300727844238281,0.5573463439941406,-0.577977180480957,0.4127225875854492
74,4670357.0,9.080286026000977,-0.06344795227050781,2.838412284851074,-0.021305084228515625,-0.0010652542114257812,-0.005326271057128906,0.4300727844238281,0.5573463439941406,-0.577977180480957,0.4127225875854492
75,4670376.0,9.085075378417969,-0.20351314544677734,2.8264408111572266,-0.020239830017089844,-0.0010652542114257812,-0.004261016845703125,0.4300727844238281,0.5573463439941406,-0.577977180480957,0.4127225875854492
76,4670396.0,9.0970458984375,-0.1628103256225586,2.8240461349487305,0.02769756317138672,-0.004261016845703125,-0.00852203369140625,0.4300727844238281,0.5573463439941406,-0.577977180480957,0.4127225875854492
77,4670416.0,9.129368782043457,-0.07422161102294922,2.840806007385254,0.03621959686279297,-0.005326271057128906,-0.0010652542114257812,0.4300727844238281,0.5573463439941406,-0.577977180480957,0.4127225875854492
78,4670436.0,9.059934616088867,-0.10175609588623047,2.8264408111572266,0.0063915252685546875,0.0010652542114257812,0.010652542114257812,0.4300727844238281,0.5573463439941406,-0.577977180480957,0.4127225875854492
79,4670456.0,9.056344032287598,-0.1185159683227539,2.809680938720703,-0.0031957626342773438,-0.0021305084228515625,0.011717796325683594,0.4300727844238281,0.5573463439941406,-0.577977180480957,0.4127225875854492
80,4670476.0,9.098243713378906,-0.14126205444335938,2.7929210662841797,0.0031957626342773438,-0.0021305084228515625,0.01810932159423828,0.4300727844238281,0.5573463439941406,-0.577977180480957,0.4127225875854492
81,4670495.0,9.059934616088867,-0.1185159683227539,2.759401321411133,0.01810932159423828,0.005326271057128906,0.019174575805664062,0.4300727844238281,0.5573463439941406,-0.577977180480957,0.4127225875854492
82,4670515.0,9.073103904724121,-0.07302474975585938,2.7139101028442383,0.019174575805664062,-0.007456779479980469,0.019174575805664062,0.4300727844238281,0.5573463439941406,-0.577977180480957,0.4127225875854492
83,4670535.0,9.081483840942383,-0.09098243713378906,2.759401321411133,0.020239830017089844,-0.00852203369140625,0.010652542114257812,0.4300727844238281,0.5573463439941406,-0.577977180480957,0.4127225875854492
84,4670556.0,9.11739730834961,-0.033519744873046875,2.741443634033203,0.020239830017089844,-0.00852203369140625,0.010652542114257812,0.4300727844238281,0.5573463439941406,-0.577977180480957,0.4127225875854492
85,4670556.0,9.11739730834961,-0.033519744873046875,2.741443634033203,0.020239830017089844,-0.00852203369140625,0.010652542114257812,0.4300727844238281,0.5573463439941406,-0.577977180480957,0.4127225875854492
86,4670576.0,9.09345531463623,-0.022745132446289062,2.7318668365478516,0.020239830017089844,-0.00852203369140625,0.010652542114257812,0.4300727844238281,0.5573463439941406,-0.577977180480957,0.4127225875854492
87,4670576.0,9.09345531463623,-0.022745132446289062,2.7318668365478516,0.020239830017089844,-0.00852203369140625,0.010652542114257812,0.4300727844238281,0.5573463439941406,-0.577977180480957,0.4127225875854492
88,4670595.0,9.051554679870605,-0.07302474975585938,2.7067270278930664,0.020239830017089844,-0.00852203369140625,0.010652542114257812,0.4300727844238281,0.5573463439941406,-0.577977180480957,0.4127225875854492
89,4670595.0,9.051554679870605,-0.07302474975585938,2.7067270278930664,0.020239830017089844,-0.00852203369140625,0.010652542114257812,0.4300727844238281,0.5573463439941406,-0.577977180480957,0.4127225875854492
90,4670615.0,9.125777244567871,-0.10175609588623047,2.7390499114990234,0.020239830017089844,-0.00852203369140625,0.010652542114257812,0.4300727844238281,0.5573463439941406,-0.577977180480957,0.4127225875854492
91,4670615.0,9.125777244567871,-0.10175609588623047,2.7390499114990234,0.020239830017089844,-0.00852203369140625,0.010652542114257812,0.4300727844238281,0.5573463439941406,-0.577977180480957,0.4127225875854492
92,4670635.0,9.141340255737305,-0.07302474975585938,2.7570066452026367,0.020239830017089844,-0.00852203369140625,0.010652542114257812,0.4300727844238281,0.5573463439941406,-0.577977180480957,0.4127225875854492
93,4670635.0,9.141340255737305,-0.07302474975585938,2.7570066452026367,0.020239830017089844,-0.00852203369140625,0.010652542114257812,0.4300727844238281,0.5573463439941406,-0.577977180480957,0.4127225875854492
94,4670755.0,9.035992622375488,-0.014365196228027344,2.8300323486328125,0.01597881317138672,-0.013848304748535156,0.007456779479980469,0.42955493927001953,0.5573034286499023,-0.5752582550048828,0.4170389175415039
95,4670775.0,9.073103904724121,-0.025139808654785156,2.7929210662841797,0.01597881317138672,-0.013848304748535156,0.007456779479980469,0.4296407699584961,0.5573034286499023,-0.5751724243164062,0.41712474822998047
96,4670795.0,9.111412048339844,-0.041899681091308594,2.751021385192871,0.01597881317138672,-0.013848304748535156,0.007456779479980469,0.42972755432128906,0.5572175979614258,-0.5750856399536133,0.41721153259277344
97,4670814.0,9.125777244567871,-0.059856414794921875,2.77376651763916,0.01597881317138672,-0.013848304748535156,0.007456779479980469,0.4298133850097656,0.5571737289428711,-0.575042724609375,0.41729736328125
98,4670834.0,9.09465217590332,-0.07422161102294922,2.7629928588867188,0.01597881317138672,-0.013848304748535156,0.007456779479980469,0.4298133850097656,0.5572175979614258,-0.5749988555908203,0.41729736328125
99,4670855.0,9.191619873046875,0.0,2.7725696563720703,0.01597881317138672,-0.013848304748535156,0.007456779479980469,0.4298133850097656,0.5572175979614258,-0.5749988555908203,0.41729736328125
100,4670855.0,9.191619873046875,0.0,2.7725696563720703,0.01597881317138672,-0.013848304748535156,0.007456779479980469,0.4298133850097656,0.5572175979614258,-0.5749988555908203,0.41729736328125
101,4670875.0,9.192817687988281,0.01197052001953125,2.8084840774536133,0.01597881317138672,-0.013848304748535156,0.007456779479980469,0.4298133850097656,0.5572175979614258,-0.5749988555908203,0.41729736328125
102,4670875.0,9.192817687988281,0.01197052001953125,2.8084840774536133,0.01597881317138672,-0.013848304748535156,0.007456779479980469,0.4298133850097656,0.5572175979614258,-0.5749988555908203,0.41729736328125
103,4670895.0,9.099440574645996,0.032321929931640625,2.8013010025024414,0.01597881317138672,-0.013848304748535156,0.007456779479980469,0.4298133850097656,0.5572175979614258,-0.5749988555908203,0.41729736328125
104,4670895.0,9.099440574645996,0.032321929931640625,2.8013010025024414,0.01597881317138672,-0.013848304748535156,0.007456779479980469,0.4298133850097656,0.5572175979614258,-0.5749988555908203,0.41729736328125
105,4670914.0,9.0754976272583,-0.0023937225341796875,2.7977094650268555,0.01597881317138672,-0.013848304748535156,0.007456779479980469,0.4298133850097656,0.5572175979614258,-0.5749988555908203,0.41729736328125
106,4670914.0,9.0754976272583,-0.0023937225341796875,2.7977094650268555,0.01597881317138672,-0.013848304748535156,0.007456779479980469,0.4298133850097656,0.5572175979614258,-0.5749988555908203,0.41729736328125
107,4670934.0,9.09465217590332,-0.022745132446289062,2.7761611938476562,0.01597881317138672,-0.013848304748535156,0.007456779479980469,0.4298133850097656,0.5572175979614258,-0.5749988555908203,0.41729736328125
108,4670934.0,9.09465217590332,-0.022745132446289062,2.7761611938476562,0.01597881317138672,-0.013848304748535156,0.007456779479980469,0.4298133850097656,0.5572175979614258,-0.5749988555908203,0.41729736328125
109,4670954.0,9.089863777160645,-0.004788398742675781,2.7677812576293945,0.01597881317138672,-0.013848304748535156,0.007456779479980469,0.4298133850097656,0.5572175979614258,-0.5749988555908203,0.41729736328125
110,4670954.0,9.089863777160645,-0.004788398742675781,2.7677812576293945,0.01597881317138672,-0.013848304748535156,0.007456779479980469,0.4298133850097656,0.5572175979614258,-0.5749988555908203,0.41729736328125
111,4670974.0,9.0970458984375,0.02035045623779297,2.7989063262939453,0.01597881317138672,-0.013848304748535156,0.007456779479980469,0.4298133850097656,0.5572175979614258,-0.5749988555908203,0.41729736328125
112,4670974.0,9.0970458984375,0.02035045623779297,2.7989063262939453,0.01597881317138672,-0.013848304748535156,0.007456779479980469,0.4298133850097656,0.5572175979614258,-0.5749988555908203,0.41729736328125
113,4670994.0,9.103032112121582,0.032321929931640625,2.778554916381836,0.01597881317138672,-0.013848304748535156,0.007456779479980469,0.4298133850097656,0.5572175979614258,-0.5749988555908203,0.41729736328125
114,4670994.0,9.103032112121582,0.032321929931640625,2.778554916381836,0.01597881317138672,-0.013848304748535156,0.007456779479980469,0.4298133850097656,0.5572175979614258,-0.5749988555908203,0.41729736328125
115,4671014.0,9.135354995727539,0.05267333984375,2.783344268798828,0.01597881317138672,-0.013848304748535156,0.007456779479980469,0.4298133850097656,0.5572175979614258,-0.5749988555908203,0.41729736328125
116,4671014.0,9.135354995727539,0.05267333984375,2.783344268798828,0.01597881317138672,-0.013848304748535156,0.007456779479980469,0.4298133850097656,0.5572175979614258,-0.5749988555908203,0.41729736328125
117,4671033.0,9.171268463134766,-0.005985260009765625,2.780949592590332,0.01597881317138672,-0.013848304748535156,0.007456779479980469,0.4298133850097656,0.5572175979614258,-0.5749988555908203,0.41729736328125
118,4671033.0,9.171268463134766,-0.005985260009765625,2.780949592590332,0.01597881317138672,-0.013848304748535156,0.007456779479980469,0.4298133850097656,0.5572175979614258,-0.5749988555908203,0.41729736328125
119,4671154.0,9.056344032287598,-0.046688079833984375,2.755809783935547,-0.014913558959960938,0.012783050537109375,0.005326271057128906,0.4298133850097656,0.5572175979614258,-0.5749988555908203,0.41729736328125
120,4671154.0,9.056344032287598,-0.046688079833984375,2.755809783935547,-0.014913558959960938,0.012783050537109375,0.005326271057128906,0.4298133850097656,0.5572175979614258,-0.5749988555908203,0.41729736328125
121,4671174.0,9.11500358581543,-0.07063102722167969,2.743838310241699,-0.009587287902832031,0.005326271057128906,0.005326271057128906,0.4298133850097656,0.5572175979614258,-0.5749988555908203,0.41729736328125
122,4671174.0,9.11500358581543,-0.07063102722167969,2.743838310241699,-0.009587287902832031,0.005326271057128906,0.005326271057128906,0.4298133850097656,0.5572175979614258,-0.5749988555908203,0.41729736328125
123,4671194.0,9.16648006439209,-0.040701866149902344,2.754612922668457,0.009587287902832031,0.0031957626342773438,0.005326271057128906,0.4298133850097656,0.5572175979614258,-0.5749988555908203,0.41729736328125
124,4671194.0,9.16648006439209,-0.040701866149902344,2.754612922668457,0.009587287902832031,0.0031957626342773438,0.005326271057128906,0.4298133850097656,0.5572175979614258,-0.5749988555908203,0.41729736328125
125,4671214.0,9.085075378417969,0.008379936218261719,2.7426414489746094,0.007456779479980469,0.0063915252685546875,0.00852203369140625,0.4298133850097656,0.5572175979614258,-0.5749988555908203,0.41729736328125
126,4671214.0,9.085075378417969,0.008379936218261719,2.7426414489746094,0.007456779479980469,0.0063915252685546875,0.00852203369140625,0.4298133850097656,0.5572175979614258,-0.5749988555908203,0.41729736328125
127,4671234.0,8.940220832824707,0.010773658752441406,2.7570066452026367,0.0063915252685546875,0.005326271057128906,-0.0021305084228515625,0.4298133850097656,0.5572175979614258,-0.5749988555908203,0.41729736328125
128,4671234.0,8.940220832824707,0.010773658752441406,2.7570066452026367,0.0063915252685546875,0.005326271057128906,-0.0021305084228515625,0.4298133850097656,0.5572175979614258,-0.5749988555908203,0.41729736328125
129,4671252.0,9.043174743652344,-0.014365196228027344,2.7342615127563477,0.01597881317138672,-0.01597881317138672,-0.013848304748535156,0.4298133850097656,0.5572175979614258,-0.5749988555908203,0.41729736328125
130,4671272.0,9.088665962219238,-0.019153594970703125,2.759401321411133,0.04900360107421875,-0.010652542114257812,-0.0287628173828125,0.4298133850097656,0.5572175979614258,-0.5749988555908203,0.41729736328125
131,4671292.0,9.012049674987793,-0.01197052001953125,2.7893295288085938,0.04793834686279297,-0.009587287902832031,-0.0287628173828125,0.4298133850097656,0.5572175979614258,-0.5749988555908203,0.41729736328125
132,4671312.0,9.020429611206055,-0.016759872436523438,2.8024978637695312,0.02982807159423828,-0.01597881317138672,-0.02982807159423828,0.4298133850097656,0.5572175979614258,-0.5749988555908203,0.41729736328125
133,4671332.0,9.122185707092285,-0.07661628723144531,2.779752731323242,0.0063915252685546875,-0.014913558959960938,-0.026632308959960938,0.4298133850097656,0.5572175979614258,-0.5749988555908203,0.41729736328125
134,4671452.0,9.02402114868164,-0.06105327606201172,2.8084840774536133,0.00852203369140625,-0.007456779479980469,-0.011717796325683594,0.4298133850097656,0.5572175979614258,-0.5749988555908203,0.41729736328125
135,4671452.0,9.02402114868164,-0.06105327606201172,2.8084840774536133,0.00852203369140625,-0.007456779479980469,-0.011717796325683594,0.4298133850097656,0.5572175979614258,-0.5749988555908203,0.41729736328125
136,4671472.0,9.04676628112793,-0.08858776092529297,2.7725696563720703,0.0010652542114257812,-0.01597881317138672,-0.013848304748535156,0.4298133850097656,0.5572175979614258,-0.5749988555908203,0.41729736328125
137,4671472.0,9.04676628112793,-0.08858776092529297,2.7725696563720703,0.0010652542114257812,-0.01597881317138672,-0.013848304748535156,0.4298133850097656,0.5572175979614258,-0.5749988555908203,0.41729736328125
138,4671492.0,9.122185707092285,-0.11013603210449219,2.7953147888183594,0.010652542114257812,-0.011717796325683594,-0.013848304748535156,0.4298133850097656,0.5572175979614258,-0.5749988555908203,0.41729736328125
139,4671492.0,9.122185707092285,-0.11013603210449219,2.7953147888183594,0.010652542114257812,-0.011717796325683594,-0.013848304748535156,0.4298133850097656,0.5572175979614258,-0.5749988555908203,0.41729736328125
140,4671512.0,9.159296989440918,-0.10175609588623047,2.8036956787109375,0.014913558959960938,-0.00852203369140625,0.0,0.4298133850097656,0.5572175979614258,-0.5749988555908203,0.41729736328125
141,4671512.0,9.159296989440918,-0.10175609588623047,2.8036956787109375,0.014913558959960938,-0.00852203369140625,0.0,0.4298133850097656,0.5572175979614258,-0.5749988555908203,0.41729736328125
142,4671532.0,9.086272239685059,-0.0658416748046875,2.807286262512207,0.010652542114257812,-0.0063915252685546875,0.01597881317138672,0.4298133850097656,0.5572175979614258,-0.5749988555908203,0.41729736328125
143,4671532.0,9.086272239685059,-0.0658416748046875,2.807286262512207,0.010652542114257812,-0.0063915252685546875,0.01597881317138672,0.4298133850097656,0.5572175979614258,-0.5749988555908203,0.41729736328125
144,4671652.0,9.134157180786133,-0.05387115478515625,2.7893295288085938,-0.010652542114257812,0.004261016845703125,0.06498241424560547,0.4294252395629883,0.55816650390625,-0.5736179351806641,0.4183769226074219
145,4671671.0,9.0970458984375,-0.07781314849853516,2.812075614929199,-0.0021305084228515625,0.0063915252685546875,0.0628519058227539,0.42972755432128906,0.5585117340087891,-0.573272705078125,0.4180746078491211
146,4671691.0,9.129368782043457,-0.04309654235839844,2.820455551147461,-0.007456779479980469,0.005326271057128906,0.05646038055419922,0.42998600006103516,0.5588569641113281,-0.5729274749755859,0.4178152084350586
147,4671711.0,9.100637435913086,-0.0945730209350586,2.814469337463379,-0.022370338439941406,0.009587287902832031,0.05965614318847656,0.43024539947509766,0.5591592788696289,-0.5726251602172852,0.41746997833251953
148,4671731.0,9.09345531463623,-0.1364736557006836,2.777358055114746,-0.024501800537109375,0.004261016845703125,0.057525634765625,0.430633544921875,0.5593748092651367,-0.5724096298217773,0.4170818328857422
149,4671752.0,9.06592082977295,-0.1711902618408203,2.7653865814208984,-0.024501800537109375,0.004261016845703125,0.057525634765625,0.430633544921875,0.5593748092651367,-0.5724096298217773,0.4170818328857422
150,4671771.0,9.014443397521973,-0.1843585968017578,2.8024978637695312,-0.024501800537109375,0.004261016845703125,0.057525634765625,0.430633544921875,0.5593748092651367,-0.5724096298217773,0.4170818328857422
151,4671791.0,9.07669448852539,-0.19513320922851562,2.785737991333008,-0.024501800537109375,0.004261016845703125,0.057525634765625,0.430633544921875,0.5593748092651367,-0.5724096298217773,0.4170818328857422
152,4671811.0,9.061132431030273,-0.1077423095703125,2.7629928588867188,-0.024501800537109375,0.004261016845703125,0.057525634765625,0.430633544921875,0.5593748092651367,-0.5724096298217773,0.4170818328857422
153,4671831.0,8.99768352508545,-0.17717552185058594,2.784541130065918,-0.024501800537109375,0.004261016845703125,0.057525634765625,0.430633544921875,0.5593748092651367,-0.5724096298217773,0.4170818328857422
154,4671851.0,9.062329292297363,-0.1496419906616211,2.7354583740234375,0.0,-0.007456779479980469,0.033023834228515625,0.430633544921875,0.5593748092651367,-0.5724096298217773,0.4170818328857422
155,4671870.0,9.087469100952148,-0.12569904327392578,2.7725696563720703,0.0021305084228515625,-0.0031957626342773438,0.01810932159423828,0.430633544921875,0.5593748092651367,-0.5724096298217773,0.4170818328857422
156,4671890.0,8.947403907775879,-0.20111846923828125,2.7677812576293945,-0.01810932159423828,0.0,0.019174575805664062,0.430633544921875,0.5593748092651367,-0.5724096298217773,0.4170818328857422
157,4671910.0,9.091060638427734,-0.23344135284423828,2.7055301666259766,0.005326271057128906,-0.023435592651367188,0.013848304748535156,0.430633544921875,0.5593748092651367,-0.5724096298217773,0.4170818328857422
158,4671930.0,9.247885704040527,-0.16759872436523438,2.777358055114746,0.034089088439941406,-0.020239830017089844,0.012783050537109375,0.430633544921875,0.5593748092651367,-0.5724096298217773,0.4170818328857422
159,4671951.0,9.14493179321289,-0.19393539428710938,2.807286262512207,0.0628519058227539,-0.00852203369140625,0.009587287902832031,0.430633544921875,0.5593748092651367,-0.5724096298217773,0.4170818328857422
160,4671971.0,9.068314552307129,-0.13288211822509766,2.7989063262939453,0.060721397399902344,-0.012783050537109375,0.005326271057128906,0.430633544921875,0.5593748092651367,-0.5724096298217773,0.4170818328857422
161,4671990.0,9.069512367248535,-0.09098243713378906,2.809680938720703,0.031958580017089844,-0.01810932159423828,0.004261016845703125,0.430633544921875,0.5593748092651367,-0.5724096298217773,0.4170818328857422
162,4672010.0,9.0970458984375,-0.1580219268798828,2.8084840774536133,0.009587287902832031,-0.01810932159423828,0.0010652542114257812,0.430633544921875,0.5593748092651367,-0.5724096298217773,0.4170818328857422
163,4672030.0,9.105425834655762,-0.16759872436523438,2.84200382232666,0.012783050537109375,-0.012783050537109375,0.0,0.430633544921875,0.5593748092651367,-0.5724096298217773,0.4170818328857422
164,4672151.0,9.104228973388672,-0.15682411193847656,2.778554916381836,0.021305084228515625,-0.0010652542114257812,-0.024501800537109375,0.4315834045410156,0.5629138946533203,-0.5684394836425781,0.4168233871459961
165,4672171.0,9.190423011779785,-0.11612224578857422,2.7318668365478516,0.02769756317138672,-0.0063915252685546875,-0.034089088439941406,0.4315834045410156,0.5629138946533203,-0.5684394836425781,0.4168233871459961
166,4672191.0,9.158100128173828,-0.12091064453125,2.7665843963623047,0.012783050537109375,0.0031957626342773438,-0.026632308959960938,0.4315834045410156,0.5629138946533203,-0.5684394836425781,0.4168233871459961
167,4672210.0,9.039584159851074,-0.0921792984008789,2.72109317779541,-0.0021305084228515625,0.005326271057128906,-0.019174575805664062,0.4315834045410156,0.5629138946533203,-0.5684394836425781,0.4168233871459961
168,4672230.0,9.001275062561035,-0.13886737823486328,2.7043323516845703,-0.0063915252685546875,0.0010652542114257812,-0.012783050537109375,0.4315834045410156,0.5629138946533203,-0.5684394836425781,0.4168233871459961
169,4672249.0,9.0970458984375,-0.09696769714355469,2.747429847717285,0.0010652542114257812,-0.00852203369140625,-0.01810932159423828,0.4305906295776367,0.5625686645507812,-0.5689573287963867,0.4175567626953125
170,4672269.0,9.091060638427734,-0.09936237335205078,2.7222900390625,0.0,0.0031957626342773438,-0.014913558959960938,0.43050384521484375,0.562525749206543,-0.569087028503418,0.41764259338378906
171,4672289.0,9.019232749938965,-0.16520404815673828,2.6756019592285156,-0.010652542114257812,-0.004261016845703125,-0.013848304748535156,0.4304180145263672,0.56243896484375,-0.5691728591918945,0.41764259338378906
172,4672308.0,9.09345531463623,-0.10654449462890625,2.7067270278930664,-0.0010652542114257812,-0.014913558959960938,-0.010652542114257812,0.4303750991821289,0.5623531341552734,-0.5692596435546875,0.41768646240234375
173,4672328.0,9.1868314743042,-0.1053476333618164,2.7031354904174805,0.0,-0.014913558959960938,-0.00852203369140625,0.43046092987060547,0.5622663497924805,-0.5692596435546875,0.4177722930908203
174,4672449.0,9.089863777160645,-0.12450218200683594,2.7941179275512695,-0.030893325805664062,-0.012783050537109375,-0.01810932159423828,0.43046092987060547,0.5622663497924805,-0.5692596435546875,0.4177722930908203
175,4672449.0,9.089863777160645,-0.12450218200683594,2.7941179275512695,-0.030893325805664062,-0.012783050537109375,-0.01810932159423828,0.43046092987060547,0.5622663497924805,-0.5692596435546875,0.4177722930908203
176,4672469.0,9.107820510864258,-0.20111846923828125,2.7749643325805664,-0.04474163055419922,-0.013848304748535156,-0.0021305084228515625,0.43046092987060547,0.5622663497924805,-0.5692596435546875,0.4177722930908203
177,4672469.0,9.107820510864258,-0.20111846923828125,2.7749643325805664,-0.04474163055419922,-0.013848304748535156,-0.0021305084228515625,0.43046092987060547,0.5622663497924805,-0.5692596435546875,0.4177722930908203
178,4672489.0,9.141340255737305,-0.20830154418945312,2.7749643325805664,-0.022370338439941406,-0.011717796325683594,-0.0031957626342773438,0.43046092987060547,0.5622663497924805,-0.5692596435546875,0.4177722930908203
179,4672489.0,9.141340255737305,-0.20830154418945312,2.7749643325805664,-0.022370338439941406,-0.011717796325683594,-0.0031957626342773438,0.43046092987060547,0.5622663497924805,-0.5692596435546875,0.4177722930908203
180,4672509.0,9.171268463134766,-0.20590686798095703,2.7605981826782227,0.009587287902832031,-0.00852203369140625,0.0031957626342773438,0.43046092987060547,0.5622663497924805,-0.5692596435546875,0.4177722930908203
181,4672509.0,9.171268463134766,-0.20590686798095703,2.7605981826782227,0.009587287902832031,-0.00852203369140625,0.0031957626342773438,0.43046092987060547,0.5622663497924805,-0.5692596435546875,0.4177722930908203
182,4672528.0,9.067117691040039,-0.11372756958007812,2.818060874938965,0.023435592651367188,-0.007456779479980469,-0.0031957626342773438,0.43046092987060547,0.5622663497924805,-0.5692596435546875,0.4177722930908203
183,4672528.0,9.067117691040039,-0.11372756958007812,2.818060874938965,0.023435592651367188,-0.007456779479980469,-0.0031957626342773438,0.43046092987060547,0.5622663497924805,-0.5692596435546875,0.4177722930908203
184,4672548.0,8.959375381469727,-0.16400718688964844,2.807286262512207,0.023435592651367188,-0.007456779479980469,-0.0031957626342773438,0.43123817443847656,0.5612306594848633,-0.5700359344482422,0.4172544479370117
185,4672568.0,9.19640827178955,-0.1975269317626953,2.747429847717285,0.023435592651367188,-0.007456779479980469,-0.0031957626342773438,0.43123817443847656,0.5612735748291016,-0.5699930191040039,0.4172544479370117
186,4672588.0,9.198802947998047,-0.23344135284423828,2.7713727951049805,0.023435592651367188,-0.007456779479980469,-0.0031957626342773438,0.43123817443847656,0.5612306594848633,-0.5699501037597656,0.4173412322998047
187,4672608.0,9.049160957336426,-0.23822975158691406,2.784541130065918,0.023435592651367188,-0.007456779479980469,-0.0031957626342773438,0.4311084747314453,0.5614032745361328,-0.5698633193969727,0.41738414764404297
188,4672628.0,9.050357818603516,-0.215484619140625,2.7761611938476562,0.023435592651367188,-0.007456779479980469,-0.0031957626342773438,0.4309358596801758,0.5616188049316406,-0.5697336196899414,0.41746997833251953
189,4672648.0,9.0970458984375,-0.20710468292236328,2.7941179275512695,0.023435592651367188,-0.007456779479980469,-0.0031957626342773438,0.4309358596801758,0.5616188049316406,-0.5697336196899414,0.41746997833251953
190,4672668.0,9.119791984558105,-0.24780654907226562,2.810877799987793,0.023435592651367188,-0.007456779479980469,-0.0031957626342773438,0.4309358596801758,0.5616188049316406,-0.5697336196899414,0.41746997833251953
191,4672688.0,9.105425834655762,-0.2286529541015625,2.7965126037597656,0.023435592651367188,-0.007456779479980469,-0.0031957626342773438,0.4309358596801758,0.5616188049316406,-0.5697336196899414,0.41746997833251953
192,4672708.0,9.033597946166992,-0.2992839813232422,2.820455551147461,0.023435592651367188,-0.007456779479980469,-0.0031957626342773438,0.4309358596801758,0.5616188049316406,-0.5697336196899414,0.41746997833251953
193,4672728.0,9.081483840942383,-0.4513206481933594,2.7965126037597656,0.023435592651367188,-0.007456779479980469,-0.0031957626342773438,0.4309358596801758,0.5616188049316406,-0.5697336196899414,0.41746997833251953
194,4672747.0,9.0970458984375,-0.38188648223876953,2.807286262512207,0.060721397399902344,0.0031957626342773438,0.0745706558227539,0.4309358596801758,0.5616188049316406,-0.5697336196899414,0.41746997833251953
195,4672767.0,9.071906089782715,-0.36632347106933594,2.8312292098999023,0.08309268951416016,0.009587287902832031,0.09267997741699219,0.4309358596801758,0.5616188049316406,-0.5697336196899414,0.41746997833251953
196,4672787.0,9.208379745483398,-0.43456077575683594,2.840806007385254,0.08309268951416016,0.005326271057128906,0.11398601531982422,0.4309358596801758,0.5616188049316406,-0.5697336196899414,0.41746997833251953
197,4672807.0,9.302953720092773,-0.4884319305419922,2.9138317108154297,0.09267997741699219,0.012783050537109375,0.14807605743408203,0.4309358596801758,0.5616188049316406,-0.5697336196899414,0.41746997833251953
198,4672827.0,9.384359359741211,-0.7110986709594727,3.158047676086426,0.15979385375976562,0.020239830017089844,0.2024059295654297,0.4309358596801758,0.5616188049316406,-0.5697336196899414,0.41746997833251953
199,4672938.0,12.93506908416748,-4.351593971252441,5.5619001388549805,0.15979385375976562,0.020239830017089844,0.2024059295654297,0.4309358596801758,0.5616188049316406,-0.5697336196899414,0.41746997833251953
200,4672948.0,13.473780632019043,-4.638906478881836,5.888718605041504,1.7140626907348633,0.9598321914672852,1.9217948913574219,0.4309358596801758,0.5616188049316406,-0.5697336196899414,0.41746997833251953
201,4672958.0,14.065166473388672,-4.4126482009887695,6.391515731811523,1.7140626907348633,0.9598321914672852,1.9217948913574219,0.4309358596801758,0.5616188049316406,-0.5697336196899414,0.41746997833251953
202,4672967.0,14.618244171142578,-3.766193389892578,6.779388427734375,1.8962278366088867,1.235743522644043,2.5141000747680664,0.4309358596801758,0.5616188049316406,-0.5697336196899414,0.41746997833251953
203,4672977.0,15.534053802490234,-3.438178062438965,6.960156440734863,1.8962278366088867,1.235743522644043,2.5141000747680664,0.4309358596801758,0.5616188049316406,-0.5697336196899414,0.41746997833251953
204,4672987.0,16.46063804626465,-3.4477548599243164,6.222719192504883,1.6927566528320312,1.7406949996948242,3.0297040939331055,0.4309358596801758,0.5616188049316406,-0.5697336196899414,0.41746997833251953
205,4672997.0,16.988574981689453,-2.942563056945801,4.871150970458984,1.6927566528320312,1.7406949996948242,3.0297040939331055,0.4309358596801758,0.5616188049316406,-0.5697336196899414,0.41746997833251953
206,4673007.0,17.668548583984375,-2.473285675048828,4.08343505859375,1.6959524154663086,2.0954389572143555,3.31307315826416,0.4309358596801758,0.5616188049316406,-0.5697336196899414,0.41746997833251953
207,4673017.0,18.285076141357422,-2.5786333084106445,3.6644372940063477,1.6959524154663086,2.0954389572143555,3.31307315826416,0.4309358596801758,0.5616188049316406,-0.5697336196899414,0.41746997833251953
208,4673027.0,18.222824096679688,-2.8898887634277344,3.5339488983154297,1.7279109954833984,2.688809394836426,3.606029510498047,0.4309358596801758,0.5616188049316406,-0.5697336196899414,0.41746997833251953
209,4673037.0,17.041250228881836,-2.7761611938476562,3.252621650695801,1.7279109954833984,2.688809394836426,3.606029510498047,0.4309358596801758,0.5616188049316406,-0.5697336196899414,0.41746997833251953
210,4673047.0,15.738764762878418,-2.2362518310546875,4.216317176818848,1.2666378021240234,3.2001514434814453,3.892594337463379,0.4309358596801758,0.5616188049316406,-0.5697336196899414,0.41746997833251953
211,4673057.0,14.924711227416992,-2.9760828018188477,4.450956344604492,1.2666378021240234,3.2001514434814453,3.892594337463379,0.4309358596801758,0.5616188049316406,-0.5697336196899414,0.41746997833251953
212,4673147.0,5.802524566650391,-3.872738838195801,5.0854387283325195,0.4740562438964844,4.364521026611328,3.164997100830078,0.4309358596801758,0.5616188049316406,-0.5697336196899414,0.41746997833251953
213,4673167.0,3.308887481689453,-1.7933111190795898,2.688770294189453,0.24501800537109375,4.174898147583008,2.946610450744629,0.4309358596801758,0.5616188049316406,-0.5697336196899414,0.41746997833251953
214,4673186.0,0.6308908462524414,-0.8631353378295898,1.4892387390136719,0.40055084228515625,3.8371992111206055,2.4959897994995117,0.4309358596801758,0.5616188049316406,-0.5697336196899414,0.41746997833251953
215,4673206.0,-1.5059986114501953,-1.7741575241088867,2.219491958618164,0.48151397705078125,3.419602394104004,2.2435150146484375,0.4309358596801758,0.5616188049316406,-0.5697336196899414,0.41746997833251953
216,4673226.0,-3.131711006164551,-1.517970085144043,2.936577796936035,0.5752601623535156,2.9135866165161133,2.049631118774414,0.4309358596801758,0.5616188049316406,-0.5697336196899414,0.41746997833251953
217,4673246.0,-4.332439422607422,-0.5171632766723633,4.210331916809082,0.8895225524902344,2.4768152236938477,1.8291139602661133,0.4309358596801758,0.5616188049316406,-0.5697336196899414,0.41746997833251953
218,4673376.0,-11.12619400024414,0.05626487731933594,4.976499557495117,0.8895225524902344,2.4768152236938477,1.8291139602661133,0.16516685485839844,0.9496994018554688,-0.1939105987548828,-0.18225860595703125
219,4673395.0,-11.294990539550781,-1.8136625289916992,6.058712005615234,0.8895225524902344,2.4768152236938477,1.8291139602661133,0.15152835845947266,0.951512336730957,-0.1783742904663086,-0.19960784912109375
220,4673415.0,-11.894756317138672,-1.5191669464111328,5.882732391357422,0.8895225524902344,2.4768152236938477,1.8291139602661133,0.1368551254272461,0.9528493881225586,-0.1617584228515625,-0.21721649169921875
221,4673435.0,-12.841691970825195,-1.544306755065918,5.122550010681152,0.8895225524902344,2.4768152236938477,1.8291139602661133,0.12256908416748047,0.9535408020019531,-0.1446676254272461,-0.23409175872802734
222,4673455.0,-11.808562278747559,-2.135692596435547,6.502849578857422,0.8895225524902344,2.4768152236938477,1.8291139602661133,0.11001014709472656,0.9539718627929688,-0.1280078887939453,-0.24794483184814453
223,4673576.0,-5.694782257080078,0.11492443084716797,10.02482795715332,1.4637174606323242,-0.23223400115966797,-0.5752601623535156,0.055975914001464844,0.9582881927490234,-0.09581184387207031,-0.2633962631225586
224,4673596.0,-3.502823829650879,1.5514898300170898,9.827300071716309,1.4637174606323242,-0.23223400115966797,-0.5752601623535156,0.055975914001464844,0.9582881927490234,-0.09581184387207031,-0.2633962631225586
225,4673615.0,2.4361743927001953,1.1025629043579102,9.822511672973633,1.4637174606323242,-0.23223400115966797,-0.5752601623535156,0.055975914001464844,0.9582881927490234,-0.09581184387207031,-0.2633962631225586
226,4673635.0,6.858399391174316,-0.7230701446533203,8.180039405822754,1.4637174606323242,-0.23223400115966797,-0.5752601623535156,0.055975914001464844,0.9582881927490234,-0.09581184387207031,-0.2633962631225586
227,4673655.0,10.794587135314941,-1.347975730895996,7.320494651794434,1.4637174606323242,-0.23223400115966797,-0.5752601623535156,0.055975914001464844,0.9582881927490234,-0.09581184387207031,-0.2633962631225586
228,4673675.0,14.901965141296387,-0.731450080871582,7.9968767166137695,-1.5777044296264648,-3.7583675384521484,-3.888333320617676,0.055975914001464844,0.9582881927490234,-0.09581184387207031,-0.2633962631225586
229,4673695.0,15.314977645874023,-1.109745979309082,7.679636001586914,-0.9481134414672852,-3.835068702697754,-4.026822090148926,0.055975914001464844,0.9582881927490234,-0.09581184387207031,-0.2633962631225586
230,4673714.0,10.04757308959961,-1.642472267150879,8.051945686340332,-0.005326271057128906,-3.3152036666870117,-3.675273895263672,0.055975914001464844,0.9582881927490234,-0.09581184387207031,-0.2633962631225586
231,4673734.0,6.046740531921387,-3.311281204223633,10.412700653076172,0.1374225616455078,-2.693070411682129,-2.8954763412475586,0.055975914001464844,0.9582881927490234,-0.09581184387207031,-0.2633962631225586
232,4673754.0,3.1077680587768555,-5.6109819412231445,12.415511131286621,0.4218568801879883,-1.8024816513061523,-2.080524444580078,0.055975914001464844,0.9582881927490234,-0.09581184387207031,-0.2633962631225586
233,4673774.0,1.7154970169067383,-5.585842132568359,9.881171226501465,-0.22051620483398438,-0.540104866027832,-0.7925806045532227,0.055975914001464844,0.9582881927490234,-0.09581184387207031,-0.2633962631225586
234,4673794.0,2.654052734375,-1.2557964324951172,8.935432434082031,-0.4570121765136719,0.2247772216796875,0.21625518798828125,0.055975914001464844,0.9582881927490234,-0.09581184387207031,-0.2633962631225586
235,4673814.0,4.614964485168457,-0.735041618347168,8.794170379638672,0.196014404296875,0.5017547607421875,0.4378366470336914,0.055975914001464844,0.9582881927490234,-0.09581184387207031,-0.2633962631225586
236,4673833.0,3.2909297943115234,-1.4676895141601562,7.000858306884766,0.5315828323364258,0.7467727661132812,0.40055084228515625,0.055975914001464844,0.9582881927490234,-0.09581184387207031,-0.2633962631225586
237,4673853.0,2.469694137573242,-1.4186077117919922,7.100221633911133,0.7520990371704102,0.726531982421875,0.5379743576049805,0.055975914001464844,0.9582881927490234,-0.09581184387207031,-0.2633962631225586
238,4673973.0,4.939388275146484,0.5063886642456055,10.945425987243652,-0.7137489318847656,1.4690437316894531,2.7388782501220703,0.12084293365478516,0.9458150863647461,-0.2930889129638672,-0.07034873962402344
239,4673993.0,5.649291038513184,-2.185972213745117,9.66688346862793,-1.2538537979125977,1.7673273086547852,2.793208122253418,0.12084293365478516,0.9458150863647461,-0.2930889129638672,-0.07034873962402344
240,4674013.0,5.783370018005371,-5.25303840637207,7.106206893920898,-1.3880815505981445,1.736433982849121,3.014789581298828,0.12084293365478516,0.9458150863647461,-0.2930889129638672,-0.07034873962402344
241,4674033.0,5.403877258300781,-4.63292121887207,9.378373146057129,-0.6317205429077148,1.3316211700439453,3.2086734771728516,0.12084293365478516,0.9458150863647461,-0.2930889129638672,-0.07034873962402344
242,4674052.0,4.361170768737793,-2.4936370849609375,11.072322845458984,-0.5635414123535156,0.8799352645874023,3.3375749588012695,0.12084293365478516,0.9458150863647461,-0.2930889129638672,-0.07034873962402344
243,4674173.0,-5.613376617431641,0.515965461730957,4.417436599731445,-0.5635414123535156,0.8799352645874023,3.3375749588012695,0.10772323608398438,0.9707174301147461,-0.031937599182128906,-0.2123394012451172
244,4674193.0,-5.710344314575195,-1.1205196380615234,3.940976142883301,-0.5635414123535156,0.8799352645874023,3.3375749588012695,0.10772323608398438,0.9707174301147461,-0.031937599182128906,-0.2123394012451172
245,4674213.0,-6.592635154724121,-0.9780607223510742,3.2657899856567383,-0.5635414123535156,0.8799352645874023,3.3375749588012695,0.10772323608398438,0.9707174301147461,-0.031937599182128906,-0.2123394012451172
246,4674233.0,-6.739882469177246,0.32681846618652344,3.5770463943481445,-0.5635414123535156,0.8799352645874023,3.3375749588012695,0.10772323608398438,0.9707174301147461,-0.031937599182128906,-0.2123394012451172
247,4674253.0,-5.359583854675293,0.5770196914672852,7.048744201660156,-0.5635414123535156,0.8799352645874023,3.3375749588012695,0.10772323608398438,0.9707174301147461,-0.031937599182128906,-0.2123394012451172
248,4674272.0,-3.6021862030029297,-0.6847620010375977,7.9741315841674805,-1.5255050659179688,-3.11173152923584,-2.213686943054199,0.10772323608398438,0.9707174301147461,-0.031937599182128906,-0.2123394012451172
249,4674292.0,-3.4872608184814453,-0.26456642150878906,7.120572090148926,-1.6970176696777344,-3.032899856567383,-2.6419363021850586,0.10772323608398438,0.9707174301147461,-0.031937599182128906,-0.2123394012451172
250,4674312.0,-3.0155887603759766,-0.4261808395385742,6.434613227844238,-2.1273975372314453,-3.0307693481445312,-3.1426258087158203,0.10772323608398438,0.9707174301147461,-0.031937599182128906,-0.2123394012451172
251,4674332.0,-1.6376838684082031,-1.426987648010254,7.352817535400391,-2.584409713745117,-3.0829687118530273,-3.5293283462524414,0.10772323608398438,0.9707174301147461,-0.031937599182128906,-0.2123394012451172
252,4674352.0,0.39026641845703125,-5.510422706604004,10.308548927307129,-1.916468620300293,-2.8059921264648438,-3.9597082138061523,0.10772323608398438,0.9707174301147461,-0.031937599182128906,-0.2123394012451172
253,4674372.0,-0.33519840240478516,-5.953363418579102,8.92585563659668,-0.40161609649658203,-2.140181541442871,-3.896855354309082,0.10772323608398438,0.9707174301147461,-0.031937599182128906,-0.2123394012451172
254,4674392.0,-1.1827716827392578,-2.751021385192871,8.344046592712402,1.1910018920898438,-2.0688066482543945,-4.009777069091797,0.10772323608398438,0.9707174301147461,-0.031937599182128906,-0.2123394012451172
255,4674412.0,-0.3411836624145508,0.29808712005615234,7.413870811462402,1.6043367385864258,-2.325542449951172,-4.031083106994629,0.10772323608398438,0.9707174301147461,-0.031937599182128906,-0.2123394012451172
256,4674432.0,2.782146453857422,-1.2162914276123047,10.45460033416748,0.5177335739135742,-2.7964038848876953,-4.035344123840332,0.10772323608398438,0.9707174301147461,-0.031937599182128906,-0.2123394012451172
257,4674452.0,8.047157287597656,-10.776630401611328,11.16809368133545,-0.7979068756103516,-2.766575813293457,-3.839329719543457,0.10772323608398438,0.9707174301147461,-0.031937599182128906,-0.2123394012451172
258,4674572.0,14.132205963134766,0.6093425750732422,6.99367618560791,0.14594554901123047,-3.43984317779541,-3.419602394104004,0.10772323608398438,0.9707174301147461,-0.031937599182128906,-0.2123394012451172
259,4674572.0,14.132205963134766,0.6093425750732422,6.99367618560791,0.14594554901123047,-3.43984317779541,-3.419602394104004,0.10772323608398438,0.9707174301147461,-0.031937599182128906,-0.2123394012451172
260,4674591.0,13.549200057983398,-0.6536369323730469,5.546337127685547,0.14594554901123047,-3.43984317779541,-3.419602394104004,0.10772323608398438,0.9707174301147461,-0.031937599182128906,-0.2123394012451172
261,4674591.0,13.549200057983398,-0.6536369323730469,5.546337127685547,0.14594554901123047,-3.43984317779541,-3.419602394104004,0.10772323608398438,0.9707174301147461,-0.031937599182128906,-0.2123394012451172
262,4674611.0,14.116642951965332,-2.160832405090332,5.423031806945801,0.14594554901123047,-3.43984317779541,-3.419602394104004,0.10772323608398438,0.9707174301147461,-0.031937599182128906,-0.2123394012451172
263,4674611.0,14.116642951965332,-2.160832405090332,5.423031806945801,0.14594554901123047,-3.43984317779541,-3.419602394104004,0.10772323608398438,0.9707174301147461,-0.031937599182128906,-0.2123394012451172
264,4674631.0,15.470605850219727,-1.8376054763793945,6.5148210525512695,0.14594554901123047,-3.43984317779541,-3.419602394104004,0.10772323608398438,0.9707174301147461,-0.031937599182128906,-0.2123394012451172
265,4674631.0,15.470605850219727,-1.8376054763793945,6.5148210525512695,0.14594554901123047,-3.43984317779541,-3.419602394104004,0.10772323608398438,0.9707174301147461,-0.031937599182128906,-0.2123394012451172
266,4674651.0,14.91752815246582,-0.950526237487793,6.891919136047363,0.14594554901123047,-3.43984317779541,-3.419602394104004,0.10772323608398438,0.9707174301147461,-0.031937599182128906,-0.2123394012451172
267,4674651.0,14.91752815246582,-0.950526237487793,6.891919136047363,0.14594554901123047,-3.43984317779541,-3.419602394104004,0.10772323608398438,0.9707174301147461,-0.031937599182128906,-0.2123394012451172
268,4674672.0,13.255901336669922,-1.2797393798828125,5.63492488861084,-0.2471485137939453,-1.3848857879638672,-2.1050262451171875,0.10772323608398438,0.9707174301147461,-0.031937599182128906,-0.2123394012451172
269,4674692.0,11.589486122131348,-1.4545211791992188,4.283356666564941,-0.7947111129760742,-0.7339887619018555,-1.3976688385009766,0.10772323608398438,0.9707174301147461,-0.031937599182128906,-0.2123394012451172
270,4674711.0,10.30495834350586,-0.5901880264282227,3.657254219055176,-0.943852424621582,-0.31958866119384766,-0.6402425765991211,0.10772323608398438,0.9707174301147461,-0.031937599182128906,-0.2123394012451172
271,4674731.0,9.57709789276123,0.614130973815918,3.6345081329345703,-0.8937835693359375,-0.12677001953125,0.13422679901123047,0.10772323608398438,0.9707174301147461,-0.031937599182128906,-0.2123394012451172
272,4674751.0,9.553155899047852,1.136082649230957,3.6955623626708984,-0.8575639724731445,-0.007456779479980469,0.7222709655761719,0.10772323608398438,0.9707174301147461,-0.031937599182128906,-0.2123394012451172
273,4674870.0,8.369186401367188,-0.5913858413696289,3.6033830642700195,-0.4548816680908203,0.33024120330810547,0.5859127044677734,0.10772323608398438,0.9707174301147461,-0.031937599182128906,-0.2123394012451172
274,4674870.0,8.369186401367188,-0.5913858413696289,3.6033830642700195,-0.4548816680908203,0.33024120330810547,0.5859127044677734,0.10772323608398438,0.9707174301147461,-0.031937599182128906,-0.2123394012451172
275,4674890.0,8.608613967895508,0.5530767440795898,4.045126914978027,0.2247772216796875,0.20453643798828125,0.4442281723022461,0.10772323608398438,0.9707174301147461,-0.031937599182128906,-0.2123394012451172
276,4674890.0,8.608613967895508,0.5530767440795898,4.045126914978027,0.2247772216796875,0.20453643798828125,0.4442281723022461,0.10772323608398438,0.9707174301147461,-0.031937599182128906,-0.2123394012451172
277,4674910.0,8.947403907775879,1.4281845092773438,3.8452043533325195,0.41120433807373047,0.08841896057128906,0.3856372833251953,0.10772323608398438,0.9707174301147461,-0.031937599182128906,-0.2123394012451172
278,4674910.0,8.947403907775879,1.4281845092773438,3.8452043533325195,0.41120433807373047,0.08841896057128906,0.3856372833251953,0.10772323608398438,0.9707174301147461,-0.031937599182128906,-0.2123394012451172
279,4674929.0,8.936630249023438,1.0367202758789062,3.459726333618164,0.1619243621826172,0.08522319793701172,0.31532764434814453,0.10772323608398438,0.9707174301147461,-0.031937599182128906,-0.2123394012451172
280,4674949.0,8.879167556762695,0.3974494934082031,3.1329078674316406,-0.16405487060546875,0.053264617919921875,0.30147838592529297,0.10772323608398438,0.9707174301147461,-0.031937599182128906,-0.2123394012451172
281,4675069.0,9.04556941986084,0.1999216079711914,3.092205047607422,-0.16405487060546875,0.053264617919921875,0.30147838592529297,0.10772323608398438,0.9707174301147461,-0.031937599182128906,-0.2123394012451172
282,4675089.0,9.02641487121582,0.06703948974609375,3.0407285690307617,-0.16405487060546875,0.053264617919921875,0.30147838592529297,0.10772323608398438,0.9707174301147461,-0.031937599182128906,-0.2123394012451172
283,4675109.0,9.138946533203125,-0.17478179931640625,2.996434211730957,-0.16405487060546875,0.053264617919921875,0.30147838592529297,0.10772323608398438,0.9707174301147461,-0.031937599182128906,-0.2123394012451172
284,4675129.0,9.162888526916504,-0.1915416717529297,3.035940170288086,-0.16405487060546875,0.053264617919921875,0.30147838592529297,0.10772323608398438,0.9707174301147461,-0.031937599182128906,-0.2123394012451172
285,4675148.0,9.061132431030273,-0.25618648529052734,3.028757095336914,-0.16405487060546875,0.053264617919921875,0.30147838592529297,0.10772323608398438,0.9707174301147461,-0.031937599182128906,-0.2123394012451172
286,4675169.0,8.971346855163574,-0.46329212188720703,3.010800361633301,-0.16405487060546875,0.053264617919921875,0.30147838592529297,0.10772323608398438,0.9707174301147461,-0.031937599182128906,-0.2123394012451172
287,4675189.0,8.980923652648926,-0.4513206481933594,3.0778398513793945,-0.16405487060546875,0.053264617919921875,0.30147838592529297,0.10772323608398438,0.9707174301147461,-0.031937599182128906,-0.2123394012451172
288,4675229.0,8.960572242736816,-0.3148469924926758,3.0562915802001953,-0.16405487060546875,0.053264617919921875,0.30147838592529297,0.10772323608398438,0.9707174301147461,-0.031937599182128906,-0.2123394012451172
289,4675409.0,9.04556941986084,-0.6859588623046875,2.938971519470215,-0.16405487060546875,0.053264617919921875,0.30147838592529297,0.10772323608398438,0.9707174301147461,-0.031937599182128906,-0.2123394012451172
290,4675429.0,9.040781021118164,-0.6895503997802734,2.9916458129882812,-0.16405487060546875,0.053264617919921875,0.30147838592529297,0.10772323608398438,0.9707174301147461,-0.031937599182128906,-0.2123394012451172
291,4675449.0,9.070709228515625,-0.6284961700439453,2.948549270629883,-0.16405487060546875,0.053264617919921875,0.30147838592529297,0.10772323608398438,0.9707174301147461,-0.031937599182128906,-0.2123394012451172
292,4675568.0,9.04437255859375,-0.6057510375976562,2.968899726867676,-0.031958580017089844,-0.0287628173828125,0.0063915252685546875,0.10772323608398438,0.9707174301147461,-0.031937599182128906,-0.2123394012451172
293,4675568.0,9.04437255859375,-0.6057510375976562,2.968899726867676,-0.031958580017089844,-0.0287628173828125,0.0063915252685546875,0.10772323608398438,0.9707174301147461,-0.031937599182128906,-0.2123394012451172
294,4675588.0,8.930644035339355,-0.6488475799560547,2.9940404891967773,-0.030893325805664062,-0.011717796325683594,0.0021305084228515625,0.10772323608398438,0.9707174301147461,-0.031937599182128906,-0.2123394012451172
295,4675588.0,8.930644035339355,-0.6488475799560547,2.9940404891967773,-0.030893325805664062,-0.011717796325683594,0.0021305084228515625,0.10772323608398438,0.9707174301147461,-0.031937599182128906,-0.2123394012451172
296,4675608.0,8.968952178955078,-0.6883535385131836,2.9808712005615234,-0.01597881317138672,-0.026632308959960938,-0.00852203369140625,0.10772323608398438,0.9707174301147461,-0.031937599182128906,-0.2123394012451172
297,4675608.0,8.968952178955078,-0.6883535385131836,2.9808712005615234,-0.01597881317138672,-0.026632308959960938,-0.00852203369140625,0.10772323608398438,0.9707174301147461,-0.031937599182128906,-0.2123394012451172
298,4675628.0,9.053949356079102,-0.6739873886108398,3.0419254302978516,0.0031957626342773438,-0.03515434265136719,-0.0170440673828125,0.10772323608398438,0.9707174301147461,-0.031937599182128906,-0.2123394012451172
299,4675648.0,9.101835250854492,-0.6871566772460938,2.9880542755126953,0.012783050537109375,-0.02769756317138672,-0.025567054748535156,0.10772323608398438,0.9707174301147461,-0.031937599182128906,-0.2123394012451172
300,4675648.0,9.101835250854492,-0.6871566772460938,2.9880542755126953,0.012783050537109375,-0.02769756317138672,-0.025567054748535156,0.10772323608398438,0.9707174301147461,-0.031937599182128906,-0.2123394012451172
301,4675758.0,8.911490440368652,-0.6249055862426758,2.9281978607177734,0.01597881317138672,-0.0010652542114257812,-0.0170440673828125,0.10772323608398438,0.9707174301147461,-0.031937599182128906,-0.2123394012451172
302,4675758.0,8.911490440368652,-0.6249055862426758,2.9281978607177734,0.01597881317138672,-0.0010652542114257812,-0.0170440673828125,0.10772323608398438,0.9707174301147461,-0.031937599182128906,-0.2123394012451172
303,4675777.0,8.928250312805176,-0.6919450759887695,2.9808712005615234,-0.007456779479980469,-0.0010652542114257812,-0.034089088439941406,0.10772323608398438,0.9707174301147461,-0.031937599182128906,-0.2123394012451172
304,4675777.0,8.928250312805176,-0.6919450759887695,2.9808712005615234,-0.007456779479980469,-0.0010652542114257812,-0.034089088439941406,0.10772323608398438,0.9707174301147461,-0.031937599182128906,-0.2123394012451172
305,4675797.0,9.088665962219238,-0.7422246932983398,2.937774658203125,-0.033023834228515625,-0.00852203369140625,-0.040480613708496094,0.10772323608398438,0.9707174301147461,-0.031937599182128906,-0.2123394012451172
306,4675797.0,9.088665962219238,-0.7422246932983398,2.937774658203125,-0.033023834228515625,-0.00852203369140625,-0.040480613708496094,0.10772323608398438,0.9707174301147461,-0.031937599182128906,-0.2123394012451172
307,4675817.0,9.158100128173828,-0.705113410949707,2.909043312072754,-0.04687213897705078,-0.009587287902832031,-0.03728485107421875,0.10772323608398438,0.9707174301147461,-0.031937599182128906,-0.2123394012451172
308,4675817.0,9.158100128173828,-0.705113410949707,2.909043312072754,-0.04687213897705078,-0.009587287902832031,-0.03728485107421875,0.10772323608398438,0.9707174301147461,-0.031937599182128906,-0.2123394012451172
309,4675837.0,9.010852813720703,-0.7182817459106445,2.898268699645996,-0.05965614318847656,0.0,-0.023435592651367188,0.10772323608398438,0.9707174301147461,-0.031937599182128906,-0.2123394012451172
310,4675837.0,9.010852813720703,-0.7182817459106445,2.898268699645996,-0.05965614318847656,0.0,-0.023435592651367188,0.10772323608398438,0.9707174301147461,-0.031937599182128906,-0.2123394012451172
311,4676066.0,9.06472396850586,-0.7230701446533203,2.8815088272094727,-0.04687213897705078,-0.023435592651367188,-0.024501800537109375,0.39425086975097656,0.6270904541015625,-0.5073699951171875,0.44034385681152344
312,4676086.0,9.073103904724121,-0.7182817459106445,2.8898887634277344,-0.04687213897705078,-0.023435592651367188,-0.024501800537109375,0.39425086975097656,0.6270904541015625,-0.5073699951171875,0.44034385681152344
313,4676105.0,9.019232749938965,-0.6644105911254883,2.9210147857666016,-0.04687213897705078,-0.023435592651367188,-0.024501800537109375,0.39425086975097656,0.6270904541015625,-0.5073699951171875,0.44034385681152344
314,4676125.0,9.02641487121582,-0.6452569961547852,2.8922834396362305,-0.04687213897705078,-0.023435592651367188,-0.024501800537109375,0.39425086975097656,0.6270904541015625,-0.5073699951171875,0.44034385681152344
315,4676145.0,9.034794807434082,-0.6584253311157227,2.9198179244995117,-0.04687213897705078,-0.023435592651367188,-0.024501800537109375,0.39425086975097656,0.6270904541015625,-0.5073699951171875,0.44034385681152344
316,4676166.0,9.008458137512207,-0.6548337936401367,2.8874950408935547,-0.04687213897705078,-0.023435592651367188,-0.024501800537109375,0.39425086975097656,0.6270904541015625,-0.5073699951171875,0.44034385681152344
317,4676186.0,9.034794807434082,-0.7338447570800781,2.937774658203125,-0.04687213897705078,-0.023435592651367188,-0.024501800537109375,0.39425086975097656,0.6270904541015625,-0.5073699951171875,0.44034385681152344
318,4676206.0,9.006063461303711,-0.6859588623046875,2.904254913330078,-0.04687213897705078,-0.023435592651367188,-0.024501800537109375,0.39425086975097656,0.6270904541015625,-0.5073699951171875,0.44034385681152344
319,4676225.0,9.003669738769531,-0.640467643737793,2.9102401733398438,-0.04687213897705078,-0.023435592651367188,-0.024501800537109375,0.39425086975097656,0.6270904541015625,-0.5073699951171875,0.44034385681152344
320,4676245.0,9.061132431030273,-0.6213140487670898,2.8659467697143555,-0.04687213897705078,-0.023435592651367188,-0.024501800537109375,0.39425086975097656,0.6270904541015625,-0.5073699951171875,0.44034385681152344
321,4676256.0,9.089863777160645,-0.6548337936401367,2.876720428466797,-0.04687213897705078,-0.023435592651367188,-0.024501800537109375,0.39425086975097656,0.6270904541015625,-0.5073699951171875,0.44034385681152344
322,4676266.0,9.09465217590332,-0.6668052673339844,2.875523567199707,-0.04687213897705078,-0.023435592651367188,-0.024501800537109375,0.39425086975097656,0.6270904541015625,-0.5073699951171875,0.44034385681152344
323,4676276.0,9.061132431030273,-0.6691989898681641,2.8958749771118164,-0.04687213897705078,-0.023435592651367188,-0.024501800537109375,0.39425086975097656,0.6270904541015625,-0.5073699951171875,0.44034385681152344
324,4676286.0,9.031203269958496,-0.6775789260864258,2.8958749771118164,-0.04687213897705078,-0.023435592651367188,-0.024501800537109375,0.39425086975097656,0.6270904541015625,-0.5073699951171875,0.44034385681152344
325,4676296.0,8.99409294128418,-0.67279052734375,2.8815088272094727,-0.04687213897705078,-0.023435592651367188,-0.024501800537109375,0.39425086975097656,0.6270904541015625,-0.5073699951171875,0.44034385681152344
326,4676306.0,8.971346855163574,-0.6943387985229492,2.873128890991211,-0.04687213897705078,-0.023435592651367188,-0.024501800537109375,0.39425086975097656,0.6270904541015625,-0.5073699951171875,0.44034385681152344
327,4676315.0,8.942615509033203,-0.682368278503418,2.8611574172973633,-0.04687213897705078,-0.023435592651367188,-0.024501800537109375,0.39425086975097656,0.6270904541015625,-0.5073699951171875,0.44034385681152344
328,4676325.0,8.959375381469727,-0.6356792449951172,2.8300323486328125,-0.04687213897705078,-0.023435592651367188,-0.024501800537109375,0.39425086975097656,0.6270904541015625,-0.5073699951171875,0.44034385681152344
329,4676335.0,9.037189483642578,-0.6608190536499023,2.814469337463379,-0.04687213897705078,-0.023435592651367188,-0.024501800537109375,0.39425086975097656,0.6270904541015625,-0.5073699951171875,0.44034385681152344
330,4676355.0,9.131763458251953,-0.6596221923828125,2.839609146118164,0.0063915252685546875,-0.023435592651367188,-0.00852203369140625,0.39425086975097656,0.6270904541015625,-0.5073699951171875,0.44034385681152344
331,4676375.0,9.019232749938965,-0.6320877075195312,2.8551721572875977,0.020239830017089844,-0.009587287902832031,-0.022370338439941406,0.39425086975097656,0.6270904541015625,-0.5073699951171875,0.44034385681152344
332,4676395.0,8.99648666381836,-0.678776741027832,2.868340492248535,0.004261016845703125,-0.01597881317138672,-0.0170440673828125,0.39425086975097656,0.6270904541015625,-0.5073699951171875,0.44034385681152344
333,4676415.0,9.071906089782715,-0.6691989898681641,2.836017608642578,0.0010652542114257812,-0.019174575805664062,-0.020239830017089844,0.39425086975097656,0.6270904541015625,-0.5073699951171875,0.44034385681152344
334,4676434.0,9.11620044708252,-0.7003250122070312,2.8635520935058594,-0.0063915252685546875,-0.01597881317138672,-0.011717796325683594,0.39425086975097656,0.6270904541015625,-0.5073699951171875,0.44034385681152344
335,4676913.0,9.050357818603516,-0.6739873886108398,2.845595359802246,0.0010652542114257812,-0.01597881317138672,-0.0010652542114257812,0.3986530303955078,0.6259679794311523,-0.5050392150878906,0.44060325622558594
336,4676933.0,9.071906089782715,-0.6524391174316406,2.838412284851074,0.0010652542114257812,-0.01597881317138672,-0.0010652542114257812,0.3986530303955078,0.6259679794311523,-0.5050392150878906,0.44060325622558594
337,4676954.0,9.06592082977295,-0.6225109100341797,2.8252439498901367,0.0010652542114257812,-0.01597881317138672,-0.0010652542114257812,0.3986530303955078,0.6259679794311523,-0.5050392150878906,0.44060325622558594
338,4676973.0,9.037189483642578,-0.6093425750732422,2.8252439498901367,0.0010652542114257812,-0.01597881317138672,-0.0010652542114257812,0.3986530303955078,0.6259679794311523,-0.5050392150878906,0.44060325622558594
339,4676993.0,9.052752494812012,-0.587794303894043,2.809680938720703,0.0010652542114257812,-0.01597881317138672,-0.0010652542114257812,0.3986530303955078,0.6259679794311523,-0.5050392150878906,0.44060325622558594
340,4677013.0,9.081483840942383,-0.6524391174316406,2.812075614929199,0.0010652542114257812,-0.01597881317138672,-0.0010652542114257812,0.3986530303955078,0.6259679794311523,-0.5050392150878906,0.44060325622558594
341,4677033.0,9.09465217590332,-0.6009626388549805,2.788132667541504,0.0010652542114257812,-0.01597881317138672,-0.0010652542114257812,0.3986530303955078,0.6259679794311523,-0.5050392150878906,0.44060325622558594
342,4677093.0,9.106623649597168,-0.5961742401123047,2.7761611938476562,-0.019174575805664062,-0.013848304748535156,-0.040480613708496094,0.3986530303955078,0.6259679794311523,-0.5050392150878906,0.44060325622558594
343,4677113.0,9.061132431030273,-0.5925827026367188,2.7653865814208984,-0.026632308959960938,-0.007456779479980469,-0.03728485107421875,0.3986530303955078,0.6259679794311523,-0.5050392150878906,0.44060325622558594
344,4677133.0,8.962966918945312,-0.5937795639038086,2.7378530502319336,-0.031958580017089844,-0.004261016845703125,-0.034089088439941406,0.3986530303955078,0.6259679794311523,-0.5050392150878906,0.44060325622558594
345,4677253.0,9.101835250854492,-0.5830049514770508,2.7426414489746094,-0.004261016845703125,-0.02769756317138672,-0.054329872131347656,0.3986530303955078,0.6259679794311523,-0.5050392150878906,0.44060325622558594
346,4677272.0,9.158100128173828,-0.5614566802978516,2.7761611938476562,-0.025567054748535156,-0.021305084228515625,-0.052199363708496094,0.3986530303955078,0.6259679794311523,-0.5050392150878906,0.44060325622558594
347,4677292.0,9.014443397521973,-0.6452569961547852,2.7929210662841797,-0.053264617919921875,-0.0063915252685546875,-0.033023834228515625,0.3986530303955078,0.6259679794311523,-0.5050392150878906,0.44060325622558594
348,4677312.0,8.97374153137207,-0.7278594970703125,2.784541130065918,-0.040480613708496094,-0.019174575805664062,-0.019174575805664062,0.3986530303955078,0.6259679794311523,-0.5050392150878906,0.44060325622558594
349,4677332.0,9.043174743652344,-0.6656074523925781,2.7570066452026367,0.0170440673828125,-0.024501800537109375,-0.009587287902832031,0.3986530303955078,0.6259679794311523,-0.5050392150878906,0.44060325622558594
350,4677452.0,9.09345531463623,-0.5411052703857422,2.748626708984375,-0.0063915252685546875,-0.012783050537109375,-0.005326271057128906,0.3986530303955078,0.6259679794311523,-0.5050392150878906,0.44060325622558594
351,4677472.0,8.986909866333008,-0.5626544952392578,2.7749643325805664,-0.0063915252685546875,-0.012783050537109375,-0.005326271057128906,0.3986530303955078,0.6259679794311523,-0.5050392150878906,0.44060325622558594
352,4677491.0,9.057540893554688,-0.6392707824707031,2.7570066452026367,-0.0063915252685546875,-0.012783050537109375,-0.005326271057128906,0.3986530303955078,0.6259679794311523,-0.5050392150878906,0.44060325622558594
353,4677511.0,9.074300765991211,-0.6201162338256836,2.7330636978149414,-0.0063915252685546875,-0.012783050537109375,-0.005326271057128906,0.3986530303955078,0.6259679794311523,-0.5050392150878906,0.44060325622558594
354,4677531.0,9.07669448852539,-0.6308908462524414,2.751021385192871,-0.0063915252685546875,-0.012783050537109375,-0.005326271057128906,0.3986530303955078,0.6259679794311523,-0.5050392150878906,0.44060325622558594
355,4677651.0,9.062329292297363,-0.894261360168457,2.8240461349487305,0.12250900268554688,0.0,0.07030868530273438,0.3986530303955078,0.6259679794311523,-0.5050392150878906,0.44060325622558594
356,4677671.0,9.138946533203125,-0.9194011688232422,2.8910865783691406,0.17151260375976562,-0.0031957626342773438,0.09907245635986328,0.3986530303955078,0.6259679794311523,-0.5050392150878906,0.44060325622558594
357,4677691.0,9.47653865814209,-0.8834867477416992,2.9030580520629883,0.19814491271972656,0.0,0.1384878158569336,0.3986530303955078,0.6259679794311523,-0.5050392150878906,0.44060325622558594
358,4677710.0,9.628575325012207,-0.8834867477416992,3.1101627349853516,0.16298961639404297,0.057525634765625,0.19921016693115234,0.3986530303955078,0.6259679794311523,-0.5050392150878906,0.44060325622558594
359,4677730.0,9.756669044494629,-1.0199604034423828,3.440572738647461,0.10865974426269531,0.10759449005126953,0.29189109802246094,0.3986530303955078,0.6259679794311523,-0.5050392150878906,0.44060325622558594
360,4677750.0,10.174469947814941,-1.236642837524414,3.8739356994628906,0.07563591003417969,0.1619243621826172,0.4442281723022461,0.3986530303955078,0.6259679794311523,-0.5050392150878906,0.44060325622558594
361,4677750.0,10.174469947814941,-1.236642837524414,3.8739356994628906,0.07563591003417969,0.1619243621826172,0.4442281723022461,0.3986530303955078,0.6259679794311523,-0.5050392150878906,0.44060325622558594
362,4677770.0,10.600650787353516,-1.8352108001708984,4.550318717956543,0.09481048583984375,0.29082584381103516,0.7009649276733398,0.3986530303955078,0.6259679794311523,-0.5050392150878906,0.44060325622558594
363,4677770.0,10.600650787353516,-1.8352108001708984,4.550318717956543,0.09481048583984375,0.29082584381103516,0.7009649276733398,0.3986530303955078,0.6259679794311523,-0.5050392150878906,0.44060325622558594
364,4677790.0,11.5559663772583,-3.2238903045654297,4.309694290161133,0.518798828125,0.5166683197021484,0.9928560256958008,0.3986530303955078,0.6259679794311523,-0.5050392150878906,0.44060325622558594
365,4677790.0,11.5559663772583,-3.2238903045654297,4.309694290161133,0.518798828125,0.5166683197021484,0.9928560256958008,0.3986530303955078,0.6259679794311523,-0.5050392150878906,0.44060325622558594
366,4677809.0,12.352063179016113,-3.620142936706543,4.879530906677246,1.4370851516723633,0.7595558166503906,1.3997993469238281,0.3986530303955078,0.6259679794311523,-0.5050392150878906,0.44060325622558594
367,4677809.0,12.352063179016113,-3.620142936706543,4.879530906677246,1.4370851516723633,0.7595558166503906,1.3997993469238281,0.3986530303955078,0.6259679794311523,-0.5050392150878906,0.44060325622558594
368,4677829.0,13.358855247497559,-2.6516590118408203,6.044345855712891,1.8429632186889648,0.9395914077758789,1.8823795318603516,0.3986530303955078,0.6259679794311523,-0.5050392150878906,0.44060325622558594
369,4677829.0,13.358855247497559,-2.6516590118408203,6.044345855712891,1.8429632186889648,0.9395914077758789,1.8823795318603516,0.3986530303955078,0.6259679794311523,-0.5050392150878906,0.44060325622558594
370,4677950.0,11.736734390258789,-3.6249313354492188,7.459362030029297,1.8429632186889648,0.9395914077758789,1.8823795318603516,0.3229103088378906,0.8098659515380859,-0.3597249984741211,0.3322324752807617
371,4677970.0,10.680858612060547,-3.804502487182617,6.902693748474121,1.8429632186889648,0.9395914077758789,1.8823795318603516,0.3229103088378906,0.8098659515380859,-0.3597249984741211,0.3322324752807617
372,4677990.0,9.532804489135742,-3.4226150512695312,6.574677467346191,1.8429632186889648,0.9395914077758789,1.8823795318603516,0.3229103088378906,0.8098659515380859,-0.3597249984741211,0.3322324752807617
373,4678010.0,7.597033500671387,-4.1289262771606445,5.786961555480957,1.8429632186889648,0.9395914077758789,1.8823795318603516,0.3229103088378906,0.8098659515380859,-0.3597249984741211,0.3322324752807617
374,4678029.0,5.947378158569336,-5.361977577209473,6.027585983276367,1.8429632186889648,0.9395914077758789,1.8823795318603516,0.3229103088378906,0.8098659515380859,-0.3597249984741211,0.3322324752807617
375,4678050.0,4.841222763061523,-4.340819358825684,5.456551551818848,0.24927902221679688,3.4164066314697266,2.4395294189453125,0.3229103088378906,0.8098659515380859,-0.3597249984741211,0.3322324752807617
376,4678070.0,3.6345081329345703,-2.006402015686035,3.835627555847168,0.24927902221679688,3.3844480514526367,2.197707176208496,0.3229103088378906,0.8098659515380859,-0.3597249984741211,0.3322324752807617
377,4678090.0,1.116929054260254,-3.087416648864746,3.3184642791748047,0.4570121765136719,3.423863410949707,2.180662155151367,0.3229103088378906,0.8098659515380859,-0.3597249984741211,0.3322324752807617
378,4678110.0,-1.357553482055664,-3.117344856262207,4.211528778076172,0.8362579345703125,3.1096010208129883,2.1135482788085938,0.3229103088378906,0.8098659515380859,-0.3597249984741211,0.3322324752807617
379,4678129.0,-1.942953109741211,-2.743838310241699,4.46292781829834,0.8543672561645508,2.914651870727539,1.980386734008789,0.3229103088378906,0.8098659515380859,-0.3597249984741211,0.3322324752807617
380,4678248.0,-10.257072448730469,-0.09936237335205078,4.207937240600586,0.3930940628051758,1.8940973281860352,1.8877058029174805,0.17241764068603516,0.9576406478881836,-0.1765613555908203,-0.1484222412109375
381,4678248.0,-10.257072448730469,-0.09936237335205078,4.207937240600586,0.3930940628051758,1.8940973281860352,1.8877058029174805,0.17241764068603516,0.9576406478881836,-0.1765613555908203,-0.1484222412109375
382,4678248.0,-10.257072448730469,-0.09936237335205078,4.207937240600586,0.3930940628051758,1.8940973281860352,1.8877058029174805,0.17241764068603516,0.9576406478881836,-0.1765613555908203,-0.1484222412109375
383,4678268.0,-9.847651481628418,-0.14844417572021484,5.572673797607422,0.774470329284668,1.8237876892089844,1.8685302734375,0.17241764068603516,0.9576406478881836,-0.1765613555908203,-0.1484222412109375
384,4678268.0,-9.847651481628418,-0.14844417572021484,5.572673797607422,0.774470329284668,1.8237876892089844,1.8685302734375,0.17241764068603516,0.9576406478881836,-0.1765613555908203,-0.1484222412109375
385,4678268.0,-9.847651481628418,-0.14844417572021484,5.572673797607422,0.774470329284668,1.8237876892089844,1.8685302734375,0.17241764068603516,0.9576406478881836,-0.1765613555908203,-0.1484222412109375
386,4678288.0,-10.485725402832031,-1.0917892456054688,6.269408226013184,0.7329235076904297,1.8120698928833008,2.011280059814453,0.17241764068603516,0.9576406478881836,-0.1765613555908203,-0.1484222412109375
387,4678288.0,-10.485725402832031,-1.0917892456054688,6.269408226013184,0.7329235076904297,1.8120698928833008,2.011280059814453,0.17241764068603516,0.9576406478881836,-0.1765613555908203,-0.1484222412109375
388,4678288.0,-10.485725402832031,-1.0917892456054688,6.269408226013184,0.7329235076904297,1.8120698928833008,2.011280059814453,0.17241764068603516,0.9576406478881836,-0.1765613555908203,-0.1484222412109375
389,4678308.0,-11.290202140808105,-1.4904356002807617,5.585842132568359,0.747838020324707,1.7215194702148438,2.00701904296875,0.17241764068603516,0.9576406478881836,-0.1765613555908203,-0.1484222412109375
390,4678308.0,-11.290202140808105,-1.4904356002807617,5.585842132568359,0.747838020324707,1.7215194702148438,2.00701904296875,0.17241764068603516,0.9576406478881836,-0.1765613555908203,-0.1484222412109375
391,4678308.0,-11.290202140808105,-1.4904356002807617,5.585842132568359,0.747838020324707,1.7215194702148438,2.00701904296875,0.17241764068603516,0.9576406478881836,-0.1765613555908203,-0.1484222412109375
392,4678328.0,-11.996513366699219,0.5794143676757812,4.70235538482666,0.7659482955932617,1.4935455322265625,1.7758493423461914,0.17241764068603516,0.9576406478881836,-0.1765613555908203,-0.1484222412109375
393,4678328.0,-11.996513366699219,0.5794143676757812,4.70235538482666,0.7659482955932617,1.4935455322265625,1.7758493423461914,0.17241764068603516,0.9576406478881836,-0.1765613555908203,-0.1484222412109375
394,4678328.0,-11.996513366699219,0.5794143676757812,4.70235538482666,0.7659482955932617,1.4935455322265625,1.7758493423461914,0.17241764068603516,0.9576406478881836,-0.1765613555908203,-0.1484222412109375
395,4678448.0,-6.972127914428711,-0.9050350189208984,12.073129653930664,1.1931324005126953,-0.6445045471191406,-0.6189374923706055,0.17241764068603516,0.9576406478881836,-0.1765613555908203,-0.1484222412109375
396,4678448.0,-6.972127914428711,-0.9050350189208984,12.073129653930664,1.1931324005126953,-0.6445045471191406,-0.6189374923706055,0.17241764068603516,0.9576406478881836,-0.1765613555908203,-0.1484222412109375
397,4678468.0,-5.087833404541016,-0.8691215515136719,12.037215232849121,0.7680788040161133,-0.8937835693359375,-1.1505203247070312,0.17241764068603516,0.9576406478881836,-0.1765613555908203,-0.1484222412109375
398,4678468.0,-5.087833404541016,-0.8691215515136719,12.037215232849121,0.7680788040161133,-0.8937835693359375,-1.1505203247070312,0.17241764068603516,0.9576406478881836,-0.1765613555908203,-0.1484222412109375
399,4678488.0,-3.925413131713867,1.328822135925293,10.85683822631836,0.44103240966796875,-1.078080177307129,-1.9399051666259766,0.17241764068603516,0.9576406478881836,-0.1765613555908203,-0.1484222412109375
400,4678488.0,-3.925413131713867,1.328822135925293,10.85683822631836,0.44103240966796875,-1.078080177307129,-1.9399051666259766,0.17241764068603516,0.9576406478881836,-0.1765613555908203,-0.1484222412109375
401,4678508.0,-1.289316177368164,1.355158805847168,10.352843284606934,0.2993478775024414,-1.433889389038086,-2.713311195373535,0.17241764068603516,0.9576406478881836,-0.1765613555908203,-0.1484222412109375
402,4678508.0,-1.289316177368164,1.355158805847168,10.352843284606934,0.2993478775024414,-1.433889389038086,-2.713311195373535,0.17241764068603516,0.9576406478881836,-0.1765613555908203,-0.1484222412109375
403,4678528.0,3.427403450012207,-1.145660400390625,10.500091552734375,0.07989692687988281,-1.8621387481689453,-3.3002891540527344,0.17241764068603516,0.9576406478881836,-0.1765613555908203,-0.1484222412109375
404,4678528.0,3.427403450012207,-1.145660400390625,10.500091552734375,0.07989692687988281,-1.8621387481689453,-3.3002891540527344,0.17241764068603516,0.9576406478881836,-0.1765613555908203,-0.1484222412109375
405,4678548.0,6.580663681030273,-1.8411970138549805,8.646923065185547,0.07989692687988281,-1.8621387481689453,-3.3002891540527344,0.17241764068603516,0.9576406478881836,-0.1765613555908203,-0.1484222412109375
406,4678567.0,9.292180061340332,0.06703948974609375,7.385139465332031,0.07989692687988281,-1.8621387481689453,-3.3002891540527344,0.17241764068603516,0.9576406478881836,-0.1765613555908203,-0.1484222412109375
407,4678587.0,13.634197235107422,-0.6476507186889648,7.3180999755859375,0.07989692687988281,-1.8621387481689453,-3.3002891540527344,0.17241764068603516,0.9576406478881836,-0.1765613555908203,-0.1484222412109375
408,4678607.0,14.315367698669434,-1.9920358657836914,7.251060485839844,0.07989692687988281,-1.8621387481689453,-3.3002891540527344,0.17241764068603516,0.9576406478881836,-0.1765613555908203,-0.1484222412109375
409,4678627.0,10.132570266723633,-1.417409896850586,8.37636947631836,0.07989692687988281,-1.8621387481689453,-3.3002891540527344,0.17241764068603516,0.9576406478881836,-0.1765613555908203,-0.1484222412109375
410,4678748.0,2.9808712005615234,-0.9924259185791016,6.810513496398926,0.32065391540527344,0.6924428939819336,0.2833681106567383,0.12205123901367188,0.9258327484130859,-0.35761070251464844,0.004315376281738281
411,4678767.0,1.9908390045166016,0.1867532730102539,7.203174591064453,0.32065391540527344,0.6924428939819336,0.2833681106567383,0.12205123901367188,0.9258327484130859,-0.35761070251464844,0.004315376281738281
412,4678787.0,1.5275468826293945,0.35076045989990234,7.540767669677734,0.32065391540527344,0.6924428939819336,0.2833681106567383,0.12205123901367188,0.9258327484130859,-0.35761070251464844,0.004315376281738281
413,4678807.0,1.9106311798095703,0.24900436401367188,8.244684219360352,0.32065391540527344,0.6924428939819336,0.2833681106567383,0.12205123901367188,0.9258327484130859,-0.35761070251464844,0.004315376281738281
414,4678827.0,2.7653865814208984,-0.4046316146850586,8.99648666381836,0.32065391540527344,0.6924428939819336,0.2833681106567383,0.12205123901367188,0.9258327484130859,-0.35761070251464844,0.004315376281738281
415,4678847.0,3.46331787109375,-0.5219516754150391,9.725543022155762,0.026632308959960938,0.736119270324707,1.4679784774780273,0.12205123901367188,0.9258327484130859,-0.35761070251464844,0.004315376281738281
416,4678847.0,3.46331787109375,-0.5219516754150391,9.725543022155762,0.026632308959960938,0.736119270324707,1.4679784774780273,0.12205123901367188,0.9258327484130859,-0.35761070251464844,0.004315376281738281
417,4678847.0,3.46331787109375,-0.5219516754150391,9.725543022155762,0.026632308959960938,0.736119270324707,1.4679784774780273,0.12205123901367188,0.9258327484130859,-0.35761070251464844,0.004315376281738281
418,4678867.0,3.605776786804199,0.1496419906616211,8.934235572814941,-0.7680788040161133,0.7563600540161133,2.065609931945801,0.12205123901367188,0.9258327484130859,-0.35761070251464844,0.004315376281738281
419,4678867.0,3.605776786804199,0.1496419906616211,8.934235572814941,-0.7680788040161133,0.7563600540161133,2.065609931945801,0.12205123901367188,0.9258327484130859,-0.35761070251464844,0.004315376281738281
420,4678867.0,3.605776786804199,0.1496419906616211,8.934235572814941,-0.7680788040161133,0.7563600540161133,2.065609931945801,0.12205123901367188,0.9258327484130859,-0.35761070251464844,0.004315376281738281
421,4678886.0,4.15406608581543,0.5387115478515625,9.397527694702148,-1.2069807052612305,0.7840576171875,2.6099767684936523,0.12205123901367188,0.9258327484130859,-0.35761070251464844,0.004315376281738281
422,4678886.0,4.15406608581543,0.5387115478515625,9.397527694702148,-1.2069807052612305,0.7840576171875,2.6099767684936523,0.12205123901367188,0.9258327484130859,-0.35761070251464844,0.004315376281738281
423,4678886.0,4.15406608581543,0.5387115478515625,9.397527694702148,-1.2069807052612305,0.7840576171875,2.6099767684936523,0.12205123901367188,0.9258327484130859,-0.35761070251464844,0.004315376281738281
424,4678906.0,5.6792192459106445,-0.9170064926147461,9.889551162719727,-0.551823616027832,0.8724775314331055,2.946610450744629,0.12205123901367188,0.9258327484130859,-0.35761070251464844,0.004315376281738281
425,4678906.0,5.6792192459106445,-0.9170064926147461,9.889551162719727,-0.551823616027832,0.8724775314331055,2.946610450744629,0.12205123901367188,0.9258327484130859,-0.35761070251464844,0.004315376281738281
426,4678906.0,5.6792192459106445,-0.9170064926147461,9.889551162719727,-0.551823616027832,0.8724775314331055,2.946610450744629,0.12205123901367188,0.9258327484130859,-0.35761070251464844,0.004315376281738281
427,4678926.0,6.900299072265625,-1.389876365661621,10.676070213317871,0.15127182006835938,0.747838020324707,3.319464683532715,0.12205123901367188,0.9258327484130859,-0.35761070251464844,0.004315376281738281
428,4678926.0,6.900299072265625,-1.389876365661621,10.676070213317871,0.15127182006835938,0.747838020324707,3.319464683532715,0.12205123901367188,0.9258327484130859,-0.35761070251464844,0.004315376281738281
429,4678926.0,6.900299072265625,-1.389876365661621,10.676070213317871,0.15127182006835938,0.747838020324707,3.319464683532715,0.12205123901367188,0.9258327484130859,-0.35761070251464844,0.004315376281738281
430,4679146.0,-4.042732238769531,-1.0295372009277344,6.237085342407227,-0.44103240966796875,-0.5496931076049805,0.17151260375976562,0.0900278091430664,0.9897069931030273,-0.027362823486328125,-0.10789680480957031
431,4679166.0,-5.317683219909668,-0.610539436340332,6.498061180114746,-0.44103240966796875,-0.5496931076049805,0.17151260375976562,0.0900278091430664,0.9897069931030273,-0.027362823486328125,-0.10789680480957031
432,4679186.0,-4.840025901794434,-0.8475723266601562,6.168848037719727,-0.44103240966796875,-0.5496931076049805,0.17151260375976562,0.0900278091430664,0.9897069931030273,-0.027362823486328125,-0.10789680480957031
433,4679205.0,-3.3914899826049805,-2.127312660217285,5.421834945678711,-0.44103240966796875,-0.5496931076049805,0.17151260375976562,0.0900278091430664,0.9897069931030273,-0.027362823486328125,-0.10789680480957031
434,4679225.0,-2.989251136779785,-2.5247621536254883,6.277788162231445,-0.44103240966796875,-0.5496931076049805,0.17151260375976562,0.0900278091430664,0.9897069931030273,-0.027362823486328125,-0.10789680480957031
435,4679245.0,-3.2574100494384766,-2.6181392669677734,6.574677467346191,-1.0109663009643555,-2.060283660888672,-1.8099393844604492,0.1587362289428711,0.9847440719604492,-0.06901073455810547,-0.019163131713867188
436,4679265.0,-2.8575668334960938,-2.1416778564453125,5.990474700927734,-1.0631656646728516,-2.3745460510253906,-2.0038232803344727,0.17073440551757812,0.9816799163818359,-0.08433151245117188,0.0058689117431640625
437,4679285.0,-2.030344009399414,-1.6903572082519531,6.453766822814941,-1.3230981826782227,-2.6270217895507812,-2.352174758911133,0.18493270874023438,0.9768457412719727,-0.10219955444335938,0.033965110778808594
438,4679305.0,-1.2115020751953125,-2.288926124572754,8.78339672088623,-1.226156234741211,-2.58121395111084,-2.59293270111084,0.19926166534423828,0.9701995849609375,-0.12257003784179688,0.0628814697265625
439,4679324.0,-1.4736757278442383,-2.783344268798828,8.737905502319336,-1.0099010467529297,-2.49385929107666,-2.520491600036621,0.21065521240234375,0.9627761840820312,-0.1428546905517578,0.09084796905517578
440,4679345.0,-1.2689647674560547,-2.810877799987793,8.026805877685547,-1.0099010467529297,-2.49385929107666,-2.520491600036621,0.21065521240234375,0.9627761840820312,-0.1428546905517578,0.09084796905517578
441,4679365.0,-0.16161346435546875,-2.8659467697143555,7.3276777267456055,-1.0099010467529297,-2.49385929107666,-2.520491600036621,0.21065521240234375,0.9627761840820312,-0.1428546905517578,0.09084796905517578
442,4679385.0,1.6592321395874023,-3.2562131881713867,8.619388580322266,-1.0099010467529297,-2.49385929107666,-2.520491600036621,0.21065521240234375,0.9627761840820312,-0.1428546905517578,0.09084796905517578
443,4679405.0,2.9916458129882812,-2.285334587097168,9.077892303466797,-1.0099010467529297,-2.49385929107666,-2.520491600036621,0.21065521240234375,0.9627761840820312,-0.1428546905517578,0.09084796905517578
444,4679424.0,4.557501792907715,-2.741443634033203,8.946207046508789,-1.0099010467529297,-2.49385929107666,-2.520491600036621,0.21065521240234375,0.9627761840820312,-0.1428546905517578,0.09084796905517578
445,4679444.0,5.959349632263184,-4.5898237228393555,9.213168144226074,-0.5379743576049805,-3.074446678161621,-2.6248912811279297,0.21065521240234375,0.9627761840820312,-0.1428546905517578,0.09084796905517578
446,4679464.0,7.271411895751953,-4.910656929016113,8.721144676208496,-0.33237171173095703,-3.070185661315918,-2.4086360931396484,0.21065521240234375,0.9627761840820312,-0.1428546905517578,0.09084796905517578
447,4679484.0,8.964163780212402,-3.0407285690307617,7.921457290649414,-0.05646038055419922,-3.1671276092529297,-2.5609731674194336,0.21065521240234375,0.9627761840820312,-0.1428546905517578,0.09084796905517578
448,4679504.0,10.684450149536133,-3.2861413955688477,7.9442033767700195,0.23329925537109375,-3.022247314453125,-2.4342031478881836,0.21065521240234375,0.9627761840820312,-0.1428546905517578,0.09084796905517578
449,4679524.0,11.484138488769531,-3.087416648864746,8.21595287322998,0.4144001007080078,-2.882693290710449,-2.2115564346313477,0.21065521240234375,0.9627761840820312,-0.1428546905517578,0.09084796905517578
450,4679543.0,12.468185424804688,-2.437371253967285,8.212361335754395,0.5528888702392578,-2.7175722122192383,-2.233926773071289,0.21065521240234375,0.9627761840820312,-0.1428546905517578,0.09084796905517578
451,4679663.0,11.413507461547852,0.026336669921875,4.9944562911987305,0.5528888702392578,-2.7175722122192383,-2.233926773071289,0.21065521240234375,0.9627761840820312,-0.1428546905517578,0.09084796905517578
452,4679683.0,10.898737907409668,0.5243453979492188,4.747846603393555,0.5528888702392578,-2.7175722122192383,-2.233926773071289,0.21065521240234375,0.9627761840820312,-0.1428546905517578,0.09084796905517578
453,4679703.0,10.303760528564453,0.4046316146850586,4.316876411437988,0.5528888702392578,-2.7175722122192383,-2.233926773071289,0.21065521240234375,0.9627761840820312,-0.1428546905517578,0.09084796905517578
454,4679723.0,9.80575180053711,0.015562057495117188,3.9493560791015625,0.5528888702392578,-2.7175722122192383,-2.233926773071289,0.21065521240234375,0.9627761840820312,-0.1428546905517578,0.09084796905517578
455,4679743.0,9.383162498474121,-0.038308143615722656,3.6907739639282227,0.5528888702392578,-2.7175722122192383,-2.233926773071289,0.21065521240234375,0.9627761840820312,-0.1428546905517578,0.09084796905517578
456,4679764.0,9.245491027832031,-0.18196487426757812,3.7207021713256836,0.5528888702392578,-2.7175722122192383,-2.233926773071289,0.21065521240234375,0.9627761840820312,-0.1428546905517578,0.09084796905517578
457,4679784.0,9.30774211883545,-0.26097583770751953,3.5686655044555664,0.5528888702392578,-2.7175722122192383,-2.233926773071289,0.21065521240234375,0.9627761840820312,-0.1428546905517578,0.09084796905517578
458,4679804.0,9.243097305297852,-0.10175609588623047,3.6608457565307617,0.5528888702392578,-2.7175722122192383,-2.233926773071289,0.21065521240234375,0.9627761840820312,-0.1428546905517578,0.09084796905517578
459,4679824.0,8.99648666381836,0.16759872436523438,3.5375404357910156,0.5528888702392578,-2.7175722122192383,-2.233926773071289,0.21065521240234375,0.9627761840820312,-0.1428546905517578,0.09084796905517578
460,4679844.0,8.968952178955078,0.11492443084716797,3.3926868438720703,0.5528888702392578,-2.7175722122192383,-2.233926773071289,0.21065521240234375,0.9627761840820312,-0.1428546905517578,0.09084796905517578
461,4679963.0,8.848041534423828,-0.8344039916992188,2.7354583740234375,-1.034402847290039,0.10120296478271484,0.3121318817138672,0.3486328125,0.6973094940185547,-0.44914913177490234,0.4364166259765625
462,4679983.0,8.719947814941406,-0.9816522598266602,2.625321388244629,-1.034402847290039,0.10120296478271484,0.3121318817138672,0.3486328125,0.6973094940185547,-0.44914913177490234,0.4364166259765625
463,4680003.0,8.700794219970703,-1.077423095703125,2.638490676879883,-1.034402847290039,0.10120296478271484,0.3121318817138672,0.3486328125,0.6973094940185547,-0.44914913177490234,0.4364166259765625
464,4680023.0,8.696004867553711,-1.1971368789672852,2.700741767883301,-1.034402847290039,0.10120296478271484,0.3121318817138672,0.3486328125,0.6973094940185547,-0.44914913177490234,0.4364166259765625
465,4680043.0,8.803747177124023,-1.2474164962768555,2.7462329864501953,-1.034402847290039,0.10120296478271484,0.3121318817138672,0.3486328125,0.6973094940185547,-0.44914913177490234,0.4364166259765625
466,4680063.0,8.860013008117676,-1.2115020751953125,2.7749643325805664,-0.023435592651367188,0.0170440673828125,0.054329872131347656,0.3486328125,0.6973094940185547,-0.44914913177490234,0.4364166259765625
467,4680082.0,8.777410507202148,-1.0834083557128906,2.7725696563720703,0.045806884765625,0.011717796325683594,0.013848304748535156,0.3486328125,0.6973094940185547,-0.44914913177490234,0.4364166259765625
468,4680102.0,8.759453773498535,-1.048691749572754,2.7989063262939453,0.05539512634277344,-0.009587287902832031,-0.005326271057128906,0.3486328125,0.6973094940185547,-0.44914913177490234,0.4364166259765625
469,4680122.0,8.889941215515137,-1.166010856628418,2.8252439498901367,0.045806884765625,-0.03621959686279297,-0.00852203369140625,0.3486328125,0.6973094940185547,-0.44914913177490234,0.4364166259765625
470,4680142.0,8.99409294128418,-1.1624202728271484,2.832426071166992,0.057525634765625,-0.04687213897705078,-0.0063915252685546875,0.3486328125,0.6973094940185547,-0.44914913177490234,0.4364166259765625
471,4680262.0,8.865999221801758,-1.1193227767944336,3.0084056854248047,-0.005326271057128906,-0.06817817687988281,-0.041545867919921875,0.3486328125,0.6973094940185547,-0.44914913177490234,0.4364166259765625
472,4680262.0,8.865999221801758,-1.1193227767944336,3.0084056854248047,-0.005326271057128906,-0.06817817687988281,-0.041545867919921875,0.3486328125,0.6973094940185547,-0.44914913177490234,0.4364166259765625
473,4680281.0,8.960572242736816,-1.106154441833496,3.0048141479492188,0.0063915252685546875,-0.07350540161132812,-0.053264617919921875,0.3738374710083008,0.6861743927001953,-0.44759559631347656,0.43477725982666016
474,4680281.0,8.960572242736816,-1.106154441833496,3.0048141479492188,0.0063915252685546875,-0.07350540161132812,-0.053264617919921875,0.3738374710083008,0.6861743927001953,-0.44759559631347656,0.43477725982666016
475,4680301.0,8.971346855163574,-1.041508674621582,3.0048141479492188,0.0,-0.07030868530273438,-0.061786651611328125,0.3740530014038086,0.6854839324951172,-0.44768238067626953,0.4356832504272461
476,4680301.0,8.971346855163574,-1.041508674621582,3.0048141479492188,0.0,-0.07030868530273438,-0.061786651611328125,0.3740530014038086,0.6854839324951172,-0.44768238067626953,0.4356832504272461
477,4680321.0,8.855224609375,-1.0020036697387695,2.968899726867676,-0.012783050537109375,-0.06711292266845703,-0.07030868530273438,0.37413978576660156,0.6847505569458008,-0.4478120803833008,0.4366331100463867
478,4680321.0,8.855224609375,-1.0020036697387695,2.968899726867676,-0.012783050537109375,-0.06711292266845703,-0.07030868530273438,0.37413978576660156,0.6847505569458008,-0.4478120803833008,0.4366331100463867
479,4680341.0,8.826493263244629,-0.8858814239501953,2.973689079284668,-0.023435592651367188,-0.07883167266845703,-0.09374523162841797,0.3742685317993164,0.6838865280151367,-0.44815731048583984,0.4374523162841797
480,4680341.0,8.826493263244629,-0.8858814239501953,2.973689079284668,-0.023435592651367188,-0.07883167266845703,-0.09374523162841797,0.3742685317993164,0.6838865280151367,-0.44815731048583984,0.4374523162841797
481,4680462.0,9.008458137512207,-1.0522832870483398,2.997631072998047,-0.023435592651367188,-0.07883167266845703,-0.09374523162841797,0.37439823150634766,0.6828079223632812,-0.44863128662109375,0.43853187561035156
482,4680462.0,9.008458137512207,-1.0522832870483398,2.997631072998047,-0.023435592651367188,-0.07883167266845703,-0.09374523162841797,0.37439823150634766,0.6828079223632812,-0.44863128662109375,0.43853187561035156
483,4680482.0,9.014443397521973,-0.9433441162109375,3.0407285690307617,-0.023435592651367188,-0.07883167266845703,-0.09374523162841797,0.37439823150634766,0.6828079223632812,-0.44863128662109375,0.43853187561035156
484,4680482.0,9.014443397521973,-0.9433441162109375,3.0407285690307617,-0.023435592651367188,-0.07883167266845703,-0.09374523162841797,0.37439823150634766,0.6828079223632812,-0.44863128662109375,0.43853187561035156
485,4680501.0,8.949798583984375,-0.9086265563964844,3.061079978942871,-0.023435592651367188,-0.07883167266845703,-0.09374523162841797,0.37439823150634766,0.6828079223632812,-0.44863128662109375,0.43853187561035156
486,4680501.0,8.949798583984375,-0.9086265563964844,3.061079978942871,-0.023435592651367188,-0.07883167266845703,-0.09374523162841797,0.37439823150634766,0.6828079223632812,-0.44863128662109375,0.43853187561035156
487,4680521.0,8.980923652648926,-1.0043973922729492,3.0155887603759766,-0.023435592651367188,-0.07883167266845703,-0.09374523162841797,0.37439823150634766,0.6828079223632812,-0.44863128662109375,0.43853187561035156
488,4680521.0,8.980923652648926,-1.0043973922729492,3.0155887603759766,-0.023435592651367188,-0.07883167266845703,-0.09374523162841797,0.37439823150634766,0.6828079223632812,-0.44863128662109375,0.43853187561035156
489,4680541.0,9.033597946166992,-1.0630578994750977,2.9653091430664062,-0.023435592651367188,-0.07883167266845703,-0.09374523162841797,0.37439823150634766,0.6828079223632812,-0.44863128662109375,0.43853187561035156
490,4680541.0,9.033597946166992,-1.0630578994750977,2.9653091430664062,-0.023435592651367188,-0.07883167266845703,-0.09374523162841797,0.37439823150634766,0.6828079223632812,-0.44863128662109375,0.43853187561035156
491,4680561.0,8.971346855163574,-1.0881977081298828,2.974885940551758,-0.08522319793701172,-0.0063915252685546875,-0.052199363708496094,0.37439823150634766,0.6828079223632812,-0.44863128662109375,0.43853187561035156
492,4680581.0,8.971346855163574,-1.1731939315795898,2.935379981994629,-0.05113410949707031,-0.009587287902832031,-0.03728485107421875,0.37439823150634766,0.6828079223632812,-0.44863128662109375,0.43853187561035156
493,4680601.0,9.028809547424316,-1.0822114944458008,2.9186201095581055,-0.005326271057128906,-0.014913558959960938,-0.0287628173828125,0.37439823150634766,0.6828079223632812,-0.44863128662109375,0.43853187561035156
494,4680620.0,9.015641212463379,-0.9541177749633789,2.9198179244995117,0.0021305084228515625,-0.00852203369140625,-0.024501800537109375,0.37439823150634766,0.6828079223632812,-0.44863128662109375,0.43853187561035156
495,4680640.0,8.913884162902832,-1.0534801483154297,2.9545345306396484,-0.011717796325683594,0.0021305084228515625,-0.0287628173828125,0.37439823150634766,0.6828079223632812,-0.44863128662109375,0.43853187561035156
496,4680661.0,8.880364418029785,-1.0055952072143555,2.931788444519043,-0.011717796325683594,0.0021305084228515625,-0.0287628173828125,0.37439823150634766,0.6828079223632812,-0.44863128662109375,0.43853187561035156
497,4680681.0,9.043174743652344,-0.9720754623413086,2.9557313919067383,-0.011717796325683594,0.0021305084228515625,-0.0287628173828125,0.37439823150634766,0.6828079223632812,-0.44863128662109375,0.43853187561035156
498,4680701.0,9.077892303466797,-0.98284912109375,2.937774658203125,-0.011717796325683594,0.0021305084228515625,-0.0287628173828125,0.37439823150634766,0.6828079223632812,-0.44863128662109375,0.43853187561035156
499,4680720.0,8.882759094238281,-0.9948205947875977,2.971294403076172,-0.011717796325683594,0.0021305084228515625,-0.0287628173828125,0.37439823150634766,0.6828079223632812,-0.44863128662109375,0.43853187561035156
500,4680740.0,8.819310188293457,-0.9481325149536133,2.960519790649414,-0.011717796325683594,0.0021305084228515625,-0.0287628173828125,0.37439823150634766,0.6828079223632812,-0.44863128662109375,0.43853187561035156
501,4680760.0,9.014443397521973,-0.9529209136962891,2.9545345306396484,-0.020239830017089844,0.009587287902832031,0.0,0.37439823150634766,0.6828079223632812,-0.44863128662109375,0.43853187561035156
502,4680780.0,9.069512367248535,-0.8631353378295898,2.901860237121582,-0.023435592651367188,0.025567054748535156,-0.0021305084228515625,0.37439823150634766,0.6828079223632812,-0.44863128662109375,0.43853187561035156
503,4680800.0,8.985712051391602,-0.8164472579956055,2.898268699645996,-0.05646038055419922,0.03515434265136719,0.0010652542114257812,0.37439823150634766,0.6828079223632812,-0.44863128662109375,0.43853187561035156
504,4680819.0,8.962966918945312,-0.8727130889892578,2.8910865783691406,-0.08841896057128906,0.030893325805664062,-0.007456779479980469,0.37439823150634766,0.6828079223632812,-0.44863128662109375,0.43853187561035156
505,4680839.0,9.047964096069336,-0.8595438003540039,2.8934803009033203,-0.0916147232055664,0.021305084228515625,-0.0170440673828125,0.37439823150634766,0.6828079223632812,-0.44863128662109375,0.43853187561035156
506,4680859.0,9.101835250854492,-0.8798952102661133,2.8671436309814453,-0.0916147232055664,0.021305084228515625,-0.0170440673828125,0.37439823150634766,0.6828079223632812,-0.44863128662109375,0.43853187561035156
507,4680859.0,9.101835250854492,-0.8798952102661133,2.8671436309814453,-0.0916147232055664,0.021305084228515625,-0.0170440673828125,0.37439823150634766,0.6828079223632812,-0.44863128662109375,0.43853187561035156
508,4680879.0,9.034794807434082,-0.9517240524291992,2.845595359802246,-0.0916147232055664,0.021305084228515625,-0.0170440673828125,0.37439823150634766,0.6828079223632812,-0.44863128662109375,0.43853187561035156
509,4680879.0,9.034794807434082,-0.9517240524291992,2.845595359802246,-0.0916147232055664,0.021305084228515625,-0.0170440673828125,0.37439823150634766,0.6828079223632812,-0.44863128662109375,0.43853187561035156
510,4680899.0,8.958178520202637,-0.9074296951293945,2.816864013671875,-0.0916147232055664,0.021305084228515625,-0.0170440673828125,0.37439823150634766,0.6828079223632812,-0.44863128662109375,0.43853187561035156
511,4680899.0,8.958178520202637,-0.9074296951293945,2.816864013671875,-0.0916147232055664,0.021305084228515625,-0.0170440673828125,0.37439823150634766,0.6828079223632812,-0.44863128662109375,0.43853187561035156
512,4680918.0,8.929447174072266,-0.9289779663085938,2.916226387023926,-0.0916147232055664,0.021305084228515625,-0.0170440673828125,0.37439823150634766,0.6828079223632812,-0.44863128662109375,0.43853187561035156
513,4680918.0,8.929447174072266,-0.9289779663085938,2.916226387023926,-0.0916147232055664,0.021305084228515625,-0.0170440673828125,0.37439823150634766,0.6828079223632812,-0.44863128662109375,0.43853187561035156
514,4680938.0,9.013246536254883,-0.8415870666503906,2.8288354873657227,-0.0916147232055664,0.021305084228515625,-0.0170440673828125,0.37439823150634766,0.6828079223632812,-0.44863128662109375,0.43853187561035156
515,4680938.0,9.013246536254883,-0.8415870666503906,2.8288354873657227,-0.0916147232055664,0.021305084228515625,-0.0170440673828125,0.37439823150634766,0.6828079223632812,-0.44863128662109375,0.43853187561035156
516,4681059.0,8.930644035339355,-0.924189567565918,2.882706642150879,0.0010652542114257812,-0.011717796325683594,-0.031958580017089844,0.37439823150634766,0.6828079223632812,-0.44863128662109375,0.43853187561035156
517,4681079.0,8.972543716430664,-0.8954582214355469,2.9724912643432617,0.021305084228515625,-0.01810932159423828,-0.031958580017089844,0.37439823150634766,0.6828079223632812,-0.44863128662109375,0.43853187561035156
518,4681099.0,9.006063461303711,-0.8739099502563477,2.909043312072754,0.024501800537109375,-0.01810932159423828,-0.03515434265136719,0.37439823150634766,0.6828079223632812,-0.44863128662109375,0.43853187561035156
519,4681119.0,8.966558456420898,-0.8523616790771484,2.909043312072754,0.0063915252685546875,-0.00852203369140625,-0.030893325805664062,0.37439823150634766,0.6828079223632812,-0.44863128662109375,0.43853187561035156
520,4681138.0,8.991698265075684,-0.9158096313476562,2.8851003646850586,-0.023435592651367188,-0.0170440673828125,-0.0287628173828125,0.37439823150634766,0.6828079223632812,-0.44863128662109375,0.43853187561035156
521,4681258.0,9.021626472473145,-0.9050350189208984,2.927000045776367,-0.023435592651367188,-0.0170440673828125,-0.0287628173828125,0.3772468566894531,0.6656742095947266,-0.46343517303466797,0.446990966796875
522,4681278.0,8.991698265075684,-0.897852897644043,2.91143798828125,-0.023435592651367188,-0.0170440673828125,-0.0287628173828125,0.3772468566894531,0.6656742095947266,-0.46343517303466797,0.446990966796875
523,4681298.0,8.965361595153809,-0.9265842437744141,2.9030580520629883,-0.023435592651367188,-0.0170440673828125,-0.0287628173828125,0.3772468566894531,0.6656742095947266,-0.46343517303466797,0.446990966796875
524,4681318.0,9.014443397521973,-0.8631353378295898,2.8815088272094727,-0.023435592651367188,-0.0170440673828125,-0.0287628173828125,0.3772468566894531,0.6656742095947266,-0.46343517303466797,0.446990966796875
525,4681338.0,9.016838073730469,-0.835601806640625,2.847989082336426,-0.023435592651367188,-0.0170440673828125,-0.0287628173828125,0.3772468566894531,0.6656742095947266,-0.46343517303466797,0.446990966796875
526,4681358.0,9.039584159851074,-0.9158096313476562,2.8922834396362305,-0.033023834228515625,0.004261016845703125,0.01597881317138672,0.3772468566894531,0.6656742095947266,-0.46343517303466797,0.446990966796875
527,4681378.0,8.985712051391602,-0.8894729614257812,2.8934803009033203,-0.025567054748535156,0.0010652542114257812,0.013848304748535156,0.3772468566894531,0.6656742095947266,-0.46343517303466797,0.446990966796875
528,4681398.0,9.003669738769531,-0.8858814239501953,2.8635520935058594,-0.00852203369140625,-0.00852203369140625,0.013848304748535156,0.3772468566894531,0.6656742095947266,-0.46343517303466797,0.446990966796875
529,4681418.0,9.049160957336426,-0.8320102691650391,2.876720428466797,0.0021305084228515625,-0.013848304748535156,0.0063915252685546875,0.3772468566894531,0.6656742095947266,-0.46343517303466797,0.446990966796875
530,4681438.0,8.964163780212402,-0.8056726455688477,2.9150285720825195,-0.005326271057128906,-0.005326271057128906,0.00852203369140625,0.3772468566894531,0.6656742095947266,-0.46343517303466797,0.446990966796875
531,4681457.0,8.929447174072266,-0.7984905242919922,2.8994665145874023,-0.014913558959960938,-0.012783050537109375,0.0,0.3772468566894531,0.6656742095947266,-0.46343517303466797,0.446990966796875
532,4681477.0,9.031203269958496,-0.8571500778198242,2.8587636947631836,-0.0170440673828125,-0.021305084228515625,0.0031957626342773438,0.3772468566894531,0.6656742095947266,-0.46343517303466797,0.446990966796875
533,4681497.0,9.09345531463623,-0.8308124542236328,2.8635520935058594,-0.004261016845703125,-0.019174575805664062,-0.0010652542114257812,0.3772468566894531,0.6656742095947266,-0.46343517303466797,0.446990966796875
534,4681517.0,8.989303588867188,-0.7817306518554688,2.9150285720825195,0.005326271057128906,-0.011717796325683594,-0.0021305084228515625,0.3772468566894531,0.6656742095947266,-0.46343517303466797,0.446990966796875
535,4681537.0,8.943812370300293,-0.8152503967285156,2.905451774597168,-0.0031957626342773438,-0.014913558959960938,-0.010652542114257812,0.3772468566894531,0.6656742095947266,-0.46343517303466797,0.446990966796875
536,4681557.0,9.021626472473145,-0.8020811080932617,2.875523567199707,-0.0031957626342773438,-0.014913558959960938,-0.010652542114257812,0.3772468566894531,0.6656742095947266,-0.46343517303466797,0.446990966796875
537,4681557.0,9.021626472473145,-0.8020811080932617,2.875523567199707,-0.0031957626342773438,-0.014913558959960938,-0.010652542114257812,0.3772468566894531,0.6656742095947266,-0.46343517303466797,0.446990966796875
538,4681577.0,9.109017372131348,-0.7925043106079102,2.904254913330078,-0.0031957626342773438,-0.014913558959960938,-0.010652542114257812,0.3772468566894531,0.6656742095947266,-0.46343517303466797,0.446990966796875
539,4681577.0,9.109017372131348,-0.7925043106079102,2.904254913330078,-0.0031957626342773438,-0.014913558959960938,-0.010652542114257812,0.3772468566894531,0.6656742095947266,-0.46343517303466797,0.446990966796875
540,4681597.0,9.089863777160645,-0.7865190505981445,2.91143798828125,-0.0031957626342773438,-0.014913558959960938,-0.010652542114257812,0.3772468566894531,0.6656742095947266,-0.46343517303466797,0.446990966796875
541,4681597.0,9.089863777160645,-0.7865190505981445,2.91143798828125,-0.0031957626342773438,-0.014913558959960938,-0.010652542114257812,0.3772468566894531,0.6656742095947266,-0.46343517303466797,0.446990966796875
542,4681617.0,9.055146217346191,-0.7781391143798828,2.8874950408935547,-0.0031957626342773438,-0.014913558959960938,-0.010652542114257812,0.3772468566894531,0.6656742095947266,-0.46343517303466797,0.446990966796875
543,4681617.0,9.055146217346191,-0.7781391143798828,2.8874950408935547,-0.0031957626342773438,-0.014913558959960938,-0.010652542114257812,0.3772468566894531,0.6656742095947266,-0.46343517303466797,0.446990966796875
544,4681637.0,8.983318328857422,-0.7829275131225586,2.874326705932617,-0.0031957626342773438,-0.014913558959960938,-0.010652542114257812,0.3772468566894531,0.6656742095947266,-0.46343517303466797,0.446990966796875
545,4681637.0,8.983318328857422,-0.7829275131225586,2.874326705932617,-0.0031957626342773438,-0.014913558959960938,-0.010652542114257812,0.3772468566894531,0.6656742095947266,-0.46343517303466797,0.446990966796875
546,4681757.0,9.067117691040039,-0.9265842437744141,2.864748954772949,-0.014913558959960938,-0.0010652542114257812,0.0031957626342773438,0.3772468566894531,0.6656742095947266,-0.46343517303466797,0.446990966796875
547,4681776.0,8.983318328857422,-0.8379955291748047,2.8779172897338867,-0.005326271057128906,0.005326271057128906,0.007456779479980469,0.3772468566894531,0.6656742095947266,-0.46343517303466797,0.446990966796875
548,4681796.0,8.894729614257812,-0.8619384765625,2.8994665145874023,-0.026632308959960938,0.0031957626342773438,0.0170440673828125,0.3772468566894531,0.6656742095947266,-0.46343517303466797,0.446990966796875
549,4681816.0,8.916278839111328,-0.8906698226928711,2.871932029724121,-0.034089088439941406,-0.0063915252685546875,0.013848304748535156,0.3772468566894531,0.6656742095947266,-0.46343517303466797,0.446990966796875
550,4681836.0,9.004866600036621,-0.8786983489990234,2.84200382232666,-0.021305084228515625,-0.011717796325683594,0.00852203369140625,0.3772468566894531,0.6656742095947266,-0.46343517303466797,0.446990966796875
551,4681856.0,8.991698265075684,-0.8763036727905273,2.8934803009033203,-0.021305084228515625,-0.011717796325683594,0.00852203369140625,0.3772468566894531,0.6656742095947266,-0.46343517303466797,0.446990966796875
552,4681876.0,9.014443397521973,-0.8403902053833008,2.9138317108154297,-0.021305084228515625,-0.011717796325683594,0.00852203369140625,0.3772468566894531,0.6656742095947266,-0.46343517303466797,0.446990966796875
553,4681895.0,8.99648666381836,-0.8152503967285156,2.9258031845092773,-0.021305084228515625,-0.011717796325683594,0.00852203369140625,0.3772468566894531,0.6656742095947266,-0.46343517303466797,0.446990966796875
554,4681915.0,8.967755317687988,-0.8715152740478516,2.9234085083007812,-0.021305084228515625,-0.011717796325683594,0.00852203369140625,0.3772468566894531,0.6656742095947266,-0.46343517303466797,0.446990966796875
555,4681935.0,9.047964096069336,-0.9289779663085938,2.8862972259521484,-0.021305084228515625,-0.011717796325683594,0.00852203369140625,0.3772468566894531,0.6656742095947266,-0.46343517303466797,0.446990966796875
556,4681956.0,9.02402114868164,-0.855952262878418,2.930591583251953,-0.0063915252685546875,-0.010652542114257812,-0.012783050537109375,0.3772468566894531,0.6656742095947266,-0.46343517303466797,0.446990966796875
557,4681976.0,8.95578384399414,-0.8763036727905273,2.96291446685791,-0.0010652542114257812,-0.00852203369140625,-0.00852203369140625,0.3772468566894531,0.6656742095947266,-0.46343517303466797,0.446990966796875
558,4681995.0,9.009654998779297,-0.9026412963867188,2.934183120727539,0.0010652542114257812,-0.010652542114257812,-0.007456779479980469,0.3772468566894531,0.6656742095947266,-0.46343517303466797,0.446990966796875
559,4682015.0,9.003669738769531,-0.8248271942138672,2.9234085083007812,-0.0021305084228515625,-0.004261016845703125,-0.0031957626342773438,0.3772468566894531,0.6656742095947266,-0.46343517303466797,0.446990966796875
560,4682035.0,8.917475700378418,-0.8403902053833008,2.9461545944213867,-0.01810932159423828,0.005326271057128906,0.004261016845703125,0.3772468566894531,0.6656742095947266,-0.46343517303466797,0.446990966796875
561,4682156.0,8.99409294128418,-0.924189567565918,2.882706642150879,-0.01810932159423828,0.005326271057128906,0.004261016845703125,0.3838071823120117,0.6589412689208984,-0.4686136245727539,0.4460411071777344
562,4682176.0,9.043174743652344,-0.8763036727905273,2.850383758544922,-0.01810932159423828,0.005326271057128906,0.004261016845703125,0.3838071823120117,0.6589412689208984,-0.4686136245727539,0.4460411071777344
563,4682196.0,9.009654998779297,-0.8415870666503906,2.9293947219848633,-0.01810932159423828,0.005326271057128906,0.004261016845703125,0.3838071823120117,0.6589412689208984,-0.4686136245727539,0.4460411071777344
564,4682215.0,8.940220832824707,-0.8344039916992188,2.8958749771118164,-0.01810932159423828,0.005326271057128906,0.004261016845703125,0.3838071823120117,0.6589412689208984,-0.4686136245727539,0.4460411071777344
565,4682235.0,8.953390121459961,-0.8535585403442383,2.8934803009033203,-0.01810932159423828,0.005326271057128906,0.004261016845703125,0.3838071823120117,0.6589412689208984,-0.4686136245727539,0.4460411071777344
566,4682255.0,8.988106727600098,-0.8595438003540039,2.880311965942383,-0.01810932159423828,0.005326271057128906,0.004261016845703125,0.3838071823120117,0.6589412689208984,-0.4686136245727539,0.4460411071777344
567,4682275.0,8.984515190124512,-0.8810930252075195,2.871932029724121,-0.01810932159423828,0.005326271057128906,0.004261016845703125,0.3838071823120117,0.6589412689208984,-0.4686136245727539,0.4460411071777344
568,4682295.0,8.947403907775879,-0.9050350189208984,2.879115104675293,-0.01810932159423828,0.005326271057128906,0.004261016845703125,0.3838071823120117,0.6589412689208984,-0.4686136245727539,0.4460411071777344
569,4682314.0,8.985712051391602,-0.8415870666503906,2.864748954772949,-0.01810932159423828,0.005326271057128906,0.004261016845703125,0.3838071823120117,0.6589412689208984,-0.4686136245727539,0.4460411071777344
570,4682334.0,9.031203269958496,-0.8140525817871094,2.8623552322387695,-0.01810932159423828,0.005326271057128906,0.004261016845703125,0.3838071823120117,0.6589412689208984,-0.4686136245727539,0.4460411071777344
