,timestamp,accel_x,accel_y,accel_z,gyro_x,gyro_y,gyro_z,ori_scalar,ori_x,ori_y,ori_z
0,8448868.0,9.16767692565918,-2.3607540130615234,3.226284980773926,0.2364950180053711,-0.12570476531982422,0.0170440673828125,0.5391340255737305,0.4867830276489258,-0.6486272811889648,0.22727108001708984
1,8448888.0,9.039584159851074,-2.3667402267456055,3.0766429901123047,0.2364950180053711,-0.12570476531982422,0.0170440673828125,0.5391340255737305,0.4867830276489258,-0.6486272811889648,0.22727108001708984
2,8448908.0,9.056344032287598,-2.3332204818725586,3.2310733795166016,0.2364950180053711,-0.12570476531982422,0.0170440673828125,0.5391340255737305,0.4867830276489258,-0.6486272811889648,0.22727108001708984
3,8448929.0,9.288588523864746,-2.2985029220581055,3.3160696029663086,0.2364950180053711,-0.12570476531982422,0.0170440673828125,0.5391340255737305,0.4867830276489258,-0.6486272811889648,0.22727108001708984
4,8448948.0,9.249082565307617,-2.3380088806152344,3.2621984481811523,0.2364950180053711,-0.12570476531982422,0.0170440673828125,0.5391340255737305,0.4867830276489258,-0.6486272811889648,0.22727108001708984
5,8448968.0,9.055146217346191,-2.262589454650879,3.1664276123046875,0.2364950180053711,-0.12570476531982422,0.0170440673828125,0.5391340255737305,0.4867830276489258,-0.6486272811889648,0.22727108001708984
6,8448988.0,9.021626472473145,-2.3990631103515625,3.2598047256469727,0.2364950180053711,-0.12570476531982422,0.0170440673828125,0.5391340255737305,0.4867830276489258,-0.6486272811889648,0.22727108001708984
7,8449008.0,9.259857177734375,-2.3930768966674805,3.295718193054199,0.2546052932739258,-0.14168357849121094,0.042611122131347656,0.5391340255737305,0.4867830276489258,-0.6486272811889648,0.22727108001708984
8,8449028.0,9.199999809265137,-2.2949113845825195,3.122134208679199,0.3004131317138672,-0.12783527374267578,0.07244014739990234,0.5391340255737305,0.4867830276489258,-0.6486272811889648,0.22727108001708984
9,8449047.0,8.900715827941895,-2.2111120223999023,2.9796743392944336,0.3004131317138672,-0.12783527374267578,0.07244014739990234,0.5391340255737305,0.4867830276489258,-0.6486272811889648,0.22727108001708984
10,8449067.0,9.1437349319458,-2.0890045166015625,3.2921276092529297,0.3004131317138672,-0.12783527374267578,0.07244014739990234,0.5391340255737305,0.4867830276489258,-0.6486272811889648,0.22727108001708984
11,8449087.0,9.399922370910645,-2.0219640731811523,3.1329078674316406,0.3004131317138672,-0.12783527374267578,0.07244014739990234,0.5391340255737305,0.4867830276489258,-0.6486272811889648,0.22727108001708984
12,8449107.0,8.9450101852417,-2.0758352279663086,2.9210147857666016,0.3004131317138672,-0.12783527374267578,0.07244014739990234,0.5392627716064453,0.4887247085571289,-0.6468582153320312,0.2279186248779297
13,8449127.0,8.812127113342285,-2.194352149963379,3.0239686965942383,0.3004131317138672,-0.12783527374267578,0.07244014739990234,0.5395650863647461,0.49040794372558594,-0.6452608108520508,0.22804832458496094
14,8449147.0,9.100637435913086,-2.286531448364258,3.1376962661743164,0.3004131317138672,-0.12783527374267578,0.07244014739990234,0.5401268005371094,0.49183177947998047,-0.6435775756835938,0.22835063934326172
15,8449367.0,9.328093528747559,-2.2027320861816406,3.059882164001465,0.16298961639404297,-0.1097249984741211,0.01810932159423828,0.5368461608886719,0.5019311904907227,-0.6319255828857422,0.24604511260986328
16,8449386.0,9.353233337402344,-2.127312660217285,2.9880542755126953,0.11931324005126953,-0.0862884521484375,0.022370338439941406,0.5368461608886719,0.5019311904907227,-0.6319255828857422,0.24604511260986328
17,8449406.0,9.09465217590332,-2.162029266357422,3.0119972229003906,0.06817817687988281,-0.0692434310913086,0.025567054748535156,0.5368461608886719,0.5019311904907227,-0.6319255828857422,0.24604511260986328
18,8449426.0,9.103032112121582,-2.2362518310546875,3.15325927734375,0.03728485107421875,-0.07776641845703125,0.026632308959960938,0.5368461608886719,0.5019311904907227,-0.6319255828857422,0.24604511260986328
19,8449446.0,9.222745895385742,-2.1021728515625,3.080233573913574,0.020239830017089844,-0.060721397399902344,0.0287628173828125,0.5368461608886719,0.5019311904907227,-0.6319255828857422,0.24604511260986328
20,8449566.0,9.11739730834961,-2.316460609436035,2.960519790649414,0.004261016845703125,-0.03621959686279297,-0.009587287902832031,0.539306640625,0.5027942657470703,-0.6270914077758789,0.2512674331665039
21,8449586.0,9.379570960998535,-2.094989776611328,3.007208824157715,0.03941535949707031,-0.031958580017089844,-0.005326271057128906,0.539306640625,0.5027942657470703,-0.6270914077758789,0.2512674331665039
22,8449605.0,9.271828651428223,-2.0578784942626953,2.91143798828125,-0.004261016845703125,-0.0010652542114257812,0.0,0.539306640625,0.5027942657470703,-0.6270914077758789,0.2512674331665039
23,8449625.0,9.14493179321289,-2.1668176651000977,2.8922834396362305,-0.05646038055419922,-0.0031957626342773438,0.005326271057128906,0.539306640625,0.5027942657470703,-0.6270914077758789,0.2512674331665039
24,8449645.0,9.340065002441406,-2.196746826171875,2.9461545944213867,-0.040480613708496094,-0.024501800537109375,0.007456779479980469,0.539306640625,0.5027942657470703,-0.6270914077758789,0.2512674331665039
25,8449766.0,9.081483840942383,-2.1129465103149414,2.9832658767700195,0.031958580017089844,0.0021305084228515625,-0.022370338439941406,0.5396518707275391,0.5028810501098633,-0.6261415481567383,0.25264835357666016
26,8449786.0,9.074300765991211,-2.1991405487060547,3.0239686965942383,0.033023834228515625,-0.0010652542114257812,-0.0287628173828125,0.5393924713134766,0.5028810501098633,-0.6262283325195312,0.2529935836791992
27,8449806.0,9.149720191955566,-2.1787891387939453,2.9102401733398438,0.04687213897705078,-0.0021305084228515625,-0.03515434265136719,0.5390901565551758,0.5028810501098633,-0.6263141632080078,0.25338268280029297
28,8449825.0,9.198802947998047,-2.227871894836426,2.8839035034179688,0.05113410949707031,0.004261016845703125,-0.03835010528564453,0.5387449264526367,0.5029239654541016,-0.6263580322265625,0.25390052795410156
29,8449845.0,9.160494804382324,-2.22308349609375,2.8994665145874023,0.06817817687988281,0.009587287902832031,-0.03728485107421875,0.5383567810058594,0.5030097961425781,-0.6264438629150391,0.25446128845214844
30,8449965.0,9.141340255737305,-2.0925960540771484,2.836017608642578,0.06817817687988281,0.009587287902832031,-0.03728485107421875,0.5383567810058594,0.5030097961425781,-0.6264438629150391,0.25446128845214844
31,8449985.0,9.074300765991211,-2.1428756713867188,2.8527774810791016,0.06817817687988281,0.009587287902832031,-0.03728485107421875,0.5383567810058594,0.5030097961425781,-0.6264438629150391,0.25446128845214844
32,8450005.0,9.131763458251953,-2.200338363647461,2.873128890991211,0.06817817687988281,0.009587287902832031,-0.03728485107421875,0.5383567810058594,0.5030097961425781,-0.6264438629150391,0.25446128845214844
33,8450024.0,9.189226150512695,-2.1775922775268555,2.864748954772949,0.06817817687988281,0.009587287902832031,-0.03728485107421875,0.5383567810058594,0.5030097961425781,-0.6264438629150391,0.25446128845214844
34,8450044.0,9.131763458251953,-2.22308349609375,2.8252439498901367,0.06817817687988281,0.009587287902832031,-0.03728485107421875,0.5383567810058594,0.5030097961425781,-0.6264438629150391,0.25446128845214844
35,8450164.0,9.043174743652344,-2.133297920227051,2.898268699645996,-0.01810932159423828,-0.005326271057128906,-0.013848304748535156,0.5384435653686523,0.5014562606811523,-0.6273937225341797,0.25489234924316406
36,8450184.0,9.188028335571289,-2.130904197692871,2.8874950408935547,-0.01810932159423828,-0.005326271057128906,-0.013848304748535156,0.5384435653686523,0.5014562606811523,-0.6273937225341797,0.25489234924316406
37,8450204.0,9.256265640258789,-2.0902013778686523,2.846792221069336,-0.01810932159423828,-0.005326271057128906,-0.013848304748535156,0.5384435653686523,0.5014562606811523,-0.6273937225341797,0.25489234924316406
38,8450224.0,9.18443775177002,-2.094989776611328,2.847989082336426,-0.01810932159423828,-0.005326271057128906,-0.013848304748535156,0.5384435653686523,0.5014562606811523,-0.6273937225341797,0.25489234924316406
39,8450243.0,9.158100128173828,-2.1548471450805664,2.846792221069336,-0.01810932159423828,-0.005326271057128906,-0.013848304748535156,0.5384435653686523,0.5014562606811523,-0.6273937225341797,0.25489234924316406
40,8450363.0,9.178451538085938,-2.1668176651000977,2.909043312072754,0.023435592651367188,-0.024501800537109375,0.004261016845703125,0.5386590957641602,0.49947166442871094,-0.6278247833251953,0.2573528289794922
41,8450383.0,9.238308906555176,-2.068653106689453,2.8994665145874023,0.030893325805664062,-0.030893325805664062,0.013848304748535156,0.5387020111083984,0.4995574951171875,-0.6275663375854492,0.25765514373779297
42,8450403.0,9.16767692565918,-2.106961250305176,2.84320068359375,-0.0021305084228515625,-0.01810932159423828,0.0170440673828125,0.5388317108154297,0.49968719482421875,-0.6272640228271484,0.2578706741333008
43,8450423.0,9.217957496643066,-2.127312660217285,2.873128890991211,0.0010652542114257812,-0.021305084228515625,0.005326271057128906,0.5390043258666992,0.49973011016845703,-0.6271343231201172,0.2578706741333008
44,8450443.0,9.23591423034668,-2.1524524688720703,2.904254913330078,0.013848304748535156,-0.0170440673828125,0.0031957626342773438,0.5391340255737305,0.49968719482421875,-0.6270055770874023,0.25800037384033203
45,8450563.0,9.16767692565918,-2.0506954193115234,2.850383758544922,0.013848304748535156,-0.0170440673828125,0.0031957626342773438,0.5393924713134766,0.5004205703735352,-0.6258401870727539,0.2587766647338867
46,8450583.0,9.232322692871094,-2.1045665740966797,2.8372154235839844,0.013848304748535156,-0.0170440673828125,0.0031957626342773438,0.5394792556762695,0.5004634857177734,-0.6257963180541992,0.25869083404541016
47,8450603.0,9.21556282043457,-2.1201295852661133,2.8300323486328125,0.013848304748535156,-0.0170440673828125,0.0031957626342773438,0.5396518707275391,0.5005073547363281,-0.6256675720214844,0.2586040496826172
48,8450623.0,9.176057815551758,-2.037527084350586,2.847989082336426,0.013848304748535156,-0.0170440673828125,0.0031957626342773438,0.5396089553833008,0.5006799697875977,-0.6254949569702148,0.2585611343383789
49,8450643.0,9.233519554138184,-2.03273868560791,2.818060874938965,0.013848304748535156,-0.0170440673828125,0.0031957626342773438,0.5395650863647461,0.5008525848388672,-0.6253223419189453,0.2587766647338867
50,8450664.0,9.211971282958984,-2.072244644165039,2.820455551147461,0.0,-0.0063915252685546875,0.0010652542114257812,0.5395650863647461,0.5008525848388672,-0.6253223419189453,0.2587766647338867
51,8450683.0,9.16408634185791,-2.0830183029174805,2.84439754486084,-0.0010652542114257812,-0.007456779479980469,0.0063915252685546875,0.5395650863647461,0.5008525848388672,-0.6253223419189453,0.2587766647338867
52,8450703.0,9.153311729431152,-2.0878067016601562,2.821652412414551,-0.0010652542114257812,-0.010652542114257812,0.005326271057128906,0.5395650863647461,0.5008525848388672,-0.6253223419189453,0.2587766647338867
53,8450723.0,9.160494804382324,-2.0842161178588867,2.84200382232666,-0.0010652542114257812,-0.009587287902832031,0.0031957626342773438,0.5395650863647461,0.5008525848388672,-0.6253223419189453,0.2587766647338867
54,8450743.0,9.190423011779785,-2.1081581115722656,2.8336238861083984,-0.0010652542114257812,-0.011717796325683594,0.0010652542114257812,0.5395650863647461,0.5008525848388672,-0.6253223419189453,0.2587766647338867
55,8450862.0,9.21556282043457,-2.069849967956543,2.8671436309814453,-0.0010652542114257812,-0.011717796325683594,0.0010652542114257812,0.5396518707275391,0.5008955001831055,-0.6250200271606445,0.25920867919921875
56,8450881.0,9.238308906555176,-2.0902013778686523,2.820455551147461,-0.0010652542114257812,-0.011717796325683594,0.0010652542114257812,0.5396089553833008,0.500981330871582,-0.6250200271606445,0.25925159454345703
57,8450901.0,9.14493179321289,-2.094989776611328,2.8599605560302734,-0.0010652542114257812,-0.011717796325683594,0.0010652542114257812,0.5396518707275391,0.5008525848388672,-0.6250629425048828,0.25920867919921875
58,8450921.0,9.129368782043457,-2.139284133911133,2.874326705932617,-0.0010652542114257812,-0.011717796325683594,0.0010652542114257812,0.5397815704345703,0.5008087158203125,-0.6251058578491211,0.2590789794921875
59,8450941.0,9.132960319519043,-2.0746383666992188,2.850383758544922,-0.0010652542114257812,-0.011717796325683594,0.0010652542114257812,0.5397815704345703,0.5007228851318359,-0.6251058578491211,0.2590789794921875
60,8451161.0,9.213168144226074,-2.10336971282959,2.8300323486328125,0.0,-0.0031957626342773438,-0.0010652542114257812,0.5397815704345703,0.5007228851318359,-0.6251058578491211,0.2590789794921875
61,8451181.0,9.189226150512695,-2.0842161178588867,2.845595359802246,0.0,-0.0031957626342773438,-0.0010652542114257812,0.5397815704345703,0.5007228851318359,-0.6251058578491211,0.2590789794921875
62,8451201.0,9.199999809265137,-2.062666893005371,2.7953147888183594,0.0,-0.0031957626342773438,-0.0010652542114257812,0.5397815704345703,0.5007228851318359,-0.6251058578491211,0.2590789794921875
63,8451220.0,9.189226150512695,-2.128509521484375,2.7713727951049805,0.0,-0.0031957626342773438,-0.0010652542114257812,0.5397815704345703,0.5007228851318359,-0.6251058578491211,0.2590789794921875
64,8451240.0,9.172466278076172,-2.1021728515625,2.812075614929199,0.0,-0.0031957626342773438,-0.0010652542114257812,0.5397815704345703,0.5007228851318359,-0.6251058578491211,0.2590789794921875
65,8451260.0,9.183239936828613,-2.0614700317382812,2.850383758544922,0.009587287902832031,-0.007456779479980469,-0.0031957626342773438,0.5397815704345703,0.5007228851318359,-0.6251058578491211,0.2590789794921875
66,8451280.0,9.162888526916504,-2.0351333618164062,2.8240461349487305,-0.009587287902832031,-0.00852203369140625,0.0010652542114257812,0.5397815704345703,0.5007228851318359,-0.6251058578491211,0.2590789794921875
67,8451300.0,9.162888526916504,-2.097384452819824,2.8001041412353516,-0.0170440673828125,-0.009587287902832031,0.005326271057128906,0.5397815704345703,0.5007228851318359,-0.6251058578491211,0.2590789794921875
68,8451360.0,9.189226150512695,-2.0506954193115234,2.814469337463379,0.013848304748535156,-0.005326271057128906,-0.004261016845703125,0.5397815704345703,0.5007228851318359,-0.6251058578491211,0.2590789794921875
69,8451380.0,9.201197624206543,-2.1452693939208984,2.8276376724243164,0.013848304748535156,-0.005326271057128906,-0.004261016845703125,0.5397815704345703,0.5007228851318359,-0.6251058578491211,0.2590789794921875
70,8451400.0,9.203591346740723,-2.15364933013916,2.820455551147461,0.013848304748535156,-0.005326271057128906,-0.004261016845703125,0.5397815704345703,0.5007228851318359,-0.6251058578491211,0.2590789794921875
71,8451420.0,9.203591346740723,-2.0830183029174805,2.8264408111572266,0.013848304748535156,-0.005326271057128906,-0.004261016845703125,0.5397815704345703,0.5007228851318359,-0.6251058578491211,0.2590789794921875
72,8451439.0,9.21675968170166,-2.043513298034668,2.8013010025024414,0.013848304748535156,-0.005326271057128906,-0.004261016845703125,0.5397815704345703,0.5007228851318359,-0.6251058578491211,0.2590789794921875
73,8451659.0,9.226337432861328,-2.1177358627319336,2.7977094650268555,0.0170440673828125,-0.0031957626342773438,-0.0010652542114257812,0.5402126312255859,0.5000324249267578,-0.6254510879516602,0.25873374938964844
74,8451679.0,9.21675968170166,-2.0758352279663086,2.79172420501709,-0.005326271057128906,-0.004261016845703125,0.0,0.5402126312255859,0.5000324249267578,-0.6254510879516602,0.25873374938964844
75,8451699.0,9.180846214294434,-2.0866098403930664,2.7905263900756836,-0.020239830017089844,0.0021305084228515625,0.0,0.5402126312255859,0.5000324249267578,-0.6254510879516602,0.25873374938964844
76,8451719.0,9.16648006439209,-2.10097599029541,2.747429847717285,-0.014913558959960938,-0.004261016845703125,0.005326271057128906,0.5402126312255859,0.5000324249267578,-0.6254510879516602,0.25873374938964844
77,8451739.0,9.273025512695312,-2.096186637878418,2.7941179275512695,0.007456779479980469,-0.0063915252685546875,0.0,0.5402126312255859,0.5000324249267578,-0.6254510879516602,0.25873374938964844
78,8451758.0,9.226337432861328,-2.0818214416503906,2.7713727951049805,0.007456779479980469,-0.0063915252685546875,0.0,0.5402126312255859,0.5000324249267578,-0.6254510879516602,0.25873374938964844
79,8451778.0,9.227534294128418,-2.044710159301758,2.8013010025024414,0.007456779479980469,-0.0063915252685546875,0.0,0.5402126312255859,0.5000324249267578,-0.6254510879516602,0.25873374938964844
80,8451798.0,9.180846214294434,-2.0243587493896484,2.788132667541504,0.007456779479980469,-0.0063915252685546875,0.0,0.5402126312255859,0.5000324249267578,-0.6254510879516602,0.25873374938964844
81,8451818.0,9.14493179321289,-2.0830183029174805,2.778554916381836,0.007456779479980469,-0.0063915252685546875,0.0,0.5402126312255859,0.5000324249267578,-0.6254510879516602,0.25873374938964844
82,8451838.0,9.209577560424805,-2.098581314086914,2.8024978637695312,0.007456779479980469,-0.0063915252685546875,0.0,0.5402126312255859,0.5000324249267578,-0.6254510879516602,0.25873374938964844
83,8452158.0,9.245491027832031,-2.1021728515625,2.7641897201538086,-0.011717796325683594,-0.0031957626342773438,0.0031957626342773438,0.5406875610351562,0.5000324249267578,-0.624847412109375,0.25920867919921875
84,8452177.0,9.245491027832031,-2.0890045166015625,2.747429847717285,-0.011717796325683594,-0.0031957626342773438,0.0031957626342773438,0.5406875610351562,0.5000324249267578,-0.624847412109375,0.25920867919921875
85,8452197.0,9.252674102783203,-2.0818214416503906,2.754612922668457,-0.011717796325683594,-0.0031957626342773438,0.0031957626342773438,0.5406875610351562,0.5000324249267578,-0.624847412109375,0.25920867919921875
86,8452217.0,9.243097305297852,-2.077033042907715,2.7570066452026367,-0.011717796325683594,-0.0031957626342773438,0.0031957626342773438,0.5406875610351562,0.5000324249267578,-0.624847412109375,0.25920867919921875
87,8452357.0,9.220351219177246,-2.0542869567871094,2.7713727951049805,-0.011717796325683594,-0.0031957626342773438,0.0031957626342773438,0.5407304763793945,0.49994564056396484,-0.6249332427978516,0.25916576385498047
88,8452357.0,9.220351219177246,-2.0542869567871094,2.7713727951049805,-0.011717796325683594,-0.0031957626342773438,0.0031957626342773438,0.5407304763793945,0.49994564056396484,-0.6249332427978516,0.25916576385498047
89,8452376.0,9.197606086730957,-2.1021728515625,2.7965126037597656,-0.011717796325683594,-0.0031957626342773438,0.0031957626342773438,0.5407304763793945,0.49994564056396484,-0.6249332427978516,0.25916576385498047
90,8452376.0,9.197606086730957,-2.1021728515625,2.7965126037597656,-0.011717796325683594,-0.0031957626342773438,0.0031957626342773438,0.5407304763793945,0.49994564056396484,-0.6249332427978516,0.25916576385498047
91,8452396.0,9.227534294128418,-2.1153411865234375,2.753415107727051,-0.011717796325683594,-0.0031957626342773438,0.0031957626342773438,0.5407304763793945,0.49994564056396484,-0.6249332427978516,0.25916576385498047
92,8452396.0,9.227534294128418,-2.1153411865234375,2.753415107727051,-0.011717796325683594,-0.0031957626342773438,0.0031957626342773438,0.5407304763793945,0.49994564056396484,-0.6249332427978516,0.25916576385498047
93,8452416.0,9.256265640258789,-2.138087272644043,2.7677812576293945,-0.011717796325683594,-0.0031957626342773438,0.0031957626342773438,0.5407304763793945,0.49994564056396484,-0.6249332427978516,0.25916576385498047
94,8452416.0,9.256265640258789,-2.138087272644043,2.7677812576293945,-0.011717796325683594,-0.0031957626342773438,0.0031957626342773438,0.5407304763793945,0.49994564056396484,-0.6249332427978516,0.25916576385498047
95,8452436.0,9.226337432861328,-2.096186637878418,2.778554916381836,-0.011717796325683594,-0.0031957626342773438,0.0031957626342773438,0.5407304763793945,0.49994564056396484,-0.6249332427978516,0.25916576385498047
96,8452436.0,9.226337432861328,-2.096186637878418,2.778554916381836,-0.011717796325683594,-0.0031957626342773438,0.0031957626342773438,0.5407304763793945,0.49994564056396484,-0.6249332427978516,0.25916576385498047
97,8452457.0,9.177254676818848,-2.073441505432129,2.788132667541504,-0.011717796325683594,-0.0031957626342773438,0.0031957626342773438,0.5407304763793945,0.49994564056396484,-0.6249332427978516,0.25916576385498047
98,8452476.0,9.098243713378906,-2.0602731704711914,2.7893295288085938,-0.011717796325683594,-0.0031957626342773438,0.0031957626342773438,0.5407304763793945,0.49994564056396484,-0.6249332427978516,0.25916576385498047
99,8452496.0,9.202394485473633,-2.106961250305176,2.7749643325805664,-0.011717796325683594,-0.0031957626342773438,0.0031957626342773438,0.5407304763793945,0.49994564056396484,-0.6249332427978516,0.25916576385498047
100,8452516.0,9.324501991271973,-2.1488609313964844,2.7893295288085938,-0.011717796325683594,-0.0031957626342773438,0.0031957626342773438,0.5407304763793945,0.49994564056396484,-0.6249332427978516,0.25916576385498047
101,8452536.0,9.213168144226074,-2.0854129791259766,2.77376651763916,-0.011717796325683594,-0.0031957626342773438,0.0031957626342773438,0.5407304763793945,0.49994564056396484,-0.6249332427978516,0.25916576385498047
102,8452557.0,9.202394485473633,-2.0614700317382812,2.754612922668457,0.019174575805664062,-0.00852203369140625,-0.004261016845703125,0.5407304763793945,0.49994564056396484,-0.6249332427978516,0.25916576385498047
103,8452577.0,9.21436595916748,-2.0530900955200195,2.7761611938476562,0.0021305084228515625,-0.0031957626342773438,-0.009587287902832031,0.5407304763793945,0.49994564056396484,-0.6249332427978516,0.25916576385498047
104,8452596.0,9.161691665649414,-2.105764389038086,2.788132667541504,-0.007456779479980469,-0.0031957626342773438,-0.005326271057128906,0.5407304763793945,0.49994564056396484,-0.6249332427978516,0.25916576385498047
105,8452616.0,9.213168144226074,-2.0842161178588867,2.7965126037597656,-0.009587287902832031,-0.00852203369140625,0.0,0.5407304763793945,0.49994564056396484,-0.6249332427978516,0.25916576385498047
106,8452636.0,9.189226150512695,-2.099778175354004,2.779752731323242,-0.020239830017089844,-0.0031957626342773438,0.0,0.5407304763793945,0.49994564056396484,-0.6249332427978516,0.25916576385498047
107,8452655.0,9.158100128173828,-2.1297073364257812,2.784541130065918,-0.023435592651367188,-0.0063915252685546875,0.0010652542114257812,0.5407304763793945,0.49994564056396484,-0.6249332427978516,0.25916576385498047
108,8452675.0,9.220351219177246,-2.1261157989501953,2.8156661987304688,0.0063915252685546875,-0.0063915252685546875,0.0031957626342773438,0.5407304763793945,0.49994564056396484,-0.6249332427978516,0.25916576385498047
109,8452694.0,9.240702629089355,-2.0542869567871094,2.8048925399780273,0.011717796325683594,-0.0063915252685546875,0.0063915252685546875,0.5407304763793945,0.49994564056396484,-0.6249332427978516,0.25916576385498047
110,8452714.0,9.182043075561523,-2.041118621826172,2.745035171508789,-0.011717796325683594,0.0,0.005326271057128906,0.5407304763793945,0.49994564056396484,-0.6249332427978516,0.25916576385498047
111,8452734.0,9.1868314743042,-2.1201295852661133,2.751021385192871,-0.024501800537109375,-0.004261016845703125,0.005326271057128906,0.5407304763793945,0.49994564056396484,-0.6249332427978516,0.25916576385498047
112,8452756.0,9.28499698638916,-2.099778175354004,2.782146453857422,0.0,-0.009587287902832031,0.0010652542114257812,0.5407304763793945,0.49994564056396484,-0.6249332427978516,0.25916576385498047
113,8452776.0,9.244294166564941,-2.0890045166015625,2.784541130065918,0.014913558959960938,-0.0063915252685546875,0.007456779479980469,0.5407304763793945,0.49994564056396484,-0.6249332427978516,0.25916576385498047
114,8452795.0,9.197606086730957,-2.043513298034668,2.770174980163574,0.0010652542114257812,-0.0063915252685546875,0.007456779479980469,0.5407304763793945,0.49994564056396484,-0.6249332427978516,0.25916576385498047
115,8452815.0,9.220351219177246,-2.1129465103149414,2.758204460144043,-0.0063915252685546875,-0.005326271057128906,0.00852203369140625,0.5407304763793945,0.49994564056396484,-0.6249332427978516,0.25916576385498047
116,8452835.0,9.233519554138184,-2.0818214416503906,2.753415107727051,0.005326271057128906,-0.0031957626342773438,0.00852203369140625,0.5407304763793945,0.49994564056396484,-0.6249332427978516,0.25916576385498047
117,8452856.0,9.19640827178955,-2.0267534255981445,2.778554916381836,0.005326271057128906,-0.0031957626342773438,0.00852203369140625,0.5407304763793945,0.49994564056396484,-0.6249332427978516,0.25916576385498047
118,8452876.0,9.197606086730957,-2.071046829223633,2.7653865814208984,0.005326271057128906,-0.0031957626342773438,0.00852203369140625,0.5407304763793945,0.49994564056396484,-0.6249332427978516,0.25916576385498047
119,8452896.0,9.21436595916748,-2.10336971282959,2.700741767883301,0.005326271057128906,-0.0031957626342773438,0.00852203369140625,0.5407304763793945,0.49994564056396484,-0.6249332427978516,0.25916576385498047
120,8452915.0,9.243097305297852,-2.109355926513672,2.7390499114990234,0.005326271057128906,-0.0031957626342773438,0.00852203369140625,0.5407304763793945,0.49994564056396484,-0.6249332427978516,0.25916576385498047
121,8452935.0,9.262250900268555,-2.077033042907715,2.7570066452026367,0.005326271057128906,-0.0031957626342773438,0.00852203369140625,0.5407304763793945,0.49994564056396484,-0.6249332427978516,0.25916576385498047
122,8452955.0,9.226337432861328,-2.1021728515625,2.7653865814208984,0.005326271057128906,-0.0031957626342773438,0.00852203369140625,0.5407304763793945,0.49994564056396484,-0.6249332427978516,0.25916576385498047
123,8452955.0,9.226337432861328,-2.1021728515625,2.7653865814208984,0.005326271057128906,-0.0031957626342773438,0.00852203369140625,0.5407304763793945,0.49994564056396484,-0.6249332427978516,0.25916576385498047
124,8452975.0,9.221549034118652,-2.0782299041748047,2.7402467727661133,0.005326271057128906,-0.0031957626342773438,0.00852203369140625,0.5407304763793945,0.49994564056396484,-0.6249332427978516,0.25916576385498047
125,8452975.0,9.221549034118652,-2.0782299041748047,2.7402467727661133,0.005326271057128906,-0.0031957626342773438,0.00852203369140625,0.5407304763793945,0.49994564056396484,-0.6249332427978516,0.25916576385498047
126,8452995.0,9.208379745483398,-2.1297073364257812,2.749823570251465,0.005326271057128906,-0.0031957626342773438,0.00852203369140625,0.5407304763793945,0.49994564056396484,-0.6249332427978516,0.25916576385498047
127,8452995.0,9.208379745483398,-2.1297073364257812,2.749823570251465,0.005326271057128906,-0.0031957626342773438,0.00852203369140625,0.5407304763793945,0.49994564056396484,-0.6249332427978516,0.25916576385498047
128,8453014.0,9.203591346740723,-2.0782299041748047,2.7617950439453125,0.005326271057128906,-0.0031957626342773438,0.00852203369140625,0.5407304763793945,0.49994564056396484,-0.6249332427978516,0.25916576385498047
129,8453014.0,9.203591346740723,-2.0782299041748047,2.7617950439453125,0.005326271057128906,-0.0031957626342773438,0.00852203369140625,0.5407304763793945,0.49994564056396484,-0.6249332427978516,0.25916576385498047
130,8453034.0,9.180846214294434,-2.094989776611328,2.7390499114990234,0.005326271057128906,-0.0031957626342773438,0.00852203369140625,0.5407304763793945,0.49994564056396484,-0.6249332427978516,0.25916576385498047
131,8453034.0,9.180846214294434,-2.094989776611328,2.7390499114990234,0.005326271057128906,-0.0031957626342773438,0.00852203369140625,0.5407304763793945,0.49994564056396484,-0.6249332427978516,0.25916576385498047
132,8453054.0,9.211971282958984,-2.105764389038086,2.743838310241699,0.005326271057128906,-0.0031957626342773438,0.00852203369140625,0.5407304763793945,0.49994564056396484,-0.6249332427978516,0.25916576385498047
133,8453074.0,9.21436595916748,-2.1524524688720703,2.7665843963623047,0.005326271057128906,-0.0031957626342773438,0.00852203369140625,0.5407304763793945,0.49994564056396484,-0.6249332427978516,0.25916576385498047
134,8453094.0,9.207182884216309,-2.1488609313964844,2.727078437805176,0.005326271057128906,-0.0031957626342773438,0.00852203369140625,0.5407304763793945,0.49994564056396484,-0.6249332427978516,0.25916576385498047
135,8453113.0,9.199999809265137,-2.1297073364257812,2.716303825378418,0.005326271057128906,-0.0031957626342773438,0.00852203369140625,0.5407304763793945,0.49994564056396484,-0.6249332427978516,0.25916576385498047
136,8453133.0,9.217957496643066,-2.150057792663574,2.7282752990722656,0.005326271057128906,-0.0031957626342773438,0.00852203369140625,0.5407304763793945,0.49994564056396484,-0.6249332427978516,0.25916576385498047
137,8453253.0,9.251477241516113,-2.1129465103149414,2.727078437805176,-0.005326271057128906,-0.010652542114257812,0.014913558959960938,0.5407304763793945,0.49994564056396484,-0.6249332427978516,0.25916576385498047
138,8453253.0,9.251477241516113,-2.1129465103149414,2.727078437805176,-0.005326271057128906,-0.010652542114257812,0.014913558959960938,0.5407304763793945,0.49994564056396484,-0.6249332427978516,0.25916576385498047
139,8453273.0,9.159296989440918,-2.039921760559082,2.754612922668457,-0.005326271057128906,-0.010652542114257812,0.014913558959960938,0.5407304763793945,0.49994564056396484,-0.6249332427978516,0.25916576385498047
140,8453273.0,9.159296989440918,-2.039921760559082,2.754612922668457,-0.005326271057128906,-0.010652542114257812,0.014913558959960938,0.5407304763793945,0.49994564056396484,-0.6249332427978516,0.25916576385498047
141,8453293.0,9.153311729431152,-2.091398239135742,2.741443634033203,-0.005326271057128906,-0.010652542114257812,0.014913558959960938,0.5407304763793945,0.49994564056396484,-0.6249332427978516,0.25916576385498047
142,8453293.0,9.153311729431152,-2.091398239135742,2.741443634033203,-0.005326271057128906,-0.010652542114257812,0.014913558959960938,0.5407304763793945,0.49994564056396484,-0.6249332427978516,0.25916576385498047
143,8453313.0,9.33647346496582,-2.159635543823242,2.743838310241699,-0.005326271057128906,-0.010652542114257812,0.014913558959960938,0.5407304763793945,0.49994564056396484,-0.6249332427978516,0.25916576385498047
144,8453313.0,9.33647346496582,-2.159635543823242,2.743838310241699,-0.005326271057128906,-0.010652542114257812,0.014913558959960938,0.5407304763793945,0.49994564056396484,-0.6249332427978516,0.25916576385498047
145,8453332.0,9.298165321350098,-2.197943687438965,2.741443634033203,-0.005326271057128906,-0.010652542114257812,0.014913558959960938,0.5407304763793945,0.49994564056396484,-0.6249332427978516,0.25916576385498047
146,8453332.0,9.298165321350098,-2.197943687438965,2.741443634033203,-0.005326271057128906,-0.010652542114257812,0.014913558959960938,0.5407304763793945,0.49994564056396484,-0.6249332427978516,0.25916576385498047
147,8453353.0,9.179648399353027,-2.1021728515625,2.7653865814208984,0.05006885528564453,-0.005326271057128906,0.0,0.5407304763793945,0.49994564056396484,-0.6249332427978516,0.25916576385498047
148,8453353.0,9.179648399353027,-2.1021728515625,2.7653865814208984,0.05006885528564453,-0.005326271057128906,0.0,0.5407304763793945,0.49994564056396484,-0.6249332427978516,0.25916576385498047
149,8453373.0,9.239505767822266,-2.1261157989501953,2.7570066452026367,0.031958580017089844,-0.004261016845703125,-0.00852203369140625,0.5407304763793945,0.49994564056396484,-0.6249332427978516,0.25916576385498047
150,8453373.0,9.239505767822266,-2.1261157989501953,2.7570066452026367,0.031958580017089844,-0.004261016845703125,-0.00852203369140625,0.5407304763793945,0.49994564056396484,-0.6249332427978516,0.25916576385498047
151,8453393.0,9.221549034118652,-2.164423942565918,2.7605981826782227,0.00852203369140625,-0.0031957626342773438,-0.012783050537109375,0.5407304763793945,0.49994564056396484,-0.6249332427978516,0.25916576385498047
152,8453393.0,9.221549034118652,-2.164423942565918,2.7605981826782227,0.00852203369140625,-0.0031957626342773438,-0.012783050537109375,0.5407304763793945,0.49994564056396484,-0.6249332427978516,0.25916576385498047
153,8453413.0,9.271828651428223,-2.2039289474487305,2.7689781188964844,0.009587287902832031,-0.0010652542114257812,-0.0063915252685546875,0.5407304763793945,0.49994564056396484,-0.6249332427978516,0.25916576385498047
154,8453413.0,9.271828651428223,-2.2039289474487305,2.7689781188964844,0.009587287902832031,-0.0010652542114257812,-0.0063915252685546875,0.5407304763793945,0.49994564056396484,-0.6249332427978516,0.25916576385498047
155,8453432.0,9.244294166564941,-2.2829408645629883,2.839609146118164,0.0287628173828125,0.0010652542114257812,0.0010652542114257812,0.5407304763793945,0.49994564056396484,-0.6249332427978516,0.25916576385498047
156,8453432.0,9.244294166564941,-2.2829408645629883,2.839609146118164,0.0287628173828125,0.0010652542114257812,0.0010652542114257812,0.5407304763793945,0.49994564056396484,-0.6249332427978516,0.25916576385498047
157,8453452.0,9.14612865447998,-2.2949113845825195,2.966506004333496,0.07350540161132812,0.005326271057128906,0.00852203369140625,0.5407304763793945,0.49994564056396484,-0.6249332427978516,0.25916576385498047
158,8453452.0,9.14612865447998,-2.2949113845825195,2.966506004333496,0.07350540161132812,0.005326271057128906,0.00852203369140625,0.5407304763793945,0.49994564056396484,-0.6249332427978516,0.25916576385498047
159,8453553.0,9.277813911437988,-2.4625110626220703,3.804502487182617,0.3110666275024414,0.09267997741699219,0.005326271057128906,0.5407304763793945,0.49994564056396484,-0.6249332427978516,0.25916576385498047
160,8453573.0,9.458581924438477,-2.1704092025756836,4.310891151428223,0.44742393493652344,0.15127182006835938,0.011717796325683594,0.5407304763793945,0.49994564056396484,-0.6249332427978516,0.25916576385498047
161,8453593.0,9.42625904083252,-2.018373489379883,4.757423400878906,0.4261178970336914,0.24927902221679688,0.012783050537109375,0.5407304763793945,0.49994564056396484,-0.6249332427978516,0.25916576385498047
162,8453613.0,9.399922370910645,-2.3296289443969727,5.019596099853516,0.3909635543823242,0.3238496780395508,0.0063915252685546875,0.5407304763793945,0.49994564056396484,-0.6249332427978516,0.25916576385498047
163,8453632.0,9.562732696533203,-2.717501640319824,6.043148994445801,0.5571498870849609,0.39202880859375,-0.0170440673828125,0.5407304763793945,0.49994564056396484,-0.6249332427978516,0.25916576385498047
164,8453652.0,9.862016677856445,-2.91263484954834,7.437813758850098,0.9534406661987305,0.5113420486450195,-0.03728485107421875,0.5407304763793945,0.49994564056396484,-0.6249332427978516,0.25916576385498047
165,8453672.0,10.174469947814941,-2.165620803833008,8.221939086914062,0.9534406661987305,0.5113420486450195,-0.03728485107421875,0.5407304763793945,0.49994564056396484,-0.6249332427978516,0.25916576385498047
166,8453692.0,10.491711616516113,-1.3503704071044922,8.690019607543945,0.9534406661987305,0.5113420486450195,-0.03728485107421875,0.5407304763793945,0.49994564056396484,-0.6249332427978516,0.25916576385498047
167,8453712.0,10.691633224487305,-1.449732780456543,9.30534839630127,0.9534406661987305,0.5113420486450195,-0.03728485107421875,0.5407304763793945,0.49994564056396484,-0.6249332427978516,0.25916576385498047
168,8453732.0,10.619805335998535,-1.8423938751220703,9.90511417388916,0.9534406661987305,0.5113420486450195,-0.03728485107421875,0.5407304763793945,0.49994564056396484,-0.6249332427978516,0.25916576385498047
169,8453751.0,11.055562973022461,-1.7945079803466797,10.125387191772461,0.9534406661987305,0.5113420486450195,-0.03728485107421875,0.5407304763793945,0.49994564056396484,-0.6249332427978516,0.25916576385498047
170,8453771.0,11.461392402648926,-1.5131807327270508,10.373194694519043,0.6178712844848633,1.8237876892089844,-0.06604766845703125,0.5407304763793945,0.49994564056396484,-0.6249332427978516,0.25916576385498047
171,8453791.0,11.651737213134766,-1.296499252319336,10.958595275878906,0.6008272171020508,2.086915969848633,-0.053264617919921875,0.5407304763793945,0.49994564056396484,-0.6249332427978516,0.25916576385498047
172,8453811.0,11.365621566772461,-0.9636955261230469,10.704801559448242,0.5198640823364258,2.368154525756836,-0.08202743530273438,0.5407304763793945,0.49994564056396484,-0.6249332427978516,0.25916576385498047
173,8453831.0,11.686454772949219,-0.8188419342041016,10.036799430847168,0.33024120330810547,2.548190116882324,-0.11079025268554688,0.5407304763793945,0.49994564056396484,-0.6249332427978516,0.25916576385498047
174,8453850.0,12.183266639709473,-1.6963434219360352,10.124190330505371,0.34195995330810547,2.701592445373535,-0.13103103637695312,0.5407304763793945,0.49994564056396484,-0.6249332427978516,0.25916576385498047
175,8453971.0,10.950215339660645,0.8248271942138672,8.170461654663086,0.8138866424560547,3.287506103515625,-0.6711368560791016,0.5407304763793945,0.49994564056396484,-0.6249332427978516,0.25916576385498047
176,8453971.0,10.950215339660645,0.8248271942138672,8.170461654663086,0.8138866424560547,3.287506103515625,-0.6711368560791016,0.5407304763793945,0.49994564056396484,-0.6249332427978516,0.25916576385498047
177,8453991.0,10.035601615905762,0.8224325180053711,7.652101516723633,0.3408946990966797,3.3514232635498047,-0.7489032745361328,0.5407304763793945,0.49994564056396484,-0.6249332427978516,0.25916576385498047
178,8453991.0,10.035601615905762,0.8224325180053711,7.652101516723633,0.3408946990966797,3.3514232635498047,-0.7489032745361328,0.5407304763793945,0.49994564056396484,-0.6249332427978516,0.25916576385498047
179,8454011.0,8.589460372924805,-1.1516456604003906,8.261444091796875,0.27271556854248047,3.346096992492676,-0.7595558166503906,0.5407304763793945,0.49994564056396484,-0.6249332427978516,0.25916576385498047
180,8454011.0,8.589460372924805,-1.1516456604003906,8.261444091796875,0.27271556854248047,3.346096992492676,-0.7595558166503906,0.5407304763793945,0.49994564056396484,-0.6249332427978516,0.25916576385498047
181,8454031.0,7.948991775512695,-0.6979303359985352,8.47333812713623,0.8117561340332031,3.2587432861328125,-0.8042984008789062,0.5407304763793945,0.49994564056396484,-0.6249332427978516,0.25916576385498047
182,8454031.0,7.948991775512695,-0.6979303359985352,8.47333812713623,0.8117561340332031,3.2587432861328125,-0.8042984008789062,0.5407304763793945,0.49994564056396484,-0.6249332427978516,0.25916576385498047
183,8454050.0,8.200390815734863,2.219491958618164,7.308523178100586,0.7137489318847656,3.233175277709961,-0.9587669372558594,0.5407304763793945,0.49994564056396484,-0.6249332427978516,0.25916576385498047
184,8454050.0,8.200390815734863,2.219491958618164,7.308523178100586,0.7137489318847656,3.233175277709961,-0.9587669372558594,0.5407304763793945,0.49994564056396484,-0.6249332427978516,0.25916576385498047
185,8454170.0,2.039921760559082,-1.6987371444702148,5.339232444763184,0.7137489318847656,3.233175277709961,-0.9587669372558594,0.5407304763793945,0.49994564056396484,-0.6249332427978516,0.25916576385498047
186,8454190.0,1.5658550262451172,-0.0682363510131836,4.765803337097168,0.7137489318847656,3.233175277709961,-0.9587669372558594,0.5407304763793945,0.49994564056396484,-0.6249332427978516,0.25916576385498047
187,8454210.0,0.7278594970703125,0.4094209671020508,4.544332504272461,0.7137489318847656,3.233175277709961,-0.9587669372558594,0.5407304763793945,0.49994564056396484,-0.6249332427978516,0.25916576385498047
188,8454230.0,-0.47167205810546875,-2.7282752990722656,3.9984378814697266,0.7137489318847656,3.233175277709961,-0.9587669372558594,0.5407304763793945,0.49994564056396484,-0.6249332427978516,0.25916576385498047
189,8454250.0,-1.200728416442871,-2.846792221069336,2.4984254837036133,0.7137489318847656,3.233175277709961,-0.9587669372558594,0.5407304763793945,0.49994564056396484,-0.6249332427978516,0.25916576385498047
190,8454270.0,-1.7442283630371094,-1.9261932373046875,2.7282752990722656,-0.2418222427368164,1.655470848083496,-0.5848474502563477,0.5407304763793945,0.49994564056396484,-0.6249332427978516,0.25916576385498047
191,8454290.0,-2.625321388244629,-2.005204200744629,2.940169334411621,-0.334503173828125,1.378493309020996,-0.28549957275390625,0.5407304763793945,0.49994564056396484,-0.6249332427978516,0.25916576385498047
192,8454310.0,-2.687572479248047,-2.500819206237793,2.845595359802246,-0.2812376022338867,1.0674266815185547,-0.12570476531982422,0.5407304763793945,0.49994564056396484,-0.6249332427978516,0.25916576385498047
193,8454330.0,-2.656447410583496,-2.6157445907592773,3.1436824798583984,-0.17683887481689453,0.7893848419189453,-0.0287628173828125,0.5407304763793945,0.49994564056396484,-0.6249332427978516,0.25916576385498047
194,8454350.0,-3.374730110168457,-1.5275468826293945,3.780559539794922,-0.09054946899414062,0.6008272171020508,-0.034089088439941406,0.5407304763793945,0.49994564056396484,-0.6249332427978516,0.25916576385498047
195,8454469.0,-3.77337646484375,-2.157240867614746,5.098607063293457,-0.09054946899414062,0.6008272171020508,-0.034089088439941406,-0.12766265869140625,0.5136699676513672,-0.826655387878418,-0.19110584259033203
196,8454489.0,-3.5124006271362305,-1.697540283203125,5.63612174987793,-0.09054946899414062,0.6008272171020508,-0.034089088439941406,-0.1260232925415039,0.5153102874755859,-0.8271732330322266,-0.18532276153564453
197,8454509.0,-2.9521398544311523,-2.2613916397094727,5.308106422424316,-0.09054946899414062,0.6008272171020508,-0.034089088439941406,-0.1230020523071289,0.5173816680908203,-0.8275184631347656,-0.1798849105834961
198,8454529.0,-3.057488441467285,-2.2673778533935547,5.390708923339844,-0.09054946899414062,0.6008272171020508,-0.034089088439941406,-0.11859989166259766,0.5194540023803711,-0.8280372619628906,-0.17444610595703125
199,8454549.0,-3.1664276123046875,-1.9441509246826172,5.844424247741699,-0.09054946899414062,0.6008272171020508,-0.034089088439941406,-0.11363601684570312,0.5220432281494141,-0.8285551071166992,-0.1674976348876953
200,8454769.0,2.9844627380371094,-0.515965461730957,6.5148210525512695,0.3398294448852539,-1.6544055938720703,0.48684024810791016,0.008156776428222656,0.5750846862792969,-0.8154773712158203,-0.06452178955078125
201,8454788.0,4.2270917892456055,0.08978462219238281,6.3556013107299805,0.3398294448852539,-1.6544055938720703,0.48684024810791016,0.008156776428222656,0.5750846862792969,-0.8154773712158203,-0.06452178955078125
202,8454808.0,4.851997375488281,-0.6632137298583984,8.838464736938477,0.3398294448852539,-1.6544055938720703,0.48684024810791016,0.008156776428222656,0.5750846862792969,-0.8154773712158203,-0.06452178955078125
203,8454828.0,4.027169227600098,-3.1664276123046875,8.468548774719238,0.3398294448852539,-1.6544055938720703,0.48684024810791016,0.008156776428222656,0.5750846862792969,-0.8154773712158203,-0.06452178955078125
204,8454848.0,5.061496734619141,-3.423811912536621,7.394717216491699,0.3398294448852539,-1.6544055938720703,0.48684024810791016,0.008156776428222656,0.5750846862792969,-0.8154773712158203,-0.06452178955078125
205,8454869.0,7.502459526062012,-1.3240337371826172,7.567104339599609,0.3398294448852539,-1.6544055938720703,0.48684024810791016,0.008156776428222656,0.5750846862792969,-0.8154773712158203,-0.06452178955078125
206,8454889.0,8.229122161865234,-0.8391923904418945,8.124970436096191,0.3398294448852539,-1.6544055938720703,0.48684024810791016,0.008156776428222656,0.5750846862792969,-0.8154773712158203,-0.06452178955078125
207,8454908.0,6.410670280456543,-2.868340492248535,8.061522483825684,0.3398294448852539,-1.6544055938720703,0.48684024810791016,0.008156776428222656,0.5750846862792969,-0.8154773712158203,-0.06452178955078125
208,8454928.0,6.702771186828613,-3.7673912048339844,8.587065696716309,0.3398294448852539,-1.6544055938720703,0.48684024810791016,0.008156776428222656,0.5750846862792969,-0.8154773712158203,-0.06452178955078125
209,8454948.0,8.718750953674316,-2.448145866394043,8.287781715393066,0.3398294448852539,-1.6544055938720703,0.48684024810791016,0.008156776428222656,0.5750846862792969,-0.8154773712158203,-0.06452178955078125
210,8455166.0,11.12499713897705,-3.240650177001953,7.415068626403809,-1.1622381210327148,-2.4011783599853516,-0.5635414123535156,0.45134925842285156,0.6099567413330078,-0.629119873046875,0.16866207122802734
211,8455186.0,9.828496932983398,-3.3555755615234375,7.73350715637207,-1.1622381210327148,-2.4011783599853516,-0.5635414123535156,0.45134925842285156,0.6099567413330078,-0.629119873046875,0.16866207122802734
212,8455205.0,9.411893844604492,-3.6404943466186523,7.097826957702637,-1.1622381210327148,-2.4011783599853516,-0.5635414123535156,0.45134925842285156,0.6099567413330078,-0.629119873046875,0.16866207122802734
213,8455225.0,10.97535514831543,-4.03315544128418,6.921847343444824,-1.1622381210327148,-2.4011783599853516,-0.5635414123535156,0.45134925842285156,0.6099567413330078,-0.629119873046875,0.16866207122802734
214,8455245.0,11.808562278747559,-3.5997915267944336,7.0176191329956055,-1.1622381210327148,-2.4011783599853516,-0.5635414123535156,0.45134925842285156,0.6099567413330078,-0.629119873046875,0.16866207122802734
215,8455267.0,10.269043922424316,-3.215510368347168,6.951776504516602,-0.4207916259765625,-1.257049560546875,-0.6743326187133789,0.45134925842285156,0.6099567413330078,-0.629119873046875,0.16866207122802734
216,8455287.0,9.288588523864746,-3.5997915267944336,6.701574325561523,-0.43570613861083984,-1.1494550704956055,-0.5923042297363281,0.45134925842285156,0.6099567413330078,-0.629119873046875,0.16866207122802734
217,8455307.0,9.559141159057617,-3.9206247329711914,6.7985429763793945,-0.11824703216552734,-1.0951251983642578,-0.518798828125,0.45134925842285156,0.6099567413330078,-0.629119873046875,0.16866207122802734
218,8455326.0,9.768640518188477,-3.460923194885254,6.814105033874512,0.2535400390625,-0.9598321914672852,-0.4431629180908203,0.45134925842285156,0.6099567413330078,-0.629119873046875,0.16866207122802734
219,8455346.0,9.652518272399902,-3.150864601135254,6.496864318847656,0.4101390838623047,-0.7584905624389648,-0.3590049743652344,0.45134925842285156,0.6099567413330078,-0.629119873046875,0.16866207122802734
220,8455565.0,9.292180061340332,-2.4218082427978516,2.5415220260620117,0.4101390838623047,-0.7584905624389648,-0.3590049743652344,0.5546274185180664,0.5110378265380859,-0.5902776718139648,0.2877359390258789
221,8455585.0,9.276617050170898,-2.5247621536254883,2.401456832885742,0.4101390838623047,-0.7584905624389648,-0.3590049743652344,0.5546274185180664,0.5110378265380859,-0.5902776718139648,0.2877359390258789
222,8455605.0,9.300559997558594,-2.4301881790161133,2.099778175354004,0.4101390838623047,-0.7584905624389648,-0.3590049743652344,0.5546274185180664,0.5110378265380859,-0.5902776718139648,0.2877359390258789
223,8455625.0,9.0970458984375,-2.4038515090942383,1.9932336807250977,0.4101390838623047,-0.7584905624389648,-0.3590049743652344,0.5546274185180664,0.5110378265380859,-0.5902776718139648,0.2877359390258789
224,8455644.0,8.936630249023438,-2.5247621536254883,1.9656991958618164,0.4101390838623047,-0.7584905624389648,-0.3590049743652344,0.5546274185180664,0.5110378265380859,-0.5902776718139648,0.2877359390258789
225,8455666.0,9.04556941986084,-2.6097593307495117,1.8783082962036133,0.4101390838623047,-0.7584905624389648,-0.3590049743652344,0.5546274185180664,0.5110378265380859,-0.5902776718139648,0.2877359390258789
226,8455686.0,9.112608909606934,-2.5211706161499023,1.7430315017700195,0.4101390838623047,-0.7584905624389648,-0.3590049743652344,0.5546274185180664,0.5110378265380859,-0.5902776718139648,0.2877359390258789
227,8455706.0,9.149720191955566,-2.48166561126709,1.759791374206543,0.4101390838623047,-0.7584905624389648,-0.3590049743652344,0.5546274185180664,0.5110378265380859,-0.5902776718139648,0.2877359390258789
228,8455726.0,9.103032112121582,-2.419414520263672,1.9728822708129883,0.4101390838623047,-0.7584905624389648,-0.3590049743652344,0.5546274185180664,0.5110378265380859,-0.5902776718139648,0.2877359390258789
229,8455745.0,9.123383522033691,-2.2111120223999023,1.9884443283081055,0.4101390838623047,-0.7584905624389648,-0.3590049743652344,0.5546274185180664,0.5110378265380859,-0.5902776718139648,0.2877359390258789
230,8455764.0,9.118595123291016,-2.1740007400512695,1.880702018737793,0.08841896057128906,0.014913558959960938,0.021305084228515625,0.5546274185180664,0.5110378265380859,-0.5902776718139648,0.2877359390258789
231,8455784.0,9.063526153564453,-2.3320226669311523,1.883096694946289,-0.02769756317138672,-0.013848304748535156,0.013848304748535156,0.5546274185180664,0.5110378265380859,-0.5902776718139648,0.2877359390258789
232,8455804.0,8.99768352508545,-2.4924392700195312,2.000415802001953,-0.042611122131347656,-0.040480613708496094,-0.011717796325683594,0.5546274185180664,0.5110378265380859,-0.5902776718139648,0.2877359390258789
233,8455824.0,8.929447174072266,-2.5714502334594727,2.138087272644043,0.005326271057128906,-0.07137489318847656,-0.0170440673828125,0.5546274185180664,0.5110378265380859,-0.5902776718139648,0.2877359390258789
234,8455844.0,8.939023971557617,-2.656447410583496,2.189563751220703,0.07670116424560547,-0.10226821899414062,-0.0170440673828125,0.5546274185180664,0.5110378265380859,-0.5902776718139648,0.2877359390258789
235,8455865.0,9.101835250854492,-2.6109561920166016,2.2613916397094727,0.07670116424560547,-0.10226821899414062,-0.0170440673828125,0.5546274185180664,0.5110378265380859,-0.5902776718139648,0.2877359390258789
236,8455885.0,9.156903266906738,-2.5463104248046875,2.439764976501465,0.07670116424560547,-0.10226821899414062,-0.0170440673828125,0.5546274185180664,0.5110378265380859,-0.5902776718139648,0.2877359390258789
237,8455905.0,9.07669448852539,-2.5463104248046875,2.4876508712768555,0.07670116424560547,-0.10226821899414062,-0.0170440673828125,0.5546274185180664,0.5110378265380859,-0.5902776718139648,0.2877359390258789
238,8455925.0,9.091060638427734,-2.5271568298339844,2.5558881759643555,0.07670116424560547,-0.10226821899414062,-0.0170440673828125,0.5546274185180664,0.5110378265380859,-0.5902776718139648,0.2877359390258789
239,8455945.0,9.142537117004395,-2.4876508712768555,2.7079238891601562,0.07670116424560547,-0.10226821899414062,-0.0170440673828125,0.5546274185180664,0.5110378265380859,-0.5902776718139648,0.2877359390258789
240,8455963.0,9.131763458251953,-2.588210105895996,2.758204460144043,0.07670116424560547,-0.10226821899414062,-0.0170440673828125,0.5546274185180664,0.5110378265380859,-0.5902776718139648,0.2877359390258789
241,8455963.0,9.131763458251953,-2.588210105895996,2.758204460144043,0.07670116424560547,-0.10226821899414062,-0.0170440673828125,0.5546274185180664,0.5110378265380859,-0.5902776718139648,0.2877359390258789
242,8455983.0,9.132960319519043,-2.6109561920166016,2.8024978637695312,0.07670116424560547,-0.10226821899414062,-0.0170440673828125,0.5546274185180664,0.5110378265380859,-0.5902776718139648,0.2877359390258789
243,8455983.0,9.132960319519043,-2.6109561920166016,2.8024978637695312,0.07670116424560547,-0.10226821899414062,-0.0170440673828125,0.5546274185180664,0.5110378265380859,-0.5902776718139648,0.2877359390258789
244,8456003.0,9.1868314743042,-2.6049699783325195,2.853975296020508,0.07670116424560547,-0.10226821899414062,-0.0170440673828125,0.5546274185180664,0.5110378265380859,-0.5902776718139648,0.2877359390258789
245,8456003.0,9.1868314743042,-2.6049699783325195,2.853975296020508,0.07670116424560547,-0.10226821899414062,-0.0170440673828125,0.5546274185180664,0.5110378265380859,-0.5902776718139648,0.2877359390258789
246,8456023.0,9.16648006439209,-2.6684188842773438,2.869537353515625,0.07670116424560547,-0.10226821899414062,-0.0170440673828125,0.5546274185180664,0.5110378265380859,-0.5902776718139648,0.2877359390258789
247,8456043.0,9.19640827178955,-2.628912925720215,2.9138317108154297,0.07670116424560547,-0.10226821899414062,-0.0170440673828125,0.5546274185180664,0.5110378265380859,-0.5902776718139648,0.2877359390258789
248,8456064.0,9.217957496643066,-2.5463104248046875,2.8851003646850586,0.07670116424560547,-0.10226821899414062,-0.0170440673828125,0.5546274185180664,0.5110378265380859,-0.5902776718139648,0.2877359390258789
249,8456084.0,9.203591346740723,-2.5929994583129883,2.8575668334960938,0.07670116424560547,-0.10226821899414062,-0.0170440673828125,0.5546274185180664,0.5110378265380859,-0.5902776718139648,0.2877359390258789
250,8456104.0,9.174860000610352,-2.590604782104492,2.8886919021606445,0.07670116424560547,-0.10226821899414062,-0.0170440673828125,0.5546274185180664,0.5110378265380859,-0.5902776718139648,0.2877359390258789
251,8456124.0,9.228731155395508,-2.4984254837036133,2.9222116470336914,0.07670116424560547,-0.10226821899414062,-0.0170440673828125,0.5546274185180664,0.5110378265380859,-0.5902776718139648,0.2877359390258789
252,8456144.0,9.233519554138184,-2.5091991424560547,2.7761611938476562,0.07670116424560547,-0.10226821899414062,-0.0170440673828125,0.5546274185180664,0.5110378265380859,-0.5902776718139648,0.2877359390258789
253,8456263.0,9.110215187072754,-2.558281898498535,2.561873435974121,-0.019174575805664062,0.03835010528564453,0.045806884765625,0.5546274185180664,0.5110378265380859,-0.5902776718139648,0.2877359390258789
254,8456263.0,9.110215187072754,-2.558281898498535,2.561873435974121,-0.019174575805664062,0.03835010528564453,0.045806884765625,0.5546274185180664,0.5110378265380859,-0.5902776718139648,0.2877359390258789
255,8456263.0,9.110215187072754,-2.558281898498535,2.561873435974121,-0.019174575805664062,0.03835010528564453,0.045806884765625,0.5546274185180664,0.5110378265380859,-0.5902776718139648,0.2877359390258789
256,8456282.0,9.11500358581543,-2.650461196899414,2.5127906799316406,0.01597881317138672,0.02982807159423828,0.04900360107421875,0.5546274185180664,0.5110378265380859,-0.5902776718139648,0.2877359390258789
257,8456282.0,9.11500358581543,-2.650461196899414,2.5127906799316406,0.01597881317138672,0.02982807159423828,0.04900360107421875,0.5546274185180664,0.5110378265380859,-0.5902776718139648,0.2877359390258789
258,8456302.0,9.176057815551758,-2.5846195220947266,2.5163822174072266,0.08415794372558594,0.021305084228515625,0.052199363708496094,0.5546274185180664,0.5110378265380859,-0.5902776718139648,0.2877359390258789
259,8456302.0,9.176057815551758,-2.5846195220947266,2.5163822174072266,0.08415794372558594,0.021305084228515625,0.052199363708496094,0.5546274185180664,0.5110378265380859,-0.5902776718139648,0.2877359390258789
260,8456322.0,9.21675968170166,-2.4146251678466797,2.4852561950683594,0.0862884521484375,0.0170440673828125,0.054329872131347656,0.5546274185180664,0.5110378265380859,-0.5902776718139648,0.2877359390258789
261,8456322.0,9.21675968170166,-2.4146251678466797,2.4852561950683594,0.0862884521484375,0.0170440673828125,0.054329872131347656,0.5546274185180664,0.5110378265380859,-0.5902776718139648,0.2877359390258789
262,8456342.0,9.173663139343262,-2.460116386413574,2.442159652709961,0.009587287902832031,0.019174575805664062,0.053264617919921875,0.5546274185180664,0.5110378265380859,-0.5902776718139648,0.2877359390258789
263,8456342.0,9.173663139343262,-2.460116386413574,2.442159652709961,0.009587287902832031,0.019174575805664062,0.053264617919921875,0.5546274185180664,0.5110378265380859,-0.5902776718139648,0.2877359390258789
264,8456462.0,9.088665962219238,-2.5810279846191406,2.4589195251464844,0.009587287902832031,0.019174575805664062,0.053264617919921875,0.5546274185180664,0.5110378265380859,-0.5902776718139648,0.2877359390258789
265,8456462.0,9.088665962219238,-2.5810279846191406,2.4589195251464844,0.009587287902832031,0.019174575805664062,0.053264617919921875,0.5546274185180664,0.5110378265380859,-0.5902776718139648,0.2877359390258789
266,8456462.0,9.088665962219238,-2.5810279846191406,2.4589195251464844,0.009587287902832031,0.019174575805664062,0.053264617919921875,0.5546274185180664,0.5110378265380859,-0.5902776718139648,0.2877359390258789
267,8456482.0,9.057540893554688,-2.60137939453125,2.500819206237793,0.009587287902832031,0.019174575805664062,0.053264617919921875,0.5546274185180664,0.5110378265380859,-0.5902776718139648,0.2877359390258789
268,8456482.0,9.057540893554688,-2.60137939453125,2.500819206237793,0.009587287902832031,0.019174575805664062,0.053264617919921875,0.5546274185180664,0.5110378265380859,-0.5902776718139648,0.2877359390258789
269,8456482.0,9.057540893554688,-2.60137939453125,2.500819206237793,0.009587287902832031,0.019174575805664062,0.053264617919921875,0.5546274185180664,0.5110378265380859,-0.5902776718139648,0.2877359390258789
270,8456501.0,9.079089164733887,-2.5415220260620117,2.4565258026123047,0.009587287902832031,0.019174575805664062,0.053264617919921875,0.5546274185180664,0.5110378265380859,-0.5902776718139648,0.2877359390258789
271,8456501.0,9.079089164733887,-2.5415220260620117,2.4565258026123047,0.009587287902832031,0.019174575805664062,0.053264617919921875,0.5546274185180664,0.5110378265380859,-0.5902776718139648,0.2877359390258789
272,8456501.0,9.079089164733887,-2.5415220260620117,2.4565258026123047,0.009587287902832031,0.019174575805664062,0.053264617919921875,0.5546274185180664,0.5110378265380859,-0.5902776718139648,0.2877359390258789
273,8456521.0,9.149720191955566,-2.5798301696777344,2.4804677963256836,0.009587287902832031,0.019174575805664062,0.053264617919921875,0.5546274185180664,0.5110378265380859,-0.5902776718139648,0.2877359390258789
274,8456521.0,9.149720191955566,-2.5798301696777344,2.4804677963256836,0.009587287902832031,0.019174575805664062,0.053264617919921875,0.5546274185180664,0.5110378265380859,-0.5902776718139648,0.2877359390258789
275,8456521.0,9.149720191955566,-2.5798301696777344,2.4804677963256836,0.009587287902832031,0.019174575805664062,0.053264617919921875,0.5546274185180664,0.5110378265380859,-0.5902776718139648,0.2877359390258789
276,8456541.0,9.18443775177002,-2.627716064453125,2.5522966384887695,0.009587287902832031,0.019174575805664062,0.053264617919921875,0.5546274185180664,0.5110378265380859,-0.5902776718139648,0.2877359390258789
277,8456541.0,9.18443775177002,-2.627716064453125,2.5522966384887695,0.009587287902832031,0.019174575805664062,0.053264617919921875,0.5546274185180664,0.5110378265380859,-0.5902776718139648,0.2877359390258789
278,8456541.0,9.18443775177002,-2.627716064453125,2.5522966384887695,0.009587287902832031,0.019174575805664062,0.053264617919921875,0.5546274185180664,0.5110378265380859,-0.5902776718139648,0.2877359390258789
279,8456761.0,9.130566596984863,-2.5151853561401367,2.588210105895996,0.06817817687988281,-0.02769756317138672,-0.005326271057128906,0.5546274185180664,0.5110378265380859,-0.5902776718139648,0.2877359390258789
280,8456781.0,9.18443775177002,-2.53314208984375,2.5487051010131836,-0.007456779479980469,-0.019174575805664062,-0.009587287902832031,0.5546274185180664,0.5110378265380859,-0.5902776718139648,0.2877359390258789
281,8456801.0,9.173663139343262,-2.657644271850586,2.5187768936157227,-0.040480613708496094,-0.007456779479980469,-0.01597881317138672,0.5546274185180664,0.5110378265380859,-0.5902776718139648,0.2877359390258789
282,8456821.0,9.177254676818848,-2.755809783935547,2.561873435974121,-0.0063915252685546875,-0.0063915252685546875,-0.01810932159423828,0.5546274185180664,0.5110378265380859,-0.5902776718139648,0.2877359390258789
283,8456840.0,9.152114868164062,-2.685178756713867,2.564268112182617,0.05006885528564453,-0.010652542114257812,-0.011717796325683594,0.5546274185180664,0.5110378265380859,-0.5902776718139648,0.2877359390258789
284,8456861.0,9.126975059509277,-2.5427188873291016,2.537930488586426,0.05006885528564453,-0.010652542114257812,-0.011717796325683594,0.5546274185180664,0.5110378265380859,-0.5902776718139648,0.2877359390258789
285,8456881.0,9.149720191955566,-2.60257625579834,2.4984254837036133,0.05006885528564453,-0.010652542114257812,-0.011717796325683594,0.5546274185180664,0.5110378265380859,-0.5902776718139648,0.2877359390258789
286,8456901.0,9.18563461303711,-2.6744041442871094,2.5487051010131836,0.05006885528564453,-0.010652542114257812,-0.011717796325683594,0.5546274185180664,0.5110378265380859,-0.5902776718139648,0.2877359390258789
287,8456921.0,9.173663139343262,-2.5487051010131836,2.5415220260620117,0.05006885528564453,-0.010652542114257812,-0.011717796325683594,0.5546274185180664,0.5110378265380859,-0.5902776718139648,0.2877359390258789
288,8456940.0,9.1868314743042,-2.510396957397461,2.496030807495117,0.05006885528564453,-0.010652542114257812,-0.011717796325683594,0.5546274185180664,0.5110378265380859,-0.5902776718139648,0.2877359390258789
289,8456960.0,9.138946533203125,-2.6037731170654297,2.5199737548828125,0.05006885528564453,-0.010652542114257812,-0.011717796325683594,0.5546274185180664,0.5110378265380859,-0.5902776718139648,0.2877359390258789
290,8456980.0,9.171268463134766,-2.7127132415771484,2.478074073791504,0.05006885528564453,-0.010652542114257812,-0.011717796325683594,0.5546274185180664,0.5110378265380859,-0.5902776718139648,0.2877359390258789
291,8457000.0,9.165283203125,-2.6097593307495117,2.4888477325439453,0.05006885528564453,-0.010652542114257812,-0.011717796325683594,0.5546274185180664,0.5110378265380859,-0.5902776718139648,0.2877359390258789
292,8457020.0,9.16648006439209,-2.5510988235473633,2.4936370849609375,0.05006885528564453,-0.010652542114257812,-0.011717796325683594,0.5546274185180664,0.5110378265380859,-0.5902776718139648,0.2877359390258789
293,8457040.0,9.18443775177002,-2.5846195220947266,2.4864540100097656,0.05006885528564453,-0.010652542114257812,-0.011717796325683594,0.5546274185180664,0.5110378265380859,-0.5902776718139648,0.2877359390258789
294,8457160.0,9.177254676818848,-2.686375617980957,2.503213882446289,-0.014913558959960938,-0.004261016845703125,-0.0010652542114257812,0.5546274185180664,0.5110378265380859,-0.5902776718139648,0.2877359390258789
295,8457180.0,9.194014549255371,-2.563070297241211,2.504410743713379,-0.014913558959960938,-0.004261016845703125,-0.0010652542114257812,0.5546274185180664,0.5110378265380859,-0.5902776718139648,0.2877359390258789
296,8457200.0,9.188028335571289,-2.5427188873291016,2.4529342651367188,-0.014913558959960938,-0.004261016845703125,-0.0010652542114257812,0.5546274185180664,0.5110378265380859,-0.5902776718139648,0.2877359390258789
297,8457220.0,9.132960319519043,-2.6337013244628906,2.4613142013549805,-0.014913558959960938,-0.004261016845703125,-0.0010652542114257812,0.5546274185180664,0.5110378265380859,-0.5902776718139648,0.2877359390258789
298,8457240.0,9.134157180786133,-2.7641897201538086,2.500819206237793,-0.014913558959960938,-0.004261016845703125,-0.0010652542114257812,0.5546274185180664,0.5110378265380859,-0.5902776718139648,0.2877359390258789
299,8457260.0,9.16648006439209,-2.697150230407715,2.500819206237793,0.03621959686279297,-0.011717796325683594,0.0,0.5546274185180664,0.5110378265380859,-0.5902776718139648,0.2877359390258789
300,8457279.0,9.161691665649414,-2.53433895111084,2.5151853561401367,0.04793834686279297,-0.011717796325683594,0.00852203369140625,0.5546274185180664,0.5110378265380859,-0.5902776718139648,0.2877359390258789
301,8457299.0,9.162888526916504,-2.539128303527832,2.496030807495117,-0.010652542114257812,-0.00852203369140625,0.012783050537109375,0.5546274185180664,0.5110378265380859,-0.5902776718139648,0.2877359390258789
302,8457319.0,9.135354995727539,-2.6432790756225586,2.4577226638793945,-0.045806884765625,0.004261016845703125,0.013848304748535156,0.5546274185180664,0.5110378265380859,-0.5902776718139648,0.2877359390258789
303,8457339.0,9.132960319519043,-2.697150230407715,2.4912424087524414,-0.01810932159423828,0.0,0.011717796325683594,0.5546274185180664,0.5110378265380859,-0.5902776718139648,0.2877359390258789
304,8457459.0,9.18563461303711,-2.6744041442871094,2.4828624725341797,-0.01810932159423828,0.0,0.011717796325683594,0.5498800277709961,0.5308904647827148,-0.5847530364990234,0.2716817855834961
305,8457479.0,9.180846214294434,-2.588210105895996,2.4325828552246094,-0.01810932159423828,0.0,0.011717796325683594,0.5498800277709961,0.5308904647827148,-0.5847530364990234,0.2716817855834961
306,8457498.0,9.11739730834961,-2.5822248458862305,2.469694137573242,-0.01810932159423828,0.0,0.011717796325683594,0.5498800277709961,0.5308904647827148,-0.5847530364990234,0.2716817855834961
307,8457518.0,9.04676628112793,-2.6157445907592773,2.475679397583008,-0.01810932159423828,0.0,0.011717796325683594,0.5498800277709961,0.5308904647827148,-0.5847530364990234,0.2716817855834961
308,8457538.0,9.174860000610352,-2.624124526977539,2.438568115234375,-0.01810932159423828,0.0,0.011717796325683594,0.5498800277709961,0.5308904647827148,-0.5847530364990234,0.2716817855834961
309,8457558.0,9.271828651428223,-2.663630485534668,2.4625110626220703,0.019174575805664062,-0.011717796325683594,-0.007456779479980469,0.5498800277709961,0.5308904647827148,-0.5847530364990234,0.2716817855834961
310,8457578.0,9.153311729431152,-2.65285587310791,2.4625110626220703,0.04793834686279297,-0.005326271057128906,-0.014913558959960938,0.5498800277709961,0.5308904647827148,-0.5847530364990234,0.2716817855834961
311,8457597.0,9.158100128173828,-2.6001815795898438,2.4565258026123047,0.04793834686279297,-0.01597881317138672,-0.0170440673828125,0.5498800277709961,0.5308904647827148,-0.5847530364990234,0.2716817855834961
312,8457617.0,9.177254676818848,-2.595393180847168,2.504410743713379,0.021305084228515625,-0.009587287902832031,-0.01597881317138672,0.5498800277709961,0.5308904647827148,-0.5847530364990234,0.2716817855834961
313,8457637.0,9.160494804382324,-2.590604782104492,2.506805419921875,-0.012783050537109375,-0.005326271057128906,-0.011717796325683594,0.5498800277709961,0.5308904647827148,-0.5847530364990234,0.2716817855834961
314,8457798.0,9.16408634185791,-2.5786333084106445,2.444554328918457,-0.012783050537109375,-0.005326271057128906,-0.011717796325683594,0.54962158203125,0.5308046340942383,-0.5847530364990234,0.2724580764770508
315,8457817.0,9.172466278076172,-2.5570850372314453,2.4517364501953125,-0.012783050537109375,-0.005326271057128906,-0.011717796325683594,0.54962158203125,0.5308046340942383,-0.5847530364990234,0.2724580764770508
316,8457837.0,9.177254676818848,-2.631307601928711,2.4505395889282227,-0.012783050537109375,-0.005326271057128906,-0.011717796325683594,0.54962158203125,0.5308046340942383,-0.5847530364990234,0.2724580764770508
317,8457957.0,9.119791984558105,-2.598984718322754,2.4553279876708984,-0.012783050537109375,-0.005326271057128906,-0.011717796325683594,0.54962158203125,0.5308046340942383,-0.5847530364990234,0.2724580764770508
318,8457977.0,9.197606086730957,-2.590604782104492,2.417019844055176,-0.012783050537109375,-0.005326271057128906,-0.011717796325683594,0.54962158203125,0.5308046340942383,-0.5847530364990234,0.2724580764770508
319,8457997.0,9.222745895385742,-2.6109561920166016,2.4182167053222656,-0.012783050537109375,-0.005326271057128906,-0.011717796325683594,0.54962158203125,0.5308046340942383,-0.5847530364990234,0.2724580764770508
320,8458017.0,9.1437349319458,-2.6468706130981445,2.4230051040649414,-0.012783050537109375,-0.005326271057128906,-0.011717796325683594,0.54962158203125,0.5308046340942383,-0.5847530364990234,0.2724580764770508
321,8458036.0,9.141340255737305,-2.6756019592285156,2.4804677963256836,-0.012783050537109375,-0.005326271057128906,-0.011717796325683594,0.54962158203125,0.5308046340942383,-0.5847530364990234,0.2724580764770508
322,8458057.0,9.135354995727539,-2.65285587310791,2.467299461364746,-0.012783050537109375,-0.005326271057128906,-0.011717796325683594,0.54962158203125,0.5308046340942383,-0.5847530364990234,0.2724580764770508
323,8458057.0,9.135354995727539,-2.65285587310791,2.467299461364746,-0.012783050537109375,-0.005326271057128906,-0.011717796325683594,0.54962158203125,0.5308046340942383,-0.5847530364990234,0.2724580764770508
324,8458077.0,9.1868314743042,-2.5786333084106445,2.444554328918457,-0.012783050537109375,-0.005326271057128906,-0.011717796325683594,0.54962158203125,0.5308046340942383,-0.5847530364990234,0.2724580764770508
325,8458077.0,9.1868314743042,-2.5786333084106445,2.444554328918457,-0.012783050537109375,-0.005326271057128906,-0.011717796325683594,0.54962158203125,0.5308046340942383,-0.5847530364990234,0.2724580764770508
326,8458097.0,9.182043075561523,-2.660038948059082,2.46370792388916,-0.012783050537109375,-0.005326271057128906,-0.011717796325683594,0.54962158203125,0.5308046340942383,-0.5847530364990234,0.2724580764770508
327,8458097.0,9.182043075561523,-2.660038948059082,2.46370792388916,-0.012783050537109375,-0.005326271057128906,-0.011717796325683594,0.54962158203125,0.5308046340942383,-0.5847530364990234,0.2724580764770508
328,8458117.0,9.14612865447998,-2.7127132415771484,2.4768762588500977,-0.012783050537109375,-0.005326271057128906,-0.011717796325683594,0.54962158203125,0.5308046340942383,-0.5847530364990234,0.2724580764770508
329,8458117.0,9.14612865447998,-2.7127132415771484,2.4768762588500977,-0.012783050537109375,-0.005326271057128906,-0.011717796325683594,0.54962158203125,0.5308046340942383,-0.5847530364990234,0.2724580764770508
330,8458137.0,9.162888526916504,-2.711515426635742,2.4936370849609375,-0.012783050537109375,-0.005326271057128906,-0.011717796325683594,0.54962158203125,0.5308046340942383,-0.5847530364990234,0.2724580764770508
331,8458137.0,9.162888526916504,-2.711515426635742,2.4936370849609375,-0.012783050537109375,-0.005326271057128906,-0.011717796325683594,0.54962158203125,0.5308046340942383,-0.5847530364990234,0.2724580764770508
332,8458256.0,9.171268463134766,-2.6217308044433594,2.4792709350585938,-0.022370338439941406,0.0,0.007456779479980469,0.54962158203125,0.5308046340942383,-0.5847530364990234,0.2724580764770508
333,8458276.0,9.188028335571289,-2.715106964111328,2.4182167053222656,-0.04367637634277344,0.0063915252685546875,0.007456779479980469,0.54962158203125,0.5308046340942383,-0.5847530364990234,0.2724580764770508
334,8458296.0,9.168874740600586,-2.7713727951049805,2.46370792388916,-0.01810932159423828,0.00852203369140625,0.00852203369140625,0.54962158203125,0.5308046340942383,-0.5847530364990234,0.2724580764770508
335,8458316.0,9.141340255737305,-2.689967155456543,2.4553279876708984,0.014913558959960938,0.005326271057128906,0.013848304748535156,0.54962158203125,0.5308046340942383,-0.5847530364990234,0.2724580764770508
336,8458336.0,9.089863777160645,-2.5929994583129883,2.4840593338012695,0.024501800537109375,0.0063915252685546875,0.020239830017089844,0.54962158203125,0.5308046340942383,-0.5847530364990234,0.2724580764770508
337,8458555.0,9.16648006439209,-2.656447410583496,2.406245231628418,0.024501800537109375,0.0063915252685546875,0.020239830017089844,0.54962158203125,0.5308046340942383,-0.5847530364990234,0.2724580764770508
338,8458574.0,9.125777244567871,-2.6109561920166016,2.4852561950683594,0.024501800537109375,0.0063915252685546875,0.020239830017089844,0.54962158203125,0.5308046340942383,-0.5847530364990234,0.2724580764770508
339,8458594.0,9.176057815551758,-2.597787857055664,2.3954715728759766,0.024501800537109375,0.0063915252685546875,0.020239830017089844,0.54962158203125,0.5308046340942383,-0.5847530364990234,0.2724580764770508
340,8458614.0,9.222745895385742,-2.6372928619384766,2.431385040283203,0.024501800537109375,0.0063915252685546875,0.020239830017089844,0.54962158203125,0.5308046340942383,-0.5847530364990234,0.2724580764770508
341,8458634.0,9.125777244567871,-2.6157445907592773,2.4253997802734375,0.024501800537109375,0.0063915252685546875,0.020239830017089844,0.54962158203125,0.5308046340942383,-0.5847530364990234,0.2724580764770508
342,8458655.0,9.158100128173828,-2.5834217071533203,2.468496322631836,0.011717796325683594,-0.010652542114257812,-0.010652542114257812,0.54962158203125,0.5308046340942383,-0.5847530364990234,0.2724580764770508
343,8458655.0,9.158100128173828,-2.5834217071533203,2.468496322631836,0.011717796325683594,-0.010652542114257812,-0.010652542114257812,0.54962158203125,0.5308046340942383,-0.5847530364990234,0.2724580764770508
344,8458675.0,9.179648399353027,-2.6372928619384766,2.4613142013549805,-0.0021305084228515625,-0.009587287902832031,-0.012783050537109375,0.54962158203125,0.5308046340942383,-0.5847530364990234,0.2724580764770508
345,8458675.0,9.179648399353027,-2.6372928619384766,2.4613142013549805,-0.0021305084228515625,-0.009587287902832031,-0.012783050537109375,0.54962158203125,0.5308046340942383,-0.5847530364990234,0.2724580764770508
346,8458694.0,9.136551856994629,-2.6085615158081055,2.439764976501465,-0.0031957626342773438,-0.005326271057128906,-0.012783050537109375,0.54962158203125,0.5308046340942383,-0.5847530364990234,0.2724580764770508
347,8458694.0,9.136551856994629,-2.6085615158081055,2.439764976501465,-0.0031957626342773438,-0.005326271057128906,-0.012783050537109375,0.54962158203125,0.5308046340942383,-0.5847530364990234,0.2724580764770508
348,8458714.0,9.156903266906738,-2.6121530532836914,2.444554328918457,0.0021305084228515625,-0.007456779479980469,-0.009587287902832031,0.54962158203125,0.5308046340942383,-0.5847530364990234,0.2724580764770508
349,8458714.0,9.156903266906738,-2.6121530532836914,2.444554328918457,0.0021305084228515625,-0.007456779479980469,-0.009587287902832031,0.54962158203125,0.5308046340942383,-0.5847530364990234,0.2724580764770508
350,8458734.0,9.195211410522461,-2.5678586959838867,2.4625110626220703,-0.004261016845703125,-0.004261016845703125,-0.012783050537109375,0.54962158203125,0.5308046340942383,-0.5847530364990234,0.2724580764770508
351,8458734.0,9.195211410522461,-2.5678586959838867,2.4625110626220703,-0.004261016845703125,-0.004261016845703125,-0.012783050537109375,0.54962158203125,0.5308046340942383,-0.5847530364990234,0.2724580764770508
352,8458954.0,9.83687686920166,-2.970097541809082,6.076668739318848,-0.004261016845703125,-0.004261016845703125,-0.012783050537109375,0.543147087097168,0.5316238403320312,-0.5901479721069336,0.27228546142578125
353,8458954.0,9.83687686920166,-2.970097541809082,6.076668739318848,-0.004261016845703125,-0.004261016845703125,-0.012783050537109375,0.543147087097168,0.5316238403320312,-0.5901479721069336,0.27228546142578125
354,8458974.0,9.810540199279785,-3.5423288345336914,6.841639518737793,-0.004261016845703125,-0.004261016845703125,-0.012783050537109375,0.543147087097168,0.5316238403320312,-0.5901479721069336,0.27228546142578125
355,8458974.0,9.810540199279785,-3.5423288345336914,6.841639518737793,-0.004261016845703125,-0.004261016845703125,-0.012783050537109375,0.543147087097168,0.5316238403320312,-0.5901479721069336,0.27228546142578125
356,8458994.0,10.04517936706543,-3.0383338928222656,7.479713439941406,-0.004261016845703125,-0.004261016845703125,-0.012783050537109375,0.543147087097168,0.5316238403320312,-0.5901479721069336,0.27228546142578125
357,8458994.0,10.04517936706543,-3.0383338928222656,7.479713439941406,-0.004261016845703125,-0.004261016845703125,-0.012783050537109375,0.543147087097168,0.5316238403320312,-0.5901479721069336,0.27228546142578125
358,8459013.0,10.45579719543457,-2.522367477416992,7.9442033767700195,-0.004261016845703125,-0.004261016845703125,-0.012783050537109375,0.543147087097168,0.5316238403320312,-0.5901479721069336,0.27228546142578125
359,8459013.0,10.45579719543457,-2.522367477416992,7.9442033767700195,-0.004261016845703125,-0.004261016845703125,-0.012783050537109375,0.543147087097168,0.5316238403320312,-0.5901479721069336,0.27228546142578125
360,8459033.0,10.59825611114502,-2.200338363647461,7.99567985534668,-0.004261016845703125,-0.004261016845703125,-0.012783050537109375,0.543147087097168,0.5316238403320312,-0.5901479721069336,0.27228546142578125
361,8459033.0,10.59825611114502,-2.200338363647461,7.99567985534668,-0.004261016845703125,-0.004261016845703125,-0.012783050537109375,0.543147087097168,0.5316238403320312,-0.5901479721069336,0.27228546142578125
362,8459252.0,10.40432071685791,-1.789719581604004,9.257462501525879,0.3792448043823242,2.1433773040771484,0.05006885528564453,0.3458709716796875,0.6150064468383789,-0.683197021484375,0.1881704330444336
363,8459272.0,10.079895973205566,-1.4617042541503906,8.699596405029297,0.3792448043823242,2.1433773040771484,0.05006885528564453,0.3458709716796875,0.6150064468383789,-0.683197021484375,0.1881704330444336
364,8459292.0,10.048770904541016,-1.3407936096191406,8.882759094238281,0.3792448043823242,2.1433773040771484,0.05006885528564453,0.3458709716796875,0.6150064468383789,-0.683197021484375,0.1881704330444336
365,8459312.0,9.913494110107422,-0.7853212356567383,8.99648666381836,0.3792448043823242,2.1433773040771484,0.05006885528564453,0.3458709716796875,0.6150064468383789,-0.683197021484375,0.1881704330444336
366,8459332.0,9.105425834655762,-0.31963539123535156,8.56551742553711,0.3792448043823242,2.1433773040771484,0.05006885528564453,0.3458709716796875,0.6150064468383789,-0.683197021484375,0.1881704330444336
367,8459352.0,8.312921524047852,-0.6943387985229492,8.30454158782959,0.3792448043823242,2.1433773040771484,0.05006885528564453,0.3458709716796875,0.6150064468383789,-0.683197021484375,0.1881704330444336
368,8459372.0,7.889134407043457,-1.328822135925293,8.393129348754883,0.3792448043823242,2.1433773040771484,0.05006885528564453,0.3458709716796875,0.6150064468383789,-0.683197021484375,0.1881704330444336
369,8459392.0,7.296551704406738,-1.041508674621582,7.899909019470215,0.3792448043823242,2.1433773040771484,0.05006885528564453,0.3458709716796875,0.6150064468383789,-0.683197021484375,0.1881704330444336
370,8459412.0,6.648900032043457,-0.33519840240478516,7.73590087890625,0.3792448043823242,2.1433773040771484,0.05006885528564453,0.3458709716796875,0.6150064468383789,-0.683197021484375,0.1881704330444336
371,8459432.0,5.535562515258789,-0.9613008499145508,7.589850425720215,0.3792448043823242,2.1433773040771484,0.05006885528564453,0.3458709716796875,0.6150064468383789,-0.683197021484375,0.1881704330444336
372,8459611.0,-1.1348857879638672,-1.7071170806884766,4.413845062255859,-0.5038852691650391,2.3926563262939453,-0.5571498870849609,0.3458709716796875,0.6150064468383789,-0.683197021484375,0.1881704330444336
373,8459652.0,-1.7083148956298828,-1.1827716827392578,4.291736602783203,-0.4090738296508789,1.5020685195922852,-0.41120433807373047,0.3458709716796875,0.6150064468383789,-0.683197021484375,0.1881704330444336
374,8459671.0,-2.5151853561401367,-2.219491958618164,4.490461349487305,-0.4090738296508789,1.5020685195922852,-0.41120433807373047,0.3458709716796875,0.6150064468383789,-0.683197021484375,0.1881704330444336
375,8459691.0,-2.8156661987304688,-2.625321388244629,4.629329681396484,-0.4090738296508789,1.5020685195922852,-0.41120433807373047,0.3458709716796875,0.6150064468383789,-0.683197021484375,0.1881704330444336
376,8459711.0,-2.9150285720825195,-1.762186050415039,4.575458526611328,-0.4090738296508789,1.5020685195922852,-0.41120433807373047,0.3458709716796875,0.6150064468383789,-0.683197021484375,0.1881704330444336
377,8459731.0,-3.098191261291504,-1.236642837524414,4.913051605224609,-0.4090738296508789,1.5020685195922852,-0.41120433807373047,0.3458709716796875,0.6150064468383789,-0.683197021484375,0.1881704330444336
378,8459751.0,-2.960519790649414,-2.227871894836426,4.929811477661133,-0.4090738296508789,1.5020685195922852,-0.41120433807373047,0.3458709716796875,0.6150064468383789,-0.683197021484375,0.1881704330444336
379,8459771.0,-3.1364994049072266,-2.6157445907592773,4.710735321044922,-0.10120296478271484,0.1736431121826172,0.031958580017089844,0.3458709716796875,0.6150064468383789,-0.683197021484375,0.1881704330444336
380,8459790.0,-3.430994987487793,-1.9178133010864258,5.348809242248535,0.2705850601196289,0.00852203369140625,0.08948421478271484,0.3458709716796875,0.6150064468383789,-0.683197021484375,0.1881704330444336
381,8459810.0,-3.1436824798583984,-1.5311384201049805,5.75344181060791,0.25140953063964844,-0.12890052795410156,0.1555328369140625,0.3458709716796875,0.6150064468383789,-0.683197021484375,0.1881704330444336
382,8459830.0,-2.850383758544922,-1.8004941940307617,5.774990081787109,0.061786651611328125,-0.2535400390625,0.21732044219970703,0.3458709716796875,0.6150064468383789,-0.683197021484375,0.1881704330444336
383,8460071.0,1.570643424987793,-0.6895503997802734,6.737488746643066,0.061786651611328125,-0.2535400390625,0.21732044219970703,-0.07367134094238281,0.5678339004516602,-0.8069324493408203,-0.14505577087402344
384,8460091.0,0.7278594970703125,-0.30407238006591797,7.260637283325195,0.061786651611328125,-0.2535400390625,0.21732044219970703,-0.07367134094238281,0.5678339004516602,-0.8069324493408203,-0.14505577087402344
385,8460110.0,0.7506046295166016,-0.6213140487670898,5.352400779724121,0.061786651611328125,-0.2535400390625,0.21732044219970703,-0.07367134094238281,0.5678339004516602,-0.8069324493408203,-0.14505577087402344
386,8460130.0,2.91143798828125,-1.0594663619995117,7.522810935974121,0.061786651611328125,-0.2535400390625,0.21732044219970703,-0.07367134094238281,0.5678339004516602,-0.8069324493408203,-0.14505577087402344
387,8460150.0,4.005620956420898,-1.2917108535766602,9.238308906555176,0.061786651611328125,-0.2535400390625,0.21732044219970703,-0.07367134094238281,0.5678339004516602,-0.8069324493408203,-0.14505577087402344
388,8460170.0,3.2274818420410156,-0.5446968078613281,7.023604393005371,-0.196014404296875,-2.185988426208496,0.49216651916503906,-0.07367134094238281,0.5678339004516602,-0.8069324493408203,-0.14505577087402344
389,8460190.0,3.4537410736083984,0.04309654235839844,5.728302001953125,-0.9204158782958984,-2.397982597351074,0.4389019012451172,-0.07367134094238281,0.5678339004516602,-0.8069324493408203,-0.14505577087402344
390,8460210.0,6.053922653198242,-2.0554847717285156,11.260273933410645,-1.2985963821411133,-2.735682487487793,0.38457202911376953,-0.07367134094238281,0.5678339004516602,-0.8069324493408203,-0.14505577087402344
391,8460229.0,6.30532169342041,-2.218295097351074,8.627768516540527,-0.5422353744506836,-2.376676559448242,0.2652587890625,-0.07367134094238281,0.5678339004516602,-0.8069324493408203,-0.14505577087402344
392,8460249.0,5.182407379150391,-0.5135717391967773,6.846427917480469,-0.5326480865478516,-2.3692197799682617,0.22690773010253906,-0.07367134094238281,0.5678339004516602,-0.8069324493408203,-0.14505577087402344
393,8460269.0,5.852804183959961,-0.7099018096923828,8.528406143188477,-0.5326480865478516,-2.3692197799682617,0.22690773010253906,-0.07367134094238281,0.5678339004516602,-0.8069324493408203,-0.14505577087402344
394,8460289.0,7.199584007263184,-4.193572044372559,10.023630142211914,-0.5326480865478516,-2.3692197799682617,0.22690773010253906,-0.07367134094238281,0.5678339004516602,-0.8069324493408203,-0.14505577087402344
395,8460309.0,7.348028182983398,-4.296525955200195,7.908288955688477,-0.5326480865478516,-2.3692197799682617,0.22690773010253906,-0.07367134094238281,0.5678339004516602,-0.8069324493408203,-0.14505577087402344
396,8460328.0,7.8759660720825195,-1.5754318237304688,7.934625625610352,-0.5326480865478516,-2.3692197799682617,0.22690773010253906,-0.07367134094238281,0.5678339004516602,-0.8069324493408203,-0.14505577087402344
397,8460348.0,7.314508438110352,-2.1799869537353516,8.197996139526367,-0.5326480865478516,-2.3692197799682617,0.22690773010253906,-0.07367134094238281,0.5678339004516602,-0.8069324493408203,-0.14505577087402344
398,8460368.0,7.5431623458862305,-5.237475395202637,9.14493179321289,-0.5326480865478516,-2.3692197799682617,0.22690773010253906,-0.07367134094238281,0.5678339004516602,-0.8069324493408203,-0.14505577087402344
399,8460388.0,8.718750953674316,-4.509615898132324,8.85402774810791,-0.5326480865478516,-2.3692197799682617,0.22690773010253906,-0.07367134094238281,0.5678339004516602,-0.8069324493408203,-0.14505577087402344
400,8460408.0,9.2550687789917,-1.848379135131836,7.867586135864258,-0.5326480865478516,-2.3692197799682617,0.22690773010253906,-0.07367134094238281,0.5678339004516602,-0.8069324493408203,-0.14505577087402344
401,8460428.0,8.6349515914917,-1.6185293197631836,8.21595287322998,-0.5326480865478516,-2.3692197799682617,0.22690773010253906,-0.07367134094238281,0.5678339004516602,-0.8069324493408203,-0.14505577087402344
402,8460447.0,8.503266334533691,-4.418633460998535,8.918672561645508,-0.5326480865478516,-2.3692197799682617,0.22690773010253906,-0.07367134094238281,0.5678339004516602,-0.8069324493408203,-0.14505577087402344
403,8460468.0,9.483721733093262,-5.68520450592041,9.179648399353027,-0.5326480865478516,-2.3692197799682617,0.22690773010253906,-0.07367134094238281,0.5678339004516602,-0.8069324493408203,-0.14505577087402344
404,8460468.0,9.483721733093262,-5.68520450592041,9.179648399353027,-0.5326480865478516,-2.3692197799682617,0.22690773010253906,-0.07367134094238281,0.5678339004516602,-0.8069324493408203,-0.14505577087402344
405,8460488.0,9.57590103149414,-4.258216857910156,8.209967613220215,-0.5326480865478516,-2.3692197799682617,0.22690773010253906,-0.07367134094238281,0.5678339004516602,-0.8069324493408203,-0.14505577087402344
406,8460488.0,9.57590103149414,-4.258216857910156,8.209967613220215,-0.5326480865478516,-2.3692197799682617,0.22690773010253906,-0.07367134094238281,0.5678339004516602,-0.8069324493408203,-0.14505577087402344
407,8460508.0,9.09584903717041,-2.3667402267456055,8.032791137695312,-0.5326480865478516,-2.3692197799682617,0.22690773010253906,-0.07367134094238281,0.5678339004516602,-0.8069324493408203,-0.14505577087402344
408,8460508.0,9.09584903717041,-2.3667402267456055,8.032791137695312,-0.5326480865478516,-2.3692197799682617,0.22690773010253906,-0.07367134094238281,0.5678339004516602,-0.8069324493408203,-0.14505577087402344
409,8460528.0,9.140143394470215,-1.6197261810302734,7.467741966247559,-0.5326480865478516,-2.3692197799682617,0.22690773010253906,-0.07367134094238281,0.5678339004516602,-0.8069324493408203,-0.14505577087402344
410,8460528.0,9.140143394470215,-1.6197261810302734,7.467741966247559,-0.5326480865478516,-2.3692197799682617,0.22690773010253906,-0.07367134094238281,0.5678339004516602,-0.8069324493408203,-0.14505577087402344
411,8460547.0,10.745504379272461,-2.2829408645629883,7.429433822631836,-0.5326480865478516,-2.3692197799682617,0.22690773010253906,-0.07367134094238281,0.5678339004516602,-0.8069324493408203,-0.14505577087402344
412,8460547.0,10.745504379272461,-2.2829408645629883,7.429433822631836,-0.5326480865478516,-2.3692197799682617,0.22690773010253906,-0.07367134094238281,0.5678339004516602,-0.8069324493408203,-0.14505577087402344
413,8460667.0,9.6956148147583,-3.489654541015625,6.023994445800781,-0.449554443359375,-1.0706233978271484,-0.2705850601196289,-0.07367134094238281,0.5678339004516602,-0.8069324493408203,-0.14505577087402344
414,8460667.0,9.6956148147583,-3.489654541015625,6.023994445800781,-0.449554443359375,-1.0706233978271484,-0.2705850601196289,-0.07367134094238281,0.5678339004516602,-0.8069324493408203,-0.14505577087402344
415,8460687.0,9.290982246398926,-3.748236656188965,5.776186943054199,-0.3068046569824219,-1.0045747756958008,-0.27271556854248047,-0.07367134094238281,0.5678339004516602,-0.8069324493408203,-0.14505577087402344
416,8460687.0,9.290982246398926,-3.748236656188965,5.776186943054199,-0.3068046569824219,-1.0045747756958008,-0.27271556854248047,-0.07367134094238281,0.5678339004516602,-0.8069324493408203,-0.14505577087402344
417,8460707.0,9.507664680480957,-3.7673912048339844,5.440988540649414,-0.05006885528564453,-0.9758119583129883,-0.22797298431396484,-0.07367134094238281,0.5678339004516602,-0.8069324493408203,-0.14505577087402344
418,8460707.0,9.507664680480957,-3.7673912048339844,5.440988540649414,-0.05006885528564453,-0.9758119583129883,-0.22797298431396484,-0.07367134094238281,0.5678339004516602,-0.8069324493408203,-0.14505577087402344
419,8460727.0,9.960182189941406,-3.561483383178711,5.229095458984375,0.20347118377685547,-0.9172201156616211,-0.1725778579711914,-0.07367134094238281,0.5678339004516602,-0.8069324493408203,-0.14505577087402344
420,8460727.0,9.960182189941406,-3.561483383178711,5.229095458984375,0.20347118377685547,-0.9172201156616211,-0.1725778579711914,-0.07367134094238281,0.5678339004516602,-0.8069324493408203,-0.14505577087402344
421,8460747.0,9.739909172058105,-3.000025749206543,5.151281356811523,0.31319713592529297,-0.7797966003417969,-0.0862884521484375,-0.07367134094238281,0.5678339004516602,-0.8069324493408203,-0.14505577087402344
422,8460747.0,9.739909172058105,-3.000025749206543,5.151281356811523,0.31319713592529297,-0.7797966003417969,-0.0862884521484375,-0.07367134094238281,0.5678339004516602,-0.8069324493408203,-0.14505577087402344
423,8460866.0,9.225139617919922,-2.596590042114258,4.093011856079102,0.2940216064453125,-0.30893516540527344,0.15127182006835938,-0.07367134094238281,0.5678339004516602,-0.8069324493408203,-0.14505577087402344
424,8460886.0,9.155706405639648,-2.84439754486084,4.005620956420898,0.22797298431396484,-0.23862648010253906,0.12996578216552734,-0.07367134094238281,0.5678339004516602,-0.8069324493408203,-0.14505577087402344
425,8460906.0,9.280208587646484,-2.6744041442871094,4.048718452453613,0.24608325958251953,-0.18109989166259766,0.11185550689697266,-0.07367134094238281,0.5678339004516602,-0.8069324493408203,-0.14505577087402344
426,8460926.0,9.443018913269043,-2.4589195251464844,3.794924736022949,0.16405487060546875,-0.09587669372558594,0.10652923583984375,-0.07367134094238281,0.5678339004516602,-0.8069324493408203,-0.14505577087402344
427,8460946.0,9.313728332519531,-2.508002281188965,3.5686655044555664,0.0287628173828125,-0.007456779479980469,0.10865974426269531,-0.07367134094238281,0.5678339004516602,-0.8069324493408203,-0.14505577087402344
428,8460968.0,9.276617050170898,-2.638490676879883,3.459726333618164,0.0287628173828125,-0.007456779479980469,0.10865974426269531,-0.07367134094238281,0.5678339004516602,-0.8069324493408203,-0.14505577087402344
429,8460968.0,9.276617050170898,-2.638490676879883,3.459726333618164,0.0287628173828125,-0.007456779479980469,0.10865974426269531,-0.07367134094238281,0.5678339004516602,-0.8069324493408203,-0.14505577087402344
430,8460987.0,9.228731155395508,-2.747429847717285,3.336421012878418,0.0287628173828125,-0.007456779479980469,0.10865974426269531,-0.07367134094238281,0.5678339004516602,-0.8069324493408203,-0.14505577087402344
431,8460987.0,9.228731155395508,-2.747429847717285,3.336421012878418,0.0287628173828125,-0.007456779479980469,0.10865974426269531,-0.07367134094238281,0.5678339004516602,-0.8069324493408203,-0.14505577087402344
432,8461007.0,9.198802947998047,-2.6767988204956055,3.0826282501220703,0.0287628173828125,-0.007456779479980469,0.10865974426269531,-0.07367134094238281,0.5678339004516602,-0.8069324493408203,-0.14505577087402344
433,8461007.0,9.198802947998047,-2.6767988204956055,3.0826282501220703,0.0287628173828125,-0.007456779479980469,0.10865974426269531,-0.07367134094238281,0.5678339004516602,-0.8069324493408203,-0.14505577087402344
434,8461027.0,9.273025512695312,-2.60257625579834,2.8611574172973633,0.0287628173828125,-0.007456779479980469,0.10865974426269531,-0.07367134094238281,0.5678339004516602,-0.8069324493408203,-0.14505577087402344
435,8461027.0,9.273025512695312,-2.60257625579834,2.8611574172973633,0.0287628173828125,-0.007456779479980469,0.10865974426269531,-0.07367134094238281,0.5678339004516602,-0.8069324493408203,-0.14505577087402344
436,8461047.0,9.238308906555176,-2.60137939453125,2.7893295288085938,0.0287628173828125,-0.007456779479980469,0.10865974426269531,-0.07367134094238281,0.5678339004516602,-0.8069324493408203,-0.14505577087402344
437,8461047.0,9.238308906555176,-2.60137939453125,2.7893295288085938,0.0287628173828125,-0.007456779479980469,0.10865974426269531,-0.07367134094238281,0.5678339004516602,-0.8069324493408203,-0.14505577087402344
438,8461066.0,9.16767692565918,-2.595393180847168,2.688770294189453,0.0287628173828125,-0.007456779479980469,0.10865974426269531,-0.07367134094238281,0.5678339004516602,-0.8069324493408203,-0.14505577087402344
439,8461085.0,9.118595123291016,-2.5714502334594727,2.5151853561401367,0.0287628173828125,-0.007456779479980469,0.10865974426269531,-0.07367134094238281,0.5678339004516602,-0.8069324493408203,-0.14505577087402344
440,8461105.0,9.123383522033691,-2.5211706161499023,2.349980354309082,0.0287628173828125,-0.007456779479980469,0.10865974426269531,-0.07367134094238281,0.5678339004516602,-0.8069324493408203,-0.14505577087402344
441,8461125.0,9.0970458984375,-2.554690361022949,2.2637863159179688,0.0287628173828125,-0.007456779479980469,0.10865974426269531,-0.07367134094238281,0.5678339004516602,-0.8069324493408203,-0.14505577087402344
442,8461145.0,8.980923652648926,-2.5774364471435547,2.2733631134033203,0.0287628173828125,-0.007456779479980469,0.10865974426269531,-0.07367134094238281,0.5678339004516602,-0.8069324493408203,-0.14505577087402344
443,8461167.0,8.953390121459961,-2.4804677963256836,2.1560440063476562,0.0287628173828125,-0.007456779479980469,0.10865974426269531,-0.07367134094238281,0.5678339004516602,-0.8069324493408203,-0.14505577087402344
444,8461187.0,8.990501403808594,-2.5558881759643555,2.077033042907715,0.0287628173828125,-0.007456779479980469,0.10865974426269531,-0.07367134094238281,0.5678339004516602,-0.8069324493408203,-0.14505577087402344
445,8461206.0,9.031203269958496,-2.6660242080688477,2.065061569213867,0.0287628173828125,-0.007456779479980469,0.10865974426269531,-0.07367134094238281,0.5678339004516602,-0.8069324493408203,-0.14505577087402344
446,8461226.0,9.022823333740234,-2.727078437805176,2.0794267654418945,0.0287628173828125,-0.007456779479980469,0.10865974426269531,-0.07367134094238281,0.5678339004516602,-0.8069324493408203,-0.14505577087402344
447,8461246.0,8.99409294128418,-2.6959524154663086,2.041118621826172,0.0287628173828125,-0.007456779479980469,0.10865974426269531,-0.07367134094238281,0.5678339004516602,-0.8069324493408203,-0.14505577087402344
448,8461266.0,8.97493839263916,-2.663630485534668,2.080624580383301,0.07137489318847656,-0.01597881317138672,-0.040480613708496094,-0.07367134094238281,0.5678339004516602,-0.8069324493408203,-0.14505577087402344
449,8461266.0,8.97493839263916,-2.663630485534668,2.080624580383301,0.07137489318847656,-0.01597881317138672,-0.040480613708496094,-0.07367134094238281,0.5678339004516602,-0.8069324493408203,-0.14505577087402344
450,8461286.0,9.015641212463379,-2.6983470916748047,2.1189327239990234,0.0628519058227539,-0.05006885528564453,-0.03835010528564453,-0.07367134094238281,0.5678339004516602,-0.8069324493408203,-0.14505577087402344
451,8461286.0,9.015641212463379,-2.6983470916748047,2.1189327239990234,0.0628519058227539,-0.05006885528564453,-0.03835010528564453,-0.07367134094238281,0.5678339004516602,-0.8069324493408203,-0.14505577087402344
452,8461305.0,9.038386344909668,-2.727078437805176,2.260194778442383,0.07244014739990234,-0.07137489318847656,-0.041545867919921875,-0.07367134094238281,0.5678339004516602,-0.8069324493408203,-0.14505577087402344
453,8461305.0,9.038386344909668,-2.727078437805176,2.260194778442383,0.07244014739990234,-0.07137489318847656,-0.041545867919921875,-0.07367134094238281,0.5678339004516602,-0.8069324493408203,-0.14505577087402344
454,8461325.0,9.015641212463379,-2.6432790756225586,2.2673778533935547,0.07989692687988281,-0.08735370635986328,-0.03941535949707031,-0.07367134094238281,0.5678339004516602,-0.8069324493408203,-0.14505577087402344
455,8461325.0,9.015641212463379,-2.6432790756225586,2.2673778533935547,0.07989692687988281,-0.08735370635986328,-0.03941535949707031,-0.07367134094238281,0.5678339004516602,-0.8069324493408203,-0.14505577087402344
456,8461345.0,9.035992622375488,-2.649264335632324,2.357163429260254,0.041545867919921875,-0.10226821899414062,-0.04474163055419922,-0.07367134094238281,0.5678339004516602,-0.8069324493408203,-0.14505577087402344
457,8461345.0,9.035992622375488,-2.649264335632324,2.357163429260254,0.041545867919921875,-0.10226821899414062,-0.04474163055419922,-0.07367134094238281,0.5678339004516602,-0.8069324493408203,-0.14505577087402344
458,8461564.0,9.112608909606934,-2.6696157455444336,2.838412284851074,0.030893325805664062,-0.041545867919921875,-0.009587287902832031,-0.07367134094238281,0.5678339004516602,-0.8069324493408203,-0.14505577087402344
459,8461564.0,9.112608909606934,-2.6696157455444336,2.838412284851074,0.030893325805664062,-0.041545867919921875,-0.009587287902832031,-0.07367134094238281,0.5678339004516602,-0.8069324493408203,-0.14505577087402344
460,8461584.0,9.23591423034668,-2.7031354904174805,2.7570066452026367,0.030893325805664062,-0.041545867919921875,-0.009587287902832031,-0.07367134094238281,0.5678339004516602,-0.8069324493408203,-0.14505577087402344
461,8461584.0,9.23591423034668,-2.7031354904174805,2.7570066452026367,0.030893325805664062,-0.041545867919921875,-0.009587287902832031,-0.07367134094238281,0.5678339004516602,-0.8069324493408203,-0.14505577087402344
462,8461604.0,9.220351219177246,-2.7905263900756836,2.7617950439453125,0.030893325805664062,-0.041545867919921875,-0.009587287902832031,-0.07367134094238281,0.5678339004516602,-0.8069324493408203,-0.14505577087402344
463,8461604.0,9.220351219177246,-2.7905263900756836,2.7617950439453125,0.030893325805664062,-0.041545867919921875,-0.009587287902832031,-0.07367134094238281,0.5678339004516602,-0.8069324493408203,-0.14505577087402344
464,8461624.0,9.134157180786133,-2.7605981826782227,2.7629928588867188,0.030893325805664062,-0.041545867919921875,-0.009587287902832031,-0.07367134094238281,0.5678339004516602,-0.8069324493408203,-0.14505577087402344
465,8461624.0,9.134157180786133,-2.7605981826782227,2.7629928588867188,0.030893325805664062,-0.041545867919921875,-0.009587287902832031,-0.07367134094238281,0.5678339004516602,-0.8069324493408203,-0.14505577087402344
466,8461643.0,9.182043075561523,-2.6456727981567383,2.7043323516845703,0.030893325805664062,-0.041545867919921875,-0.009587287902832031,-0.07367134094238281,0.5678339004516602,-0.8069324493408203,-0.14505577087402344
467,8461643.0,9.182043075561523,-2.6456727981567383,2.7043323516845703,0.030893325805664062,-0.041545867919921875,-0.009587287902832031,-0.07367134094238281,0.5678339004516602,-0.8069324493408203,-0.14505577087402344
468,8461664.0,9.18563461303711,-2.6444759368896484,2.6408843994140625,0.0021305084228515625,0.019174575805664062,0.007456779479980469,0.5460395812988281,0.5374937057495117,-0.5808258056640625,0.2749185562133789
469,8461684.0,9.085075378417969,-2.755809783935547,2.6037731170654297,-0.01810932159423828,0.0287628173828125,0.0063915252685546875,0.5458660125732422,0.5375804901123047,-0.580998420715332,0.2747459411621094
470,8461704.0,9.109017372131348,-2.7929210662841797,2.5929994583129883,0.014913558959960938,0.020239830017089844,0.009587287902832031,0.5457372665405273,0.537623405456543,-0.5812139511108398,0.2744436264038086
471,8461724.0,9.134157180786133,-2.664827346801758,2.558281898498535,0.04367637634277344,0.020239830017089844,0.00852203369140625,0.5454349517822266,0.537968635559082,-0.5812139511108398,0.2744007110595703
472,8461743.0,9.129368782043457,-2.597787857055664,2.506805419921875,0.0,0.024501800537109375,0.013848304748535156,0.5451326370239258,0.5382270812988281,-0.5812139511108398,0.2744436264038086
473,8462043.0,9.080286026000977,-2.785737991333008,2.528353691101074,0.019174575805664062,-0.0170440673828125,0.026632308959960938,0.5451326370239258,0.5382270812988281,-0.5812139511108398,0.2744436264038086
474,8462263.0,9.126975059509277,-2.6193361282348633,2.564268112182617,0.053264617919921875,-0.01597881317138672,0.0063915252685546875,0.5469455718994141,0.5402994155883789,-0.5775890350341797,0.27452945709228516
475,8462283.0,9.16767692565918,-2.6779956817626953,2.5810279846191406,0.007456779479980469,-0.010652542114257812,0.00852203369140625,0.5467300415039062,0.5405149459838867,-0.5773735046386719,0.27483177185058594
476,8462302.0,9.177254676818848,-2.7617950439453125,2.53433895111084,-0.0031957626342773438,-0.0031957626342773438,0.005326271057128906,0.5467729568481445,0.5405149459838867,-0.5773735046386719,0.2748746871948242
477,8462322.0,9.089863777160645,-2.745035171508789,2.5870132446289062,0.03515434265136719,0.0,0.0010652542114257812,0.5466861724853516,0.540557861328125,-0.5773296356201172,0.2748746871948242
478,8462342.0,9.052752494812012,-2.6109561920166016,2.5558881759643555,0.041545867919921875,-0.0031957626342773438,0.005326271057128906,0.5464706420898438,0.5408172607421875,-0.5772438049316406,0.27509117126464844
479,8462462.0,9.152114868164062,-2.5846195220947266,2.5056076049804688,0.041545867919921875,-0.0031957626342773438,0.005326271057128906,0.5464706420898438,0.5408172607421875,-0.5772438049316406,0.27509117126464844
480,8462462.0,9.152114868164062,-2.5846195220947266,2.5056076049804688,0.041545867919921875,-0.0031957626342773438,0.005326271057128906,0.5464706420898438,0.5408172607421875,-0.5772438049316406,0.27509117126464844
481,8462482.0,9.09584903717041,-2.7378530502319336,2.503213882446289,0.041545867919921875,-0.0031957626342773438,0.005326271057128906,0.5464706420898438,0.5408172607421875,-0.5772438049316406,0.27509117126464844
482,8462482.0,9.09584903717041,-2.7378530502319336,2.503213882446289,0.041545867919921875,-0.0031957626342773438,0.005326271057128906,0.5464706420898438,0.5408172607421875,-0.5772438049316406,0.27509117126464844
483,8462501.0,9.087469100952148,-2.785737991333008,2.5175790786743164,0.041545867919921875,-0.0031957626342773438,0.005326271057128906,0.5464706420898438,0.5408172607421875,-0.5772438049316406,0.27509117126464844
484,8462501.0,9.087469100952148,-2.785737991333008,2.5175790786743164,0.041545867919921875,-0.0031957626342773438,0.005326271057128906,0.5464706420898438,0.5408172607421875,-0.5772438049316406,0.27509117126464844
485,8462521.0,9.136551856994629,-2.7725696563720703,2.540325164794922,0.041545867919921875,-0.0031957626342773438,0.005326271057128906,0.5464706420898438,0.5408172607421875,-0.5772438049316406,0.27509117126464844
486,8462521.0,9.136551856994629,-2.7725696563720703,2.540325164794922,0.041545867919921875,-0.0031957626342773438,0.005326271057128906,0.5464706420898438,0.5408172607421875,-0.5772438049316406,0.27509117126464844
487,8462541.0,9.068314552307129,-2.630110740661621,2.536733627319336,0.041545867919921875,-0.0031957626342773438,0.005326271057128906,0.5464706420898438,0.5408172607421875,-0.5772438049316406,0.27509117126464844
488,8462541.0,9.068314552307129,-2.630110740661621,2.536733627319336,0.041545867919921875,-0.0031957626342773438,0.005326271057128906,0.5464706420898438,0.5408172607421875,-0.5772438049316406,0.27509117126464844
489,8462661.0,9.134157180786133,-2.663630485534668,2.506805419921875,0.0170440673828125,-0.011717796325683594,-0.0010652542114257812,0.5453920364379883,0.5419387817382812,-0.5766391754150391,0.27634239196777344
490,8462681.0,9.110215187072754,-2.7055301666259766,2.502017021179199,0.0,-0.005326271057128906,0.0,0.5453481674194336,0.5419826507568359,-0.5765962600708008,0.2763853073120117
491,8462701.0,9.074300765991211,-2.747429847717285,2.53433895111084,0.0021305084228515625,-0.004261016845703125,-0.0021305084228515625,0.5453481674194336,0.5419826507568359,-0.5765962600708008,0.2763853073120117
492,8462720.0,9.107820510864258,-2.749823570251465,2.536733627319336,0.0287628173828125,-0.014913558959960938,0.0,0.5453052520751953,0.5419826507568359,-0.5765962600708008,0.2764291763305664
493,8462740.0,9.173663139343262,-2.6420812606811523,2.502017021179199,0.03515434265136719,-0.014913558959960938,0.005326271057128906,0.5451755523681641,0.5421552658081055,-0.5764236450195312,0.2767305374145508
494,8462859.0,9.111412048339844,-2.661235809326172,2.4828624725341797,0.03515434265136719,-0.014913558959960938,0.005326271057128906,0.5451755523681641,0.5421552658081055,-0.5764236450195312,0.2767305374145508
495,8462859.0,9.111412048339844,-2.661235809326172,2.4828624725341797,0.03515434265136719,-0.014913558959960938,0.005326271057128906,0.5451755523681641,0.5421552658081055,-0.5764236450195312,0.2767305374145508
496,8462859.0,9.111412048339844,-2.661235809326172,2.4828624725341797,0.03515434265136719,-0.014913558959960938,0.005326271057128906,0.5451755523681641,0.5421552658081055,-0.5764236450195312,0.2767305374145508
497,8462879.0,9.091060638427734,-2.7629928588867188,2.439764976501465,0.03515434265136719,-0.014913558959960938,0.005326271057128906,0.5451755523681641,0.5421552658081055,-0.5764236450195312,0.2767305374145508
498,8462879.0,9.091060638427734,-2.7629928588867188,2.439764976501465,0.03515434265136719,-0.014913558959960938,0.005326271057128906,0.5451755523681641,0.5421552658081055,-0.5764236450195312,0.2767305374145508
499,8462879.0,9.091060638427734,-2.7629928588867188,2.439764976501465,0.03515434265136719,-0.014913558959960938,0.005326271057128906,0.5451755523681641,0.5421552658081055,-0.5764236450195312,0.2767305374145508
500,8462899.0,9.069512367248535,-2.7689781188964844,2.508002281188965,0.03515434265136719,-0.014913558959960938,0.005326271057128906,0.5451755523681641,0.5421552658081055,-0.5764236450195312,0.2767305374145508
501,8462899.0,9.069512367248535,-2.7689781188964844,2.508002281188965,0.03515434265136719,-0.014913558959960938,0.005326271057128906,0.5451755523681641,0.5421552658081055,-0.5764236450195312,0.2767305374145508
502,8462899.0,9.069512367248535,-2.7689781188964844,2.508002281188965,0.03515434265136719,-0.014913558959960938,0.005326271057128906,0.5451755523681641,0.5421552658081055,-0.5764236450195312,0.2767305374145508
503,8462919.0,9.122185707092285,-2.60137939453125,2.5163822174072266,0.03515434265136719,-0.014913558959960938,0.005326271057128906,0.5451755523681641,0.5421552658081055,-0.5764236450195312,0.2767305374145508
504,8462919.0,9.122185707092285,-2.60137939453125,2.5163822174072266,0.03515434265136719,-0.014913558959960938,0.005326271057128906,0.5451755523681641,0.5421552658081055,-0.5764236450195312,0.2767305374145508
505,8462919.0,9.122185707092285,-2.60137939453125,2.5163822174072266,0.03515434265136719,-0.014913558959960938,0.005326271057128906,0.5451755523681641,0.5421552658081055,-0.5764236450195312,0.2767305374145508
506,8462938.0,9.158100128173828,-2.594196319580078,2.4804677963256836,0.03515434265136719,-0.014913558959960938,0.005326271057128906,0.5451755523681641,0.5421552658081055,-0.5764236450195312,0.2767305374145508
507,8462938.0,9.158100128173828,-2.594196319580078,2.4804677963256836,0.03515434265136719,-0.014913558959960938,0.005326271057128906,0.5451755523681641,0.5421552658081055,-0.5764236450195312,0.2767305374145508
508,8462938.0,9.158100128173828,-2.594196319580078,2.4804677963256836,0.03515434265136719,-0.014913558959960938,0.005326271057128906,0.5451755523681641,0.5421552658081055,-0.5764236450195312,0.2767305374145508
509,8463358.0,9.140143394470215,-2.6181392669677734,2.4900455474853516,0.01597881317138672,-0.009587287902832031,0.010652542114257812,0.5459098815917969,0.542327880859375,-0.5747833251953125,0.2784137725830078
510,8463377.0,9.099440574645996,-2.65285587310791,2.4517364501953125,-0.01810932159423828,-0.00852203369140625,0.011717796325683594,0.5459098815917969,0.5424137115478516,-0.5746974945068359,0.2784137725830078
511,8463397.0,9.171268463134766,-2.777358055114746,2.4661026000976562,-0.010652542114257812,-0.010652542114257812,0.00852203369140625,0.5460824966430664,0.542327880859375,-0.5746974945068359,0.2782411575317383
512,8463417.0,9.180846214294434,-2.7127132415771484,2.506805419921875,0.01597881317138672,-0.005326271057128906,0.005326271057128906,0.546168327331543,0.5422840118408203,-0.5746536254882812,0.2782411575317383
513,8463437.0,9.19640827178955,-2.590604782104492,2.569056510925293,-0.0010652542114257812,-0.00852203369140625,0.0031957626342773438,0.5460395812988281,0.5424137115478516,-0.574610710144043,0.27837085723876953
514,8463558.0,9.203591346740723,-2.745035171508789,2.5475082397460938,-0.0010652542114257812,-0.00852203369140625,0.0031957626342773438,0.5460395812988281,0.5424137115478516,-0.574610710144043,0.27837085723876953
515,8463558.0,9.203591346740723,-2.745035171508789,2.5475082397460938,-0.0010652542114257812,-0.00852203369140625,0.0031957626342773438,0.5460395812988281,0.5424137115478516,-0.574610710144043,0.27837085723876953
516,8463578.0,9.190423011779785,-2.783344268798828,2.474482536315918,-0.0010652542114257812,-0.00852203369140625,0.0031957626342773438,0.5460395812988281,0.5424137115478516,-0.574610710144043,0.27837085723876953
517,8463578.0,9.190423011779785,-2.783344268798828,2.474482536315918,-0.0010652542114257812,-0.00852203369140625,0.0031957626342773438,0.5460395812988281,0.5424137115478516,-0.574610710144043,0.27837085723876953
518,8463598.0,9.178451538085938,-2.650461196899414,2.6133499145507812,-0.0010652542114257812,-0.00852203369140625,0.0031957626342773438,0.5460395812988281,0.5424137115478516,-0.574610710144043,0.27837085723876953
519,8463598.0,9.178451538085938,-2.650461196899414,2.6133499145507812,-0.0010652542114257812,-0.00852203369140625,0.0031957626342773438,0.5460395812988281,0.5424137115478516,-0.574610710144043,0.27837085723876953
520,8463617.0,9.23471736907959,-2.502017021179199,2.8276376724243164,-0.0010652542114257812,-0.00852203369140625,0.0031957626342773438,0.5460395812988281,0.5424137115478516,-0.574610710144043,0.27837085723876953
521,8463617.0,9.23471736907959,-2.502017021179199,2.8276376724243164,-0.0010652542114257812,-0.00852203369140625,0.0031957626342773438,0.5460395812988281,0.5424137115478516,-0.574610710144043,0.27837085723876953
522,8463637.0,9.282602310180664,-2.6360960006713867,2.9569292068481445,-0.0010652542114257812,-0.00852203369140625,0.0031957626342773438,0.5460395812988281,0.5424137115478516,-0.574610710144043,0.27837085723876953
523,8463637.0,9.282602310180664,-2.6360960006713867,2.9569292068481445,-0.0010652542114257812,-0.00852203369140625,0.0031957626342773438,0.5460395812988281,0.5424137115478516,-0.574610710144043,0.27837085723876953
524,8463757.0,9.559141159057617,-3.833232879638672,7.4449968338012695,-0.26312828063964844,0.41226959228515625,-0.20347118377685547,0.5460395812988281,0.5424137115478516,-0.574610710144043,0.27837085723876953
525,8463777.0,9.683643341064453,-3.6704225540161133,8.056734085083008,-0.26312828063964844,0.41226959228515625,-0.20347118377685547,0.5460395812988281,0.5424137115478516,-0.574610710144043,0.27837085723876953
526,8463797.0,10.259467124938965,-2.5678586959838867,8.132153511047363,-0.26312828063964844,0.41226959228515625,-0.20347118377685547,0.5460395812988281,0.5424137115478516,-0.574610710144043,0.27837085723876953
527,8463817.0,10.808952331542969,-1.6855688095092773,8.171659469604492,-0.26312828063964844,0.41226959228515625,-0.20347118377685547,0.5460395812988281,0.5424137115478516,-0.574610710144043,0.27837085723876953
528,8463836.0,10.720364570617676,-1.9333763122558594,8.3248929977417,-0.26312828063964844,0.41226959228515625,-0.20347118377685547,0.5460395812988281,0.5424137115478516,-0.574610710144043,0.27837085723876953
529,8463856.0,10.813741683959961,-2.782146453857422,8.752270698547363,-0.26312828063964844,0.41226959228515625,-0.20347118377685547,0.5460395812988281,0.5424137115478516,-0.574610710144043,0.27837085723876953
530,8463876.0,11.07471752166748,-3.1807937622070312,8.632556915283203,-0.26312828063964844,0.41226959228515625,-0.20347118377685547,0.5460395812988281,0.5424137115478516,-0.574610710144043,0.27837085723876953
531,8463896.0,10.998100280761719,-2.948549270629883,8.407495498657227,-0.26312828063964844,0.41226959228515625,-0.20347118377685547,0.5460395812988281,0.5424137115478516,-0.574610710144043,0.27837085723876953
532,8463916.0,10.994508743286133,-2.616941452026367,8.37517261505127,-0.26312828063964844,0.41226959228515625,-0.20347118377685547,0.5460395812988281,0.5424137115478516,-0.574610710144043,0.27837085723876953
533,8463935.0,11.14534854888916,-2.5199737548828125,8.37517261505127,-0.26312828063964844,0.41226959228515625,-0.20347118377685547,0.5460395812988281,0.5424137115478516,-0.574610710144043,0.27837085723876953
534,8464156.0,7.620975494384766,-0.26097583770751953,8.2135591506958,0.8895225524902344,2.640871047973633,-0.7009649276733398,0.3432807922363281,0.6097412109375,-0.6964902877807617,0.15890884399414062
535,8464175.0,7.006844520568848,-0.8272218704223633,7.927443504333496,0.5251913070678711,2.6611108779907227,-0.7073564529418945,0.3432807922363281,0.6097412109375,-0.6964902877807617,0.15890884399414062
536,8464195.0,6.316096305847168,-1.7945079803466797,8.485308647155762,0.5294523239135742,2.617434501647949,-0.6615486145019531,0.3432807922363281,0.6097412109375,-0.6964902877807617,0.15890884399414062
537,8464215.0,5.833649635314941,-0.9648923873901367,8.042367935180664,0.7116174697875977,2.5673646926879883,-0.6807241439819336,0.3432807922363281,0.6097412109375,-0.6964902877807617,0.15890884399414062
538,8464235.0,5.333246231079102,-0.07541942596435547,7.292960166931152,0.3515472412109375,2.5396671295166016,-0.6583528518676758,0.3432807922363281,0.6097412109375,-0.6964902877807617,0.15890884399414062
539,8464256.0,4.647286415100098,-0.6284961700439453,7.240285873413086,0.3515472412109375,2.5396671295166016,-0.6583528518676758,0.07902240753173828,0.6083593368530273,-0.788848876953125,0.03741741180419922
540,8464256.0,4.647286415100098,-0.6284961700439453,7.240285873413086,0.3515472412109375,2.5396671295166016,-0.6583528518676758,0.07902240753173828,0.6083593368530273,-0.788848876953125,0.03741741180419922
541,8464275.0,3.8404159545898438,-1.4186077117919922,7.332466125488281,0.3515472412109375,2.5396671295166016,-0.6583528518676758,0.06089591979980469,0.6046047210693359,-0.7938985824584961,0.02067279815673828
542,8464275.0,3.8404159545898438,-1.4186077117919922,7.332466125488281,0.3515472412109375,2.5396671295166016,-0.6583528518676758,0.06089591979980469,0.6046047210693359,-0.7938985824584961,0.02067279815673828
543,8464295.0,3.310084342956543,-0.6009626388549805,6.395107269287109,0.3515472412109375,2.5396671295166016,-0.6583528518676758,0.0435028076171875,0.6013679504394531,-0.7977399826049805,0.003970146179199219
544,8464295.0,3.310084342956543,-0.6009626388549805,6.395107269287109,0.3515472412109375,2.5396671295166016,-0.6583528518676758,0.0435028076171875,0.6013679504394531,-0.7977399826049805,0.003970146179199219
545,8464315.0,2.821652412414551,0.22745609283447266,5.925829887390137,0.3515472412109375,2.5396671295166016,-0.6583528518676758,0.02736186981201172,0.5980453491210938,-0.8008899688720703,-0.012516021728515625
546,8464315.0,2.821652412414551,0.22745609283447266,5.925829887390137,0.3515472412109375,2.5396671295166016,-0.6583528518676758,0.02736186981201172,0.5980453491210938,-0.8008899688720703,-0.012516021728515625
547,8464335.0,1.7119054794311523,-0.20590686798095703,5.654079437255859,0.3515472412109375,2.5396671295166016,-0.6583528518676758,0.014370918273925781,0.5947647094726562,-0.8031339645385742,-0.031894683837890625
548,8464335.0,1.7119054794311523,-0.20590686798095703,5.654079437255859,0.3515472412109375,2.5396671295166016,-0.6583528518676758,0.014370918273925781,0.5947647094726562,-0.8031339645385742,-0.031894683837890625
549,8464355.0,0.6608190536499023,-1.3695249557495117,5.656473159790039,0.3515472412109375,2.5396671295166016,-0.6583528518676758,0.014370918273925781,0.5947647094726562,-0.8031339645385742,-0.031894683837890625
550,8464374.0,0.1340789794921875,-1.7250747680664062,4.8112945556640625,0.3515472412109375,2.5396671295166016,-0.6583528518676758,0.014370918273925781,0.5947647094726562,-0.8031339645385742,-0.031894683837890625
551,8464394.0,-0.07661628723144531,-1.4868440628051758,5.2482500076293945,0.3515472412109375,2.5396671295166016,-0.6583528518676758,0.014370918273925781,0.5947647094726562,-0.8031339645385742,-0.031894683837890625
552,8464414.0,-1.2138967514038086,-2.2111120223999023,5.041145324707031,0.3515472412109375,2.5396671295166016,-0.6583528518676758,0.014370918273925781,0.5947647094726562,-0.8031339645385742,-0.031894683837890625
553,8464434.0,-1.3383989334106445,-2.376317024230957,5.048327445983887,0.3515472412109375,2.5396671295166016,-0.6583528518676758,0.014370918273925781,0.5947647094726562,-0.8031339645385742,-0.031894683837890625
554,8464654.0,-2.649264335632324,-1.857956886291504,7.707169532775879,-0.03941535949707031,0.0010652542114257812,0.012783050537109375,-0.0742330551147461,0.570164680480957,-0.8054647445678711,-0.14380455017089844
555,8464654.0,-2.649264335632324,-1.857956886291504,7.707169532775879,-0.03941535949707031,0.0010652542114257812,0.012783050537109375,-0.0742330551147461,0.570164680480957,-0.8054647445678711,-0.14380455017089844
556,8464674.0,-2.444554328918457,-1.693948745727539,8.002862930297852,0.22584247589111328,-0.057525634765625,0.06604766845703125,-0.0742330551147461,0.570164680480957,-0.8054647445678711,-0.14380455017089844
557,8464674.0,-2.444554328918457,-1.693948745727539,8.002862930297852,0.22584247589111328,-0.057525634765625,0.06604766845703125,-0.0742330551147461,0.570164680480957,-0.8054647445678711,-0.14380455017089844
558,8464694.0,-2.5822248458862305,-1.3994531631469727,7.97652530670166,0.29189109802246094,-0.07989692687988281,0.11611652374267578,-0.0742330551147461,0.570164680480957,-0.8054647445678711,-0.14380455017089844
559,8464694.0,-2.5822248458862305,-1.3994531631469727,7.97652530670166,0.29189109802246094,-0.07989692687988281,0.11611652374267578,-0.0742330551147461,0.570164680480957,-0.8054647445678711,-0.14380455017089844
560,8464713.0,-2.6995439529418945,-1.332413673400879,8.108210563659668,0.1906881332397461,-0.12357425689697266,0.18642616271972656,-0.0742330551147461,0.570164680480957,-0.8054647445678711,-0.14380455017089844
561,8464713.0,-2.6995439529418945,-1.332413673400879,8.108210563659668,0.1906881332397461,-0.12357425689697266,0.18642616271972656,-0.0742330551147461,0.570164680480957,-0.8054647445678711,-0.14380455017089844
562,8464733.0,-2.096186637878418,-2.0542869567871094,7.397110939025879,0.16512012481689453,-0.19814491271972656,0.1608591079711914,-0.0742330551147461,0.570164680480957,-0.8054647445678711,-0.14380455017089844
563,8464733.0,-2.096186637878418,-2.0542869567871094,7.397110939025879,0.16512012481689453,-0.19814491271972656,0.1608591079711914,-0.0742330551147461,0.570164680480957,-0.8054647445678711,-0.14380455017089844
564,8464754.0,-2.2362518310546875,-1.7909173965454102,7.084658622741699,0.16512012481689453,-0.19814491271972656,0.1608591079711914,-0.0742330551147461,0.570164680480957,-0.8054647445678711,-0.14380455017089844
565,8464774.0,-2.539128303527832,-1.5203638076782227,7.30612850189209,0.16512012481689453,-0.19814491271972656,0.1608591079711914,-0.0742330551147461,0.570164680480957,-0.8054647445678711,-0.14380455017089844
566,8464794.0,-1.877110481262207,-0.9253864288330078,6.75544548034668,0.16512012481689453,-0.19814491271972656,0.1608591079711914,-0.0742330551147461,0.570164680480957,-0.8054647445678711,-0.14380455017089844
567,8464813.0,-1.759791374206543,-1.4042415618896484,5.909069061279297,0.16512012481689453,-0.19814491271972656,0.1608591079711914,-0.0742330551147461,0.570164680480957,-0.8054647445678711,-0.14380455017089844
568,8464833.0,-2.033935546875,-1.3072738647460938,5.660064697265625,0.16512012481689453,-0.19814491271972656,0.1608591079711914,-0.0742330551147461,0.570164680480957,-0.8054647445678711,-0.14380455017089844
569,8464852.0,-1.7454261779785156,-1.1277027130126953,5.856395721435547,0.16512012481689453,-0.19814491271972656,0.1608591079711914,-0.0742330551147461,0.570164680480957,-0.8054647445678711,-0.14380455017089844
570,8464872.0,-1.4988155364990234,-0.04788494110107422,5.8037214279174805,0.16512012481689453,-0.19814491271972656,0.1608591079711914,-0.0742330551147461,0.570164680480957,-0.8054647445678711,-0.14380455017089844
571,8464892.0,-1.0834083557128906,-0.31125545501708984,5.867169380187988,0.16512012481689453,-0.19814491271972656,0.1608591079711914,-0.0742330551147461,0.570164680480957,-0.8054647445678711,-0.14380455017089844
572,8464912.0,-0.43216609954833984,-1.012777328491211,5.383525848388672,0.16512012481689453,-0.19814491271972656,0.1608591079711914,-0.0742330551147461,0.570164680480957,-0.8054647445678711,-0.14380455017089844
