,timestamp,accel_x,accel_y,accel_z,gyro_x,gyro_y,gyro_z,ori_scalar,ori_x,ori_y,ori_z
0,474946080.0,-0.5758228302001953,-0.3495635986328125,9.500481605529785,-0.27484607696533203,0.1779041290283203,-0.12570476531982422,0.2524757385253906,0.6570425033569336,0.7065019607543945,0.0731964111328125
1,474946080.0,-0.46927738189697266,-0.027533531188964844,9.549564361572266,-0.27484607696533203,0.1779041290283203,-0.12570476531982422,0.2524757385253906,0.6570425033569336,0.7065019607543945,0.0731964111328125
2,474946112.0,-0.6093425750732422,-0.6416654586791992,9.731529235839844,-0.27484607696533203,0.1779041290283203,-0.12570476531982422,0.2524757385253906,0.6570425033569336,0.7065019607543945,0.0731964111328125
3,474946112.0,-0.5853996276855469,-0.6392707824707031,9.59505558013916,-0.27484607696533203,0.1779041290283203,-0.12570476531982422,0.2524757385253906,0.6570425033569336,0.7065019607543945,0.0731964111328125
4,474946112.0,-0.6237077713012695,-0.7218732833862305,9.773428916931152,-0.27484607696533203,0.1779041290283203,-0.12570476531982422,0.2524757385253906,0.6570425033569336,0.7065019607543945,0.0731964111328125
5,474946144.0,-0.7769412994384766,-0.9014434814453125,9.605829238891602,-0.27484607696533203,0.1779041290283203,-0.12570476531982422,0.2524757385253906,0.6570425033569336,0.7065019607543945,0.0731964111328125
6,474946144.0,-1.200728416442871,-0.9349641799926758,9.656109809875488,-0.27484607696533203,0.1779041290283203,-0.12570476531982422,0.2524757385253906,0.6570425033569336,0.7065019607543945,0.0731964111328125
7,474946176.0,-3.310084342956543,-1.658034324645996,10.97655200958252,0.3451557159423828,-0.030893325805664062,0.1097249984741211,0.2524757385253906,0.6570425033569336,0.7065019607543945,0.0731964111328125
8,474946208.0,-0.4441375732421875,-1.2414312362670898,10.421080589294434,0.7702093124389648,-0.334503173828125,-0.03621959686279297,0.24203205108642578,0.6592435836791992,0.7087888717651367,0.06689453125
9,474946208.0,0.10654449462890625,0.1496419906616211,10.160103797912598,0.7702093124389648,-0.334503173828125,-0.03621959686279297,0.24203205108642578,0.6592435836791992,0.7087888717651367,0.06689453125
10,474946240.0,-2.591801643371582,-0.3567466735839844,9.68484115600586,0.7702093124389648,-0.334503173828125,-0.03621959686279297,0.24203205108642578,0.6592435836791992,0.7087888717651367,0.06689453125
11,474946272.0,-1.3431873321533203,-1.7466230392456055,9.06472396850586,0.7702093124389648,-0.334503173828125,-0.03621959686279297,0.24203205108642578,0.6592435836791992,0.7087888717651367,0.06689453125
12,474946272.0,-0.9361610412597656,-1.8555622100830078,8.054339408874512,0.7702093124389648,-0.334503173828125,-0.03621959686279297,0.24203205108642578,0.6592435836791992,0.7087888717651367,0.06689453125
13,474946304.0,-2.065061569213867,-1.7190885543823242,8.429043769836426,0.7702093124389648,-0.334503173828125,-0.03621959686279297,0.24203205108642578,0.6592435836791992,0.7087888717651367,0.06689453125
14,474946304.0,-1.4712810516357422,-1.9633045196533203,8.76663589477539,0.7702093124389648,-0.334503173828125,-0.03621959686279297,0.24203205108642578,0.6592435836791992,0.7087888717651367,0.06689453125
15,474946336.0,-1.5921926498413086,-2.068653106689453,8.757059097290039,0.7702093124389648,-0.334503173828125,-0.03621959686279297,0.24203205108642578,0.6592435836791992,0.7087888717651367,0.06689453125
16,474946464.0,-1.2138967514038086,-0.6021595001220703,9.542381286621094,-0.11079025268554688,-0.2663240432739258,0.0063915252685546875,0.24535465240478516,0.6558771133422852,0.7101707458496094,0.07254886627197266
17,474946464.0,-1.5012102127075195,-1.1193227767944336,9.419075965881348,-0.11079025268554688,-0.2663240432739258,0.0063915252685546875,0.24535465240478516,0.6558771133422852,0.7101707458496094,0.07254886627197266
18,474946496.0,-1.6640205383300781,-1.3455820083618164,9.681249618530273,-0.025567054748535156,-0.3068046569824219,0.0021305084228515625,0.24535465240478516,0.6558771133422852,0.7101707458496094,0.07254886627197266
19,474946528.0,-1.1863622665405273,-0.6596221923828125,10.009264945983887,0.09481048583984375,-0.34302520751953125,0.019174575805664062,0.24535465240478516,0.6558771133422852,0.7101707458496094,0.07254886627197266
20,474946528.0,-0.9337663650512695,-0.5865964889526367,10.281015396118164,0.09481048583984375,-0.34302520751953125,0.019174575805664062,0.24535465240478516,0.6558771133422852,0.7101707458496094,0.07254886627197266
21,474946656.0,-1.0008068084716797,-0.98284912109375,10.065530776977539,0.04474163055419922,-0.07670116424560547,-0.0010652542114257812,0.2233438491821289,0.6544961929321289,0.7172479629516602,0.08584117889404297
22,474946688.0,-1.1588287353515625,-1.1025629043579102,9.950605392456055,0.045806884765625,-0.07137489318847656,0.009587287902832031,0.2233438491821289,0.6544961929321289,0.7172479629516602,0.08584117889404297
23,474946688.0,-1.0654516220092773,-0.7146902084350586,10.312140464782715,0.045806884765625,-0.07137489318847656,0.009587287902832031,0.2233438491821289,0.6544961929321289,0.7172479629516602,0.08584117889404297
24,474946720.0,-0.8595438003540039,-0.7709560394287109,10.255875587463379,0.009587287902832031,-0.023435592651367188,-0.0031957626342773438,0.2233438491821289,0.6544961929321289,0.7172479629516602,0.08584117889404297
25,474946752.0,-1.081014633178711,-0.8763036727905273,9.821314811706543,0.0010652542114257812,0.022370338439941406,-0.041545867919921875,0.06270885467529297,0.6693859100341797,0.7402515411376953,0.0020275115966796875
26,474946848.0,-1.0283403396606445,-1.0858030319213867,9.54597282409668,-0.09587669372558594,0.05859088897705078,-0.09907245635986328,0.06434822082519531,0.6717166900634766,0.7380075454711914,0.0014238357543945312
27,474946880.0,-0.799687385559082,-1.0881977081298828,9.535198211669922,0.013848304748535156,0.005326271057128906,-0.09587669372558594,0.06434822082519531,0.6717166900634766,0.7380075454711914,0.0014238357543945312
28,474946880.0,-0.8200387954711914,-1.0929861068725586,9.61540699005127,0.013848304748535156,0.005326271057128906,-0.09587669372558594,0.06434822082519531,0.6717166900634766,0.7380075454711914,0.0014238357543945312
29,474946912.0,-0.9397525787353516,-1.194742202758789,9.531606674194336,0.0021305084228515625,-0.00852203369140625,-0.08735370635986328,0.06434822082519531,0.6717166900634766,0.7380075454711914,0.0014238357543945312
30,474946944.0,-1.0032005310058594,-1.1312942504882812,9.559141159057617,-0.040480613708496094,-0.03728485107421875,-0.08522319793701172,0.06434822082519531,0.6717166900634766,0.7380075454711914,0.0014238357543945312
31,474947072.0,-0.9397525787353516,-1.0666484832763672,9.842863082885742,0.014913558959960938,-0.06498241424560547,-0.0809621810913086,0.06266593933105469,0.6790103912353516,0.7314043045043945,0.006300926208496094
32,474947072.0,-0.8607416152954102,-1.0929861068725586,9.824905395507812,0.014913558959960938,-0.06498241424560547,-0.0809621810913086,0.06266593933105469,0.6790103912353516,0.7314043045043945,0.006300926208496094
33,474947104.0,-0.8056726455688477,-1.132491111755371,9.841665267944336,0.0,-0.03835010528564453,-0.05006885528564453,0.06231975555419922,0.6795282363891602,0.7309722900390625,0.006646156311035156
34,474947104.0,-0.924189567565918,-1.0905914306640625,9.829694747924805,0.0,-0.03835010528564453,-0.05006885528564453,0.06231975555419922,0.6795282363891602,0.7309722900390625,0.006646156311035156
35,474947136.0,-0.8583469390869141,-1.106154441833496,9.882368087768555,0.0,-0.03728485107421875,-0.05006885528564453,0.061801910400390625,0.6802186965942383,0.7303686141967773,0.00716400146484375
36,474947264.0,-0.7841243743896484,-0.9816522598266602,9.792583465576172,0.0021305084228515625,0.005326271057128906,-0.022370338439941406,0.061801910400390625,0.6802186965942383,0.7303686141967773,0.00716400146484375
37,474947264.0,-0.8308124542236328,-1.0822114944458008,9.80575180053711,0.0021305084228515625,0.005326271057128906,-0.022370338439941406,0.061801910400390625,0.6802186965942383,0.7303686141967773,0.00716400146484375
38,474947296.0,-0.7374362945556641,-0.9996089935302734,9.748289108276367,0.0,0.005326271057128906,-0.019174575805664062,0.061801910400390625,0.6802186965942383,0.7303686141967773,0.00716400146484375
39,474947328.0,-0.7146902084350586,-0.9768638610839844,9.793780326843262,-0.024501800537109375,0.02769756317138672,-0.045806884765625,0.061801910400390625,0.6802186965942383,0.7303686141967773,0.00716400146484375
40,474947328.0,-0.8511638641357422,-1.0307350158691406,9.663291931152344,-0.024501800537109375,0.02769756317138672,-0.045806884765625,0.061801910400390625,0.6802186965942383,0.7303686141967773,0.00716400146484375
41,474947552.0,-0.7494077682495117,-1.0343265533447266,9.656109809875488,-0.024501800537109375,0.02769756317138672,-0.045806884765625,0.06253623962402344,0.6840591430664062,0.7266998291015625,0.008587837219238281
42,474947584.0,-0.7386331558227539,-1.0654516220092773,9.690826416015625,-0.024501800537109375,0.02769756317138672,-0.045806884765625,0.06253623962402344,0.6840591430664062,0.7266998291015625,0.008587837219238281
43,474947584.0,-0.7099018096923828,-1.2055168151855469,9.76504898071289,-0.024501800537109375,0.02769756317138672,-0.045806884765625,0.06253623962402344,0.6840591430664062,0.7266998291015625,0.008587837219238281
44,474947616.0,-0.6680021286010742,-1.166010856628418,9.713571548461914,-0.024501800537109375,0.02769756317138672,-0.045806884765625,0.06253623962402344,0.6840591430664062,0.7266998291015625,0.008587837219238281
45,474947648.0,-0.7158880233764648,-1.2126998901367188,9.676461219787598,-0.021305084228515625,-0.0170440673828125,-0.031958580017089844,0.06253623962402344,0.6840591430664062,0.7266998291015625,0.008587837219238281
46,474947744.0,-0.7039165496826172,-1.3060760498046875,9.411893844604492,-0.06604766845703125,0.0,-0.057525634765625,0.06555747985839844,0.6875553131103516,0.7230319976806641,0.014888763427734375
47,474947776.0,-0.6943387985229492,-1.1265058517456055,9.73631763458252,-0.07563591003417969,-0.019174575805664062,-0.05539512634277344,0.06555747985839844,0.6875553131103516,0.7230319976806641,0.014888763427734375
48,474947808.0,-0.6213140487670898,-1.1875600814819336,9.16648006439209,-0.1448802947998047,-0.010652542114257812,-0.10226821899414062,0.06555747985839844,0.6875553131103516,0.7230319976806641,0.014888763427734375
49,474947808.0,-0.6153278350830078,-1.234248161315918,9.881171226501465,-0.1448802947998047,-0.010652542114257812,-0.10226821899414062,0.06555747985839844,0.6875553131103516,0.7230319976806641,0.014888763427734375
50,474947840.0,-0.48723411560058594,-1.5263500213623047,10.09426212310791,-0.1736431121826172,0.0287628173828125,-0.08735370635986328,0.07077884674072266,0.6901016235351562,0.7199668884277344,0.02054309844970703
51,474947968.0,-0.6859588623046875,-1.5155754089355469,9.510058403015137,-0.0287628173828125,-0.12357425689697266,0.022370338439941406,0.07410240173339844,0.6903171539306641,0.719233512878418,0.02481555938720703
52,474947968.0,-0.9601039886474609,-1.3383989334106445,9.656109809875488,-0.0287628173828125,-0.12357425689697266,0.022370338439941406,0.07410240173339844,0.6903171539306641,0.719233512878418,0.02481555938720703
53,474948000.0,-0.894261360168457,-0.9660892486572266,9.924267768859863,0.0287628173828125,-0.1608591079711914,-0.030893325805664062,0.07410240173339844,0.6903171539306641,0.719233512878418,0.02481555938720703
54,474948032.0,-0.6488475799560547,-1.3407936096191406,9.878776550292969,-0.04474163055419922,-0.11824703216552734,-0.04367637634277344,0.07410240173339844,0.6903171539306641,0.719233512878418,0.02481555938720703
55,474948032.0,-0.67279052734375,-1.4066362380981445,10.23552417755127,-0.04474163055419922,-0.11824703216552734,-0.04367637634277344,0.07410240173339844,0.6903171539306641,0.719233512878418,0.02481555938720703
56,474948160.0,-0.5542745590209961,-1.67120361328125,9.972153663635254,0.007456779479980469,0.045806884765625,0.01810932159423828,0.07177162170410156,0.6921730041503906,0.7173776626586914,0.03284263610839844
57,474948192.0,-0.48723411560058594,-1.701131820678711,9.891945838928223,0.06817817687988281,0.04687213897705078,0.022370338439941406,0.07177162170410156,0.6921730041503906,0.7173776626586914,0.03284263610839844
58,474948192.0,-0.5949764251708984,-1.7502145767211914,9.613012313842773,0.06817817687988281,0.04687213897705078,0.022370338439941406,0.07177162170410156,0.6921730041503906,0.7173776626586914,0.03284263610839844
59,474948224.0,-0.5901880264282227,-1.383890151977539,9.519636154174805,0.06817817687988281,0.02769756317138672,0.024501800537109375,0.07177162170410156,0.6921730041503906,0.7173776626586914,0.03284263610839844
60,474948256.0,-0.5399084091186523,-1.7346515655517578,9.609420776367188,-0.0063915252685546875,0.05006885528564453,0.05539512634277344,0.07177162170410156,0.6921730041503906,0.7173776626586914,0.03284263610839844
61,474948256.0,-0.5734281539916992,-1.7250747680664062,9.620195388793945,-0.0063915252685546875,0.05006885528564453,0.05539512634277344,0.07177162170410156,0.6921730041503906,0.7173776626586914,0.03284263610839844
62,474948288.0,-0.48723411560058594,-1.262979507446289,9.878776550292969,-0.0063915252685546875,0.05006885528564453,0.05539512634277344,0.07177162170410156,0.6921730041503906,0.7173776626586914,0.03284263610839844
63,474948288.0,-0.6165256500244141,-1.697540283203125,9.308939933776855,-0.0063915252685546875,0.05006885528564453,0.05539512634277344,0.07177162170410156,0.6921730041503906,0.7173776626586914,0.03284263610839844
64,474948320.0,-0.803278923034668,-1.5897979736328125,9.636955261230469,-0.0063915252685546875,0.05006885528564453,0.05539512634277344,0.07177162170410156,0.6921730041503906,0.7173776626586914,0.03284263610839844
65,474948352.0,-0.5638513565063477,-1.6185293197631836,9.883565902709961,-0.010652542114257812,0.08309268951416016,0.0916147232055664,0.07177162170410156,0.6921730041503906,0.7173776626586914,0.03284263610839844
66,474948352.0,-0.7099018096923828,-1.6077547073364258,9.712374687194824,-0.010652542114257812,0.08309268951416016,0.0916147232055664,0.07177162170410156,0.6921730041503906,0.7173776626586914,0.03284263610839844
67,474948384.0,-0.7386331558227539,-1.4844493865966797,9.579492568969727,0.054329872131347656,0.07883167266845703,0.0862884521484375,0.07177162170410156,0.6921730041503906,0.7173776626586914,0.03284263610839844
68,474948416.0,-0.920598030090332,-1.2677679061889648,9.620195388793945,-0.09694194793701172,0.08309268951416016,0.06604766845703125,0.07177162170410156,0.6921730041503906,0.7173776626586914,0.03284263610839844
69,474948416.0,-0.9062328338623047,-1.4281845092773438,9.828496932983398,-0.09694194793701172,0.08309268951416016,0.06604766845703125,0.07177162170410156,0.6921730041503906,0.7173776626586914,0.03284263610839844
70,474948448.0,-0.9397525787353516,-1.5886011123657227,9.739909172058105,-0.09694194793701172,0.08309268951416016,0.06604766845703125,0.07177162170410156,0.6921730041503906,0.7173776626586914,0.03284263610839844
71,474948448.0,-0.9636955261230469,-1.5826148986816406,9.66568660736084,-0.09694194793701172,0.08309268951416016,0.06604766845703125,0.07177162170410156,0.6921730041503906,0.7173776626586914,0.03284263610839844
72,474948448.0,-0.9397525787353516,-1.5886011123657227,9.739909172058105,-0.09694194793701172,0.08309268951416016,0.06604766845703125,0.07177162170410156,0.6921730041503906,0.7173776626586914,0.03284263610839844
73,474948448.0,-0.9636955261230469,-1.5826148986816406,9.66568660736084,-0.09694194793701172,0.08309268951416016,0.06604766845703125,0.07177162170410156,0.6921730041503906,0.7173776626586914,0.03284263610839844
74,474948480.0,-0.9900321960449219,-1.4736757278442383,9.541184425354004,-0.09694194793701172,0.08309268951416016,0.06604766845703125,0.07177162170410156,0.6921730041503906,0.7173776626586914,0.03284263610839844
75,474948480.0,-0.9900321960449219,-1.4736757278442383,9.541184425354004,-0.09694194793701172,0.08309268951416016,0.06604766845703125,0.07177162170410156,0.6921730041503906,0.7173776626586914,0.03284263610839844
76,474948512.0,-0.8152503967285156,-1.2390365600585938,9.591464042663574,-0.09694194793701172,0.08309268951416016,0.06604766845703125,0.07177162170410156,0.6921730041503906,0.7173776626586914,0.03284263610839844
77,474948512.0,-0.7889127731323242,-1.2294597625732422,9.634560585021973,-0.09694194793701172,0.08309268951416016,0.06604766845703125,0.07177162170410156,0.6921730041503906,0.7173776626586914,0.03284263610839844
78,474948512.0,-0.8152503967285156,-1.2390365600585938,9.591464042663574,-0.09694194793701172,0.08309268951416016,0.06604766845703125,0.07177162170410156,0.6921730041503906,0.7173776626586914,0.03284263610839844
79,474948512.0,-0.7889127731323242,-1.2294597625732422,9.634560585021973,-0.09694194793701172,0.08309268951416016,0.06604766845703125,0.07177162170410156,0.6921730041503906,0.7173776626586914,0.03284263610839844
80,474948640.0,-0.735041618347168,-1.5071954727172852,9.642940521240234,-0.042611122131347656,0.00852203369140625,-0.026632308959960938,0.07177162170410156,0.6921730041503906,0.7173776626586914,0.03284263610839844
81,474948672.0,-0.6799736022949219,-1.6185293197631836,9.635758399963379,-0.08309268951416016,0.031958580017089844,-0.025567054748535156,0.07177162170410156,0.6921730041503906,0.7173776626586914,0.03284263610839844
82,474948672.0,-0.6536369323730469,-1.7154970169067383,9.59625244140625,-0.08309268951416016,0.031958580017089844,-0.025567054748535156,0.07177162170410156,0.6921730041503906,0.7173776626586914,0.03284263610839844
83,474948704.0,-0.7122964859008789,-1.9046449661254883,9.632166862487793,-0.05113410949707031,0.0170440673828125,0.01810932159423828,0.07177162170410156,0.6921730041503906,0.7173776626586914,0.03284263610839844
84,474948736.0,-0.6895503997802734,-1.727468490600586,9.656109809875488,0.042611122131347656,-0.00852203369140625,0.06391716003417969,0.07177162170410156,0.6921730041503906,0.7173776626586914,0.03284263610839844
85,474948736.0,-0.7518014907836914,-1.5790233612060547,9.628575325012207,0.042611122131347656,-0.00852203369140625,0.06391716003417969,0.07177162170410156,0.6921730041503906,0.7173776626586914,0.03284263610839844
86,474948768.0,-0.8451786041259766,-1.5311384201049805,9.693221092224121,0.042611122131347656,-0.00852203369140625,0.06391716003417969,0.07177162170410156,0.6921730041503906,0.7173776626586914,0.03284263610839844
87,474948768.0,-0.9086265563964844,-1.5203638076782227,9.675263404846191,0.042611122131347656,-0.00852203369140625,0.06391716003417969,0.07177162170410156,0.6921730041503906,0.7173776626586914,0.03284263610839844
88,474948800.0,-0.8834867477416992,-1.4844493865966797,9.755472183227539,0.042611122131347656,-0.00852203369140625,0.06391716003417969,0.07177162170410156,0.6921730041503906,0.7173776626586914,0.03284263610839844
89,474948832.0,-0.8990497589111328,-1.5059986114501953,9.726740837097168,0.09481048583984375,-0.030893325805664062,0.05006885528564453,0.07177162170410156,0.6921730041503906,0.7173776626586914,0.03284263610839844
90,474948832.0,-0.8739099502563477,-1.3000907897949219,9.739909172058105,0.09481048583984375,-0.030893325805664062,0.05006885528564453,0.07177162170410156,0.6921730041503906,0.7173776626586914,0.03284263610839844
91,474948864.0,-0.8894729614257812,-1.2390365600585938,9.788991928100586,0.01810932159423828,-0.023435592651367188,0.004261016845703125,0.07177162170410156,0.6921730041503906,0.7173776626586914,0.03284263610839844
92,474948864.0,-0.8583469390869141,-1.29290771484375,9.747092247009277,0.01810932159423828,-0.023435592651367188,0.004261016845703125,0.07177162170410156,0.6921730041503906,0.7173776626586914,0.03284263610839844
93,474948896.0,-0.8858814239501953,-1.3264274597167969,9.809343338012695,0.00852203369140625,-0.014913558959960938,-0.022370338439941406,0.07177162170410156,0.6921730041503906,0.7173776626586914,0.03284263610839844
94,474948928.0,-0.8583469390869141,-1.4629011154174805,9.641743659973145,0.05006885528564453,-0.040480613708496094,-0.022370338439941406,0.07177162170410156,0.6921730041503906,0.7173776626586914,0.03284263610839844
95,474948928.0,-0.7805328369140625,-1.4030447006225586,9.732726097106934,0.05006885528564453,-0.040480613708496094,-0.022370338439941406,0.07177162170410156,0.6921730041503906,0.7173776626586914,0.03284263610839844
96,474948960.0,-0.7194786071777344,-1.325230598449707,9.739909172058105,0.025567054748535156,-0.031958580017089844,-0.030893325805664062,0.07699394226074219,0.6853971481323242,0.7237224578857422,0.023909568786621094
97,474948992.0,-0.8475723266601562,-1.4593095779418945,9.692023277282715,-0.005326271057128906,-0.026632308959960938,-0.033023834228515625,0.07699394226074219,0.6856565475463867,0.7234630584716797,0.024168014526367188
98,474948992.0,-0.8763036727905273,-1.632894515991211,9.73631763458252,-0.005326271057128906,-0.026632308959960938,-0.033023834228515625,0.07699394226074219,0.6856565475463867,0.7234630584716797,0.024168014526367188
99,474949024.0,-0.7302532196044922,-1.5682497024536133,9.639349937438965,0.040480613708496094,-0.045806884765625,-0.00852203369140625,0.07634639739990234,0.6860017776489258,0.7232046127319336,0.02447032928466797
100,474949024.0,-0.6835651397705078,-1.3862848281860352,9.69681167602539,0.040480613708496094,-0.045806884765625,-0.00852203369140625,0.07634639739990234,0.6860017776489258,0.7232046127319336,0.02447032928466797
101,474949152.0,-0.6440591812133789,-1.3060760498046875,9.794977188110352,0.040480613708496094,-0.045806884765625,-0.00852203369140625,0.07634639739990234,0.6860017776489258,0.7232046127319336,0.02447032928466797
102,474949152.0,-0.6440591812133789,-1.3060760498046875,9.794977188110352,0.040480613708496094,-0.045806884765625,-0.00852203369140625,0.07634639739990234,0.6860017776489258,0.7232046127319336,0.02447032928466797
103,474949184.0,-0.646453857421875,-1.3300189971923828,9.727937698364258,0.040480613708496094,-0.045806884765625,-0.00852203369140625,0.07634639739990234,0.6860017776489258,0.7232046127319336,0.02447032928466797
104,474949184.0,-0.6308908462524414,-1.4305782318115234,9.781808853149414,0.040480613708496094,-0.045806884765625,-0.00852203369140625,0.07634639739990234,0.6860017776489258,0.7232046127319336,0.02447032928466797
105,474949184.0,-0.646453857421875,-1.3300189971923828,9.727937698364258,0.040480613708496094,-0.045806884765625,-0.00852203369140625,0.07634639739990234,0.6860017776489258,0.7232046127319336,0.02447032928466797
106,474949184.0,-0.6308908462524414,-1.4305782318115234,9.781808853149414,0.040480613708496094,-0.045806884765625,-0.00852203369140625,0.07634639739990234,0.6860017776489258,0.7232046127319336,0.02447032928466797
107,474949216.0,-0.6979303359985352,-1.4126214981079102,9.890748023986816,0.040480613708496094,-0.045806884765625,-0.00852203369140625,0.07634639739990234,0.6860017776489258,0.7232046127319336,0.02447032928466797
108,474949216.0,-0.6261024475097656,-1.4126214981079102,9.826103210449219,0.040480613708496094,-0.045806884765625,-0.00852203369140625,0.07634639739990234,0.6860017776489258,0.7232046127319336,0.02447032928466797
109,474949216.0,-0.6979303359985352,-1.4126214981079102,9.890748023986816,0.040480613708496094,-0.045806884765625,-0.00852203369140625,0.07634639739990234,0.6860017776489258,0.7232046127319336,0.02447032928466797
110,474949216.0,-0.6261024475097656,-1.4126214981079102,9.826103210449219,0.040480613708496094,-0.045806884765625,-0.00852203369140625,0.07634639739990234,0.6860017776489258,0.7232046127319336,0.02447032928466797
111,474949248.0,-0.6237077713012695,-1.3599472045898438,9.700403213500977,-0.040480613708496094,0.0170440673828125,0.0,0.07634639739990234,0.6860017776489258,0.7232046127319336,0.02447032928466797
112,474949280.0,-0.6979303359985352,-1.3659334182739258,9.78659725189209,-0.07244014739990234,0.03728485107421875,-0.0170440673828125,0.07634639739990234,0.6860017776489258,0.7232046127319336,0.02447032928466797
113,474949280.0,-0.767364501953125,-1.4078330993652344,9.700403213500977,-0.07244014739990234,0.03728485107421875,-0.0170440673828125,0.07634639739990234,0.6860017776489258,0.7232046127319336,0.02447032928466797
114,474949312.0,-0.7637729644775391,-1.3383989334106445,9.726740837097168,-0.03835010528564453,0.01597881317138672,-0.0287628173828125,0.07634639739990234,0.6860017776489258,0.7232046127319336,0.02447032928466797
115,474949312.0,-0.7194786071777344,-1.3084707260131836,9.755472183227539,-0.03835010528564453,0.01597881317138672,-0.0287628173828125,0.07634639739990234,0.6860017776489258,0.7232046127319336,0.02447032928466797
116,474949344.0,-0.7553930282592773,-1.4126214981079102,9.773428916931152,-0.03728485107421875,0.025567054748535156,-0.025567054748535156,0.07634639739990234,0.6860017776489258,0.7232046127319336,0.02447032928466797
117,474949376.0,-0.6632137298583984,-1.5718412399291992,9.693221092224121,-0.0031957626342773438,0.0010652542114257812,-0.019174575805664062,0.07634639739990234,0.6860017776489258,0.7232046127319336,0.02447032928466797
118,474949376.0,-0.7194786071777344,-1.4593095779418945,9.791385650634766,-0.0031957626342773438,0.0010652542114257812,-0.019174575805664062,0.07634639739990234,0.6860017776489258,0.7232046127319336,0.02447032928466797
119,474949408.0,-0.6751852035522461,-1.4928302764892578,9.785400390625,-0.024501800537109375,-0.0063915252685546875,-0.02982807159423828,0.07634639739990234,0.6860017776489258,0.7232046127319336,0.02447032928466797
120,474949440.0,-0.6165256500244141,-1.6592321395874023,9.745894432067871,-0.009587287902832031,0.0021305084228515625,-0.034089088439941406,0.07634639739990234,0.6860017776489258,0.7232046127319336,0.02447032928466797
121,474949440.0,-0.6452569961547852,-1.5646581649780273,9.705191612243652,-0.009587287902832031,0.0021305084228515625,-0.034089088439941406,0.07634639739990234,0.6860017776489258,0.7232046127319336,0.02447032928466797
122,474949472.0,-0.6632137298583984,-1.5215606689453125,9.73512077331543,-0.009587287902832031,0.0021305084228515625,-0.034089088439941406,0.07634639739990234,0.6860017776489258,0.7232046127319336,0.02447032928466797
123,474949472.0,-0.6344823837280273,-1.5754318237304688,9.708783149719238,-0.009587287902832031,0.0021305084228515625,-0.034089088439941406,0.07634639739990234,0.6860017776489258,0.7232046127319336,0.02447032928466797
124,474949504.0,-0.6739873886108398,-1.5933895111083984,9.662095069885254,-0.009587287902832031,0.0021305084228515625,-0.034089088439941406,0.07634639739990234,0.6860017776489258,0.7232046127319336,0.02447032928466797
125,474949536.0,-0.8008842468261719,-1.6113462448120117,9.701601028442383,-0.009587287902832031,0.0021305084228515625,-0.034089088439941406,0.07634639739990234,0.6860017776489258,0.7232046127319336,0.02447032928466797
126,474949536.0,-0.7003250122070312,-1.580221176147461,9.762654304504395,-0.009587287902832031,0.0021305084228515625,-0.034089088439941406,0.07634639739990234,0.6860017776489258,0.7232046127319336,0.02447032928466797
127,474949568.0,-0.7422246932983398,-1.479660987854004,9.768640518188477,0.011717796325683594,0.0,0.0,0.07634639739990234,0.6860017776489258,0.7232046127319336,0.02447032928466797
128,474949600.0,-0.7494077682495117,-1.452127456665039,9.720754623413086,-0.01597881317138672,0.0,-0.013848304748535156,0.07634639739990234,0.6860017776489258,0.7232046127319336,0.02447032928466797
129,474949600.0,-0.799687385559082,-1.544306755065918,9.747092247009277,-0.01597881317138672,0.0,-0.013848304748535156,0.07634639739990234,0.6860017776489258,0.7232046127319336,0.02447032928466797
130,474949632.0,-0.7122964859008789,-1.5754318237304688,9.790188789367676,0.03941535949707031,-0.014913558959960938,-0.0021305084228515625,0.07634639739990234,0.6860017776489258,0.7232046127319336,0.02447032928466797
131,474949632.0,-0.7099018096923828,-1.5191669464111328,9.827300071716309,0.03941535949707031,-0.014913558959960938,-0.0021305084228515625,0.07634639739990234,0.6860017776489258,0.7232046127319336,0.02447032928466797
132,474949664.0,-0.6608190536499023,-1.4066362380981445,9.803357124328613,0.03941535949707031,-0.014913558959960938,-0.0021305084228515625,0.07634639739990234,0.6860017776489258,0.7232046127319336,0.02447032928466797
133,474949696.0,-0.835601806640625,-1.5275468826293945,9.772232055664062,0.03941535949707031,-0.014913558959960938,-0.0021305084228515625,0.07634639739990234,0.6860017776489258,0.7232046127319336,0.02447032928466797
134,474949696.0,-0.7781391143798828,-1.6149377822875977,9.85483455657959,0.03941535949707031,-0.014913558959960938,-0.0021305084228515625,0.07634639739990234,0.6860017776489258,0.7232046127319336,0.02447032928466797
135,474949728.0,-0.7266616821289062,-1.4736757278442383,9.832088470458984,0.03941535949707031,-0.014913558959960938,-0.0021305084228515625,0.07634639739990234,0.6860017776489258,0.7232046127319336,0.02447032928466797
136,474949760.0,-0.6572275161743164,-1.3683271408081055,9.745894432067871,-0.022370338439941406,0.02982807159423828,-0.0170440673828125,0.07634639739990234,0.6860017776489258,0.7232046127319336,0.02447032928466797
137,474949760.0,-0.5506830215454102,-1.4640989303588867,9.774625778198242,-0.022370338439941406,0.02982807159423828,-0.0170440673828125,0.07634639739990234,0.6860017776489258,0.7232046127319336,0.02447032928466797
138,474949792.0,-0.6895503997802734,-1.5275468826293945,9.757865905761719,0.025567054748535156,0.009587287902832031,0.0021305084228515625,0.07634639739990234,0.6860017776489258,0.7232046127319336,0.02447032928466797
139,474949792.0,-0.7326478958129883,-1.5574750900268555,9.767443656921387,0.025567054748535156,0.009587287902832031,0.0021305084228515625,0.07634639739990234,0.6860017776489258,0.7232046127319336,0.02447032928466797
140,474949824.0,-0.6440591812133789,-1.4018478393554688,9.790188789367676,0.02982807159423828,0.0031957626342773438,-0.0021305084228515625,0.07634639739990234,0.6860017776489258,0.7232046127319336,0.02447032928466797
141,474950048.0,-0.7913074493408203,-1.4281845092773438,9.604632377624512,0.02982807159423828,0.0031957626342773438,-0.0021305084228515625,0.07764148712158203,0.6891088485717773,0.7200107574462891,0.02602386474609375
142,474950048.0,-0.7913074493408203,-1.4281845092773438,9.604632377624512,0.02982807159423828,0.0031957626342773438,-0.0021305084228515625,0.07764148712158203,0.6891088485717773,0.7200107574462891,0.02602386474609375
143,474950080.0,-0.6632137298583984,-1.4054384231567383,9.61780071258545,0.02982807159423828,0.0031957626342773438,-0.0021305084228515625,0.07764148712158203,0.6891088485717773,0.7200107574462891,0.02602386474609375
144,474950080.0,-0.6847620010375977,-1.4365644454956055,9.583084106445312,0.02982807159423828,0.0031957626342773438,-0.0021305084228515625,0.07764148712158203,0.6891088485717773,0.7200107574462891,0.02602386474609375
145,474950080.0,-0.6632137298583984,-1.4054384231567383,9.61780071258545,0.02982807159423828,0.0031957626342773438,-0.0021305084228515625,0.07764148712158203,0.6891088485717773,0.7200107574462891,0.02602386474609375
146,474950080.0,-0.6847620010375977,-1.4365644454956055,9.583084106445312,0.02982807159423828,0.0031957626342773438,-0.0021305084228515625,0.07764148712158203,0.6891088485717773,0.7200107574462891,0.02602386474609375
147,474950112.0,-0.7254648208618164,-1.4808588027954102,9.59385871887207,0.02982807159423828,0.0031957626342773438,-0.0021305084228515625,0.07764148712158203,0.6891088485717773,0.7200107574462891,0.02602386474609375
148,474950112.0,-0.7278594970703125,-1.5754318237304688,9.513649940490723,0.02982807159423828,0.0031957626342773438,-0.0021305084228515625,0.07764148712158203,0.6891088485717773,0.7200107574462891,0.02602386474609375
149,474950112.0,-0.7254648208618164,-1.4808588027954102,9.59385871887207,0.02982807159423828,0.0031957626342773438,-0.0021305084228515625,0.07764148712158203,0.6891088485717773,0.7200107574462891,0.02602386474609375
150,474950112.0,-0.7278594970703125,-1.5754318237304688,9.513649940490723,0.02982807159423828,0.0031957626342773438,-0.0021305084228515625,0.07764148712158203,0.6891088485717773,0.7200107574462891,0.02602386474609375
151,474950144.0,-0.6584253311157227,-1.5622634887695312,9.641743659973145,-0.03515434265136719,0.0021305084228515625,-0.023435592651367188,0.07764148712158203,0.6891088485717773,0.7200107574462891,0.02602386474609375
152,474950144.0,-0.6584253311157227,-1.5622634887695312,9.641743659973145,-0.03515434265136719,0.0021305084228515625,-0.023435592651367188,0.07764148712158203,0.6891088485717773,0.7200107574462891,0.02602386474609375
153,474950176.0,-0.678776741027832,-1.5167722702026367,9.623786926269531,-0.03515434265136719,-0.019174575805664062,-0.01810932159423828,0.07764148712158203,0.6891088485717773,0.7200107574462891,0.02602386474609375
154,474950176.0,-0.7781391143798828,-1.5658550262451172,9.517241477966309,-0.03515434265136719,-0.019174575805664062,-0.01810932159423828,0.07764148712158203,0.6891088485717773,0.7200107574462891,0.02602386474609375
155,474950176.0,-0.678776741027832,-1.5167722702026367,9.623786926269531,-0.03515434265136719,-0.019174575805664062,-0.01810932159423828,0.07764148712158203,0.6891088485717773,0.7200107574462891,0.02602386474609375
156,474950176.0,-0.7781391143798828,-1.5658550262451172,9.517241477966309,-0.03515434265136719,-0.019174575805664062,-0.01810932159423828,0.07764148712158203,0.6891088485717773,0.7200107574462891,0.02602386474609375
157,474950208.0,-0.7948989868164062,-1.5514898300170898,9.720754623413086,0.0,-0.040480613708496094,-0.0031957626342773438,0.07764148712158203,0.6891088485717773,0.7200107574462891,0.02602386474609375
158,474950208.0,-0.7661676406860352,-1.5071954727172852,9.7638521194458,0.0,-0.040480613708496094,-0.0031957626342773438,0.07764148712158203,0.6891088485717773,0.7200107574462891,0.02602386474609375
159,474950208.0,-0.7948989868164062,-1.5514898300170898,9.720754623413086,0.0,-0.040480613708496094,-0.0031957626342773438,0.07764148712158203,0.6891088485717773,0.7200107574462891,0.02602386474609375
160,474950208.0,-0.7661676406860352,-1.5071954727172852,9.7638521194458,0.0,-0.040480613708496094,-0.0031957626342773438,0.07764148712158203,0.6891088485717773,0.7200107574462891,0.02602386474609375
161,474950336.0,-0.7661676406860352,-1.3814964294433594,9.822511672973633,0.04687213897705078,-0.019174575805664062,0.019174575805664062,0.07764148712158203,0.6891088485717773,0.7200107574462891,0.02602386474609375
162,474950336.0,-0.7230701446533203,-1.3467788696289062,9.881171226501465,0.04687213897705078,-0.019174575805664062,0.019174575805664062,0.07764148712158203,0.6891088485717773,0.7200107574462891,0.02602386474609375
163,474950368.0,-0.7685613632202148,-1.4030447006225586,9.851243019104004,0.04687213897705078,-0.019174575805664062,0.019174575805664062,0.07764148712158203,0.6891088485717773,0.7200107574462891,0.02602386474609375
164,474950368.0,-0.7553930282592773,-1.3826932907104492,9.866806030273438,0.04687213897705078,-0.019174575805664062,0.019174575805664062,0.07764148712158203,0.6891088485717773,0.7200107574462891,0.02602386474609375
165,474950368.0,-0.7721529006958008,-1.4066362380981445,9.863214492797852,0.04687213897705078,-0.019174575805664062,0.019174575805664062,0.07764148712158203,0.6891088485717773,0.7200107574462891,0.02602386474609375
166,474950400.0,-0.7122964859008789,-1.423396110534668,9.868002891540527,0.04687213897705078,-0.019174575805664062,0.019174575805664062,0.07764148712158203,0.6891088485717773,0.7200107574462891,0.02602386474609375
167,474950400.0,-0.6739873886108398,-1.3659334182739258,9.783005714416504,0.04687213897705078,-0.019174575805664062,0.019174575805664062,0.07764148712158203,0.6891088485717773,0.7200107574462891,0.02602386474609375
168,474950400.0,-0.6883535385131836,-1.4210014343261719,9.812934875488281,0.04687213897705078,-0.019174575805664062,0.019174575805664062,0.07764148712158203,0.6891088485717773,0.7200107574462891,0.02602386474609375
169,474950400.0,-0.6847620010375977,-1.3156538009643555,9.755472183227539,0.04687213897705078,-0.019174575805664062,0.019174575805664062,0.07764148712158203,0.6891088485717773,0.7200107574462891,0.02602386474609375
170,474950432.0,-0.7027187347412109,-1.3826932907104492,9.754274368286133,0.04687213897705078,-0.019174575805664062,0.019174575805664062,0.07764148712158203,0.6891088485717773,0.7200107574462891,0.02602386474609375
171,474950432.0,-0.7039165496826172,-1.4676895141601562,9.750682830810547,0.04687213897705078,-0.019174575805664062,0.019174575805664062,0.07764148712158203,0.6891088485717773,0.7200107574462891,0.02602386474609375
172,474950432.0,-0.7158880233764648,-1.4748725891113281,9.739909172058105,0.04687213897705078,-0.019174575805664062,0.019174575805664062,0.07764148712158203,0.6891088485717773,0.7200107574462891,0.02602386474609375
173,474950464.0,-0.6799736022949219,-1.476069450378418,9.753077507019043,0.0,0.033023834228515625,-0.024501800537109375,0.07764148712158203,0.6891088485717773,0.7200107574462891,0.02602386474609375
174,474950560.0,-0.6548337936401367,-1.446141242980957,9.705191612243652,-0.033023834228515625,0.052199363708496094,-0.03621959686279297,0.07764148712158203,0.6891088485717773,0.7200107574462891,0.02602386474609375
175,474950560.0,-0.773350715637207,-1.4593095779418945,9.66808032989502,-0.033023834228515625,0.052199363708496094,-0.03621959686279297,0.07764148712158203,0.6891088485717773,0.7200107574462891,0.02602386474609375
176,474950560.0,-0.6548337936401367,-1.446141242980957,9.705191612243652,-0.033023834228515625,0.052199363708496094,-0.03621959686279297,0.07764148712158203,0.6891088485717773,0.7200107574462891,0.02602386474609375
177,474950560.0,-0.773350715637207,-1.4593095779418945,9.66808032989502,-0.033023834228515625,0.052199363708496094,-0.03621959686279297,0.07764148712158203,0.6891088485717773,0.7200107574462891,0.02602386474609375
178,474950592.0,-0.7589845657348633,-1.36114501953125,9.809343338012695,-0.033023834228515625,0.052199363708496094,-0.03621959686279297,0.07764148712158203,0.6891088485717773,0.7200107574462891,0.02602386474609375
179,474950592.0,-0.7589845657348633,-1.36114501953125,9.809343338012695,-0.033023834228515625,0.052199363708496094,-0.03621959686279297,0.07764148712158203,0.6891088485717773,0.7200107574462891,0.02602386474609375
180,474950624.0,-0.705113410949707,-1.2186851501464844,9.797371864318848,-0.033023834228515625,0.052199363708496094,-0.03621959686279297,0.07764148712158203,0.6891088485717773,0.7200107574462891,0.02602386474609375
181,474950624.0,-0.7613792419433594,-1.2809362411499023,9.605829238891602,-0.033023834228515625,0.052199363708496094,-0.03621959686279297,0.07764148712158203,0.6891088485717773,0.7200107574462891,0.02602386474609375
182,474950624.0,-0.705113410949707,-1.2186851501464844,9.797371864318848,-0.033023834228515625,0.052199363708496094,-0.03621959686279297,0.07764148712158203,0.6891088485717773,0.7200107574462891,0.02602386474609375
183,474950624.0,-0.7613792419433594,-1.2809362411499023,9.605829238891602,-0.033023834228515625,0.052199363708496094,-0.03621959686279297,0.07764148712158203,0.6891088485717773,0.7200107574462891,0.02602386474609375
184,474950656.0,-0.835601806640625,-1.1827716827392578,9.662095069885254,-0.033023834228515625,0.052199363708496094,-0.03621959686279297,0.08217334747314453,0.6935110092163086,0.7152633666992188,0.025031089782714844
185,474950656.0,-0.835601806640625,-1.1827716827392578,9.662095069885254,-0.033023834228515625,0.052199363708496094,-0.03621959686279297,0.08217334747314453,0.6935110092163086,0.7152633666992188,0.025031089782714844
186,474950784.0,-0.8367986679077148,-1.4700841903686523,9.702797889709473,-0.07989692687988281,-0.020239830017089844,-0.25673580169677734,0.084503173828125,0.6990785598754883,0.7095232009887695,0.027016639709472656
187,474950784.0,-0.7027187347412109,-2.000415802001953,9.408302307128906,-0.07989692687988281,-0.020239830017089844,-0.25673580169677734,0.084503173828125,0.6990785598754883,0.7095232009887695,0.027016639709472656
188,474950816.0,-0.7170848846435547,-2.7629928588867188,8.984515190124512,-0.07989692687988281,-0.020239830017089844,-0.25673580169677734,0.084503173828125,0.6990785598754883,0.7095232009887695,0.027016639709472656
189,474950848.0,-0.5925827026367188,-2.6708126068115234,9.172466278076172,-0.07989692687988281,-0.020239830017089844,-0.25673580169677734,0.084503173828125,0.6990785598754883,0.7095232009887695,0.027016639709472656
190,474950848.0,-0.4752626419067383,-2.2470264434814453,9.463370323181152,-0.07989692687988281,-0.020239830017089844,-0.25673580169677734,0.084503173828125,0.6990785598754883,0.7095232009887695,0.027016639709472656
191,474950880.0,-0.45371437072753906,-3.3783206939697266,8.930644035339355,-0.2950868606567383,-0.06391716003417969,-0.23756027221679688,0.084503173828125,0.6990785598754883,0.7095232009887695,0.027016639709472656
192,474950880.0,-0.4728689193725586,-3.6644372940063477,8.402706146240234,-0.2950868606567383,-0.06391716003417969,-0.23756027221679688,0.084503173828125,0.6990785598754883,0.7095232009887695,0.027016639709472656
193,474950912.0,-0.173583984375,-3.8871049880981445,8.170461654663086,-0.24501800537109375,-0.16512012481689453,-0.16938209533691406,0.084503173828125,0.6990785598754883,0.7095232009887695,0.027016639709472656
194,474950944.0,0.1053476333618164,-4.993259429931641,7.4449968338012695,-0.20560169219970703,-0.46446895599365234,0.27910709381103516,0.084503173828125,0.6990785598754883,0.7095232009887695,0.027016639709472656
195,474950944.0,0.23583602905273438,-5.651684761047363,6.713545799255371,-0.20560169219970703,-0.46446895599365234,0.27910709381103516,0.084503173828125,0.6990785598754883,0.7095232009887695,0.027016639709472656
196,474950976.0,-0.12689590454101562,-6.055120468139648,6.549537658691406,-0.20560169219970703,-0.46446895599365234,0.27910709381103516,0.08894920349121094,0.7043437957763672,0.7016677856445312,0.06089591979980469
197,474950976.0,-0.14126205444335938,-6.280181884765625,7.1349382400512695,-0.20560169219970703,-0.46446895599365234,0.27910709381103516,0.08894920349121094,0.7043437957763672,0.7016677856445312,0.06089591979980469
198,474951008.0,0.0682363510131836,-4.503630638122559,9.040781021118164,-0.20560169219970703,-0.46446895599365234,0.27910709381103516,0.06275177001953125,0.6831531524658203,0.7248439788818359,0.06275177001953125
199,474951040.0,0.36153507232666016,-4.484476089477539,10.108627319335938,-0.20560169219970703,-0.46446895599365234,0.27910709381103516,0.04807758331298828,0.6665802001953125,0.7413311004638672,0.06154346466064453
200,474951040.0,0.31963539123535156,-5.554717063903809,10.3839693069458,-0.20560169219970703,-0.46446895599365234,0.27910709381103516,0.04807758331298828,0.6665802001953125,0.7413311004638672,0.06154346466064453
201,474951072.0,0.25139808654785156,-4.01519775390625,12.045595169067383,1.2815513610839844,-1.1814136505126953,3.066988945007324,0.04807758331298828,0.6665802001953125,0.7413311004638672,0.06154346466064453
202,474951104.0,0.46927738189697266,-2.9497461318969727,13.642577171325684,2.081589698791504,-0.6487655639648438,3.690188407897949,0.04807758331298828,0.6665802001953125,0.7413311004638672,0.06154346466064453
203,474951104.0,0.15562725067138672,-3.984072685241699,13.823344230651855,2.081589698791504,-0.6487655639648438,3.690188407897949,0.04807758331298828,0.6665802001953125,0.7413311004638672,0.06154346466064453
204,474951136.0,0.483642578125,-1.945347785949707,13.575536727905273,2.4874677658081055,-0.37178802490234375,3.7040367126464844,0.04807758331298828,0.6665802001953125,0.7413311004638672,0.06154346466064453
205,474951168.0,1.5850095748901367,1.752608299255371,14.991750717163086,2.5354061126708984,-0.009587287902832031,3.38870906829834,0.04807758331298828,0.6665802001953125,0.7413311004638672,0.06154346466064453
206,474951168.0,2.2745609283447266,4.483279228210449,16.51091766357422,2.5354061126708984,-0.009587287902832031,3.38870906829834,0.04807758331298828,0.6665802001953125,0.7413311004638672,0.06154346466064453
207,474951200.0,2.563070297241211,4.780168533325195,15.553208351135254,2.5354061126708984,-0.009587287902832031,3.38870906829834,0.04807758331298828,0.6665802001953125,0.7413311004638672,0.06154346466064453
208,474951200.0,2.2027320861816406,5.648093223571777,14.286636352539062,2.5354061126708984,-0.009587287902832031,3.38870906829834,0.04807758331298828,0.6665802001953125,0.7413311004638672,0.06154346466064453
209,474951232.0,2.1740007400512695,8.102225303649902,13.86883544921875,2.5354061126708984,-0.009587287902832031,3.38870906829834,0.04807758331298828,0.6665802001953125,0.7413311004638672,0.06154346466064453
210,474951264.0,2.2613916397094727,8.274613380432129,12.848875045776367,-0.15979385375976562,3.2779178619384766,0.43570613861083984,0.04807758331298828,0.6665802001953125,0.7413311004638672,0.06154346466064453
211,474951264.0,1.7047233581542969,6.970930099487305,11.83609676361084,-0.15979385375976562,3.2779178619384766,0.43570613861083984,0.04807758331298828,0.6665802001953125,0.7413311004638672,0.06154346466064453
212,474951296.0,1.5275468826293945,6.787768363952637,11.078309059143066,-0.6445045471191406,3.4419736862182617,-0.7734050750732422,0.04807758331298828,0.6665802001953125,0.7413311004638672,0.06154346466064453
213,474951296.0,1.828028678894043,6.7985429763793945,10.582694053649902,-0.6445045471191406,3.4419736862182617,-0.7734050750732422,0.04807758331298828,0.6665802001953125,0.7413311004638672,0.06154346466064453
214,474951328.0,1.2498111724853516,6.210747718811035,8.97733211517334,-1.1451940536499023,3.4760637283325195,-1.034402847290039,0.04807758331298828,0.6665802001953125,0.7413311004638672,0.06154346466064453
215,474951360.0,1.0020036697387695,5.812101364135742,6.797345161437988,0.1896219253540039,2.918912887573242,-1.689560890197754,0.04807758331298828,0.6665802001953125,0.7413311004638672,0.06154346466064453
216,474951360.0,0.6021595001220703,6.662069320678711,6.666857719421387,0.1896219253540039,2.918912887573242,-1.689560890197754,0.04807758331298828,0.6665802001953125,0.7413311004638672,0.06154346466064453
217,474951360.0,0.6021595001220703,6.662069320678711,6.666857719421387,0.1896219253540039,2.918912887573242,-1.689560890197754,0.04807758331298828,0.6665802001953125,0.7413311004638672,0.06154346466064453
218,474951392.0,0.08020782470703125,5.039947509765625,6.123356819152832,0.13635730743408203,2.693070411682129,-2.262690544128418,0.04807758331298828,0.6665802001953125,0.7413311004638672,0.06154346466064453
219,474951392.0,0.08020782470703125,5.039947509765625,6.123356819152832,0.13635730743408203,2.693070411682129,-2.262690544128418,0.04807758331298828,0.6665802001953125,0.7413311004638672,0.06154346466064453
220,474951424.0,-0.4441375732421875,3.621339797973633,5.011216163635254,-0.12783527374267578,1.9175338745117188,-2.8230361938476562,0.04807758331298828,0.6665802001953125,0.7413311004638672,0.06154346466064453
221,474951424.0,-1.3156538009643555,2.916226387023926,3.621339797973633,-0.12783527374267578,1.9175338745117188,-2.8230361938476562,0.04807758331298828,0.6665802001953125,0.7413311004638672,0.06154346466064453
222,474951424.0,-0.4441375732421875,3.621339797973633,5.011216163635254,-0.12783527374267578,1.9175338745117188,-2.8230361938476562,0.04807758331298828,0.6665802001953125,0.7413311004638672,0.06154346466064453
223,474951424.0,-1.3156538009643555,2.916226387023926,3.621339797973633,-0.12783527374267578,1.9175338745117188,-2.8230361938476562,0.04807758331298828,0.6665802001953125,0.7413311004638672,0.06154346466064453
224,474951456.0,-1.789719581604004,2.474482536315918,3.1125564575195312,-0.16405487060546875,1.0269460678100586,-3.2683305740356445,0.04807758331298828,0.6665802001953125,0.7413311004638672,0.06154346466064453
225,474951456.0,-1.789719581604004,2.474482536315918,3.1125564575195312,-0.16405487060546875,1.0269460678100586,-3.2683305740356445,0.04807758331298828,0.6665802001953125,0.7413311004638672,0.06154346466064453
226,474951584.0,-1.8962650299072266,-5.439791679382324,4.0642805099487305,0.36539649963378906,-1.5116558074951172,-3.0882949829101562,0.04807758331298828,0.6665802001953125,0.7413311004638672,0.06154346466064453
227,474951584.0,-1.701131820678711,-7.150501251220703,3.4716978073120117,0.36539649963378906,-1.5116558074951172,-3.0882949829101562,0.04807758331298828,0.6665802001953125,0.7413311004638672,0.06154346466064453
228,474951584.0,-1.8962650299072266,-5.439791679382324,4.0642805099487305,0.36539649963378906,-1.5116558074951172,-3.0882949829101562,0.04807758331298828,0.6665802001953125,0.7413311004638672,0.06154346466064453
229,474951584.0,-1.701131820678711,-7.150501251220703,3.4716978073120117,0.36539649963378906,-1.5116558074951172,-3.0882949829101562,0.04807758331298828,0.6665802001953125,0.7413311004638672,0.06154346466064453
230,474951616.0,-1.1013660430908203,-8.747482299804688,4.3707475662231445,0.44103240966796875,-2.0624141693115234,-2.3564367294311523,0.04807758331298828,0.6665802001953125,0.7413311004638672,0.06154346466064453
231,474951616.0,-1.113337516784668,-9.37478256225586,5.616968154907227,0.44103240966796875,-2.0624141693115234,-2.3564367294311523,0.04807758331298828,0.6665802001953125,0.7413311004638672,0.06154346466064453
232,474951616.0,-1.1013660430908203,-8.747482299804688,4.3707475662231445,0.44103240966796875,-2.0624141693115234,-2.3564367294311523,0.04807758331298828,0.6665802001953125,0.7413311004638672,0.06154346466064453
233,474951616.0,-1.113337516784668,-9.37478256225586,5.616968154907227,0.44103240966796875,-2.0624141693115234,-2.3564367294311523,0.04807758331298828,0.6665802001953125,0.7413311004638672,0.06154346466064453
234,474951648.0,-1.9573192596435547,-8.915081024169922,7.188809394836426,0.5859127044677734,-2.213686943054199,-1.8770523071289062,0.04807758331298828,0.6665802001953125,0.7413311004638672,0.06154346466064453
235,474951648.0,-1.9573192596435547,-8.915081024169922,7.188809394836426,0.5859127044677734,-2.213686943054199,-1.8770523071289062,0.04807758331298828,0.6665802001953125,0.7413311004638672,0.06154346466064453
236,474951680.0,-2.53433895111084,-7.367182731628418,6.931425094604492,0.5859127044677734,-2.213686943054199,-1.8770523071289062,0.04807758331298828,0.6665802001953125,0.7413311004638672,0.06154346466064453
237,474951680.0,-2.196746826171875,-9.69681167602539,6.878750801086426,0.5859127044677734,-2.213686943054199,-1.8770523071289062,0.04807758331298828,0.6665802001953125,0.7413311004638672,0.06154346466064453
238,474951712.0,-1.8759136199951172,-10.374391555786133,7.333662986755371,0.5859127044677734,-2.213686943054199,-1.8770523071289062,0.04807758331298828,0.6665802001953125,0.7413311004638672,0.06154346466064453
239,474951744.0,-1.476069450378418,-7.8759660720825195,7.699987411499023,0.5859127044677734,-2.213686943054199,-1.8770523071289062,0.1539020538330078,0.7416324615478516,0.6510000228881836,0.0495452880859375
240,474951744.0,-1.1300973892211914,-8.297358512878418,8.290175437927246,0.5859127044677734,-2.213686943054199,-1.8770523071289062,0.1539020538330078,0.7416324615478516,0.6510000228881836,0.0495452880859375
241,474951872.0,-0.4752626419067383,1.6664142608642578,15.291034698486328,1.008835792541504,-1.7098007202148438,1.6831684112548828,0.11186599731445312,0.6921300888061523,0.7060270309448242,0.1001272201538086
242,474951904.0,1.3407936096191406,2.256603240966797,14.81816577911377,1.008835792541504,-1.7098007202148438,1.6831684112548828,0.11186599731445312,0.6921300888061523,0.7060270309448242,0.1001272201538086
243,474951904.0,0.20351314544677734,-0.946934700012207,13.162525177001953,1.008835792541504,-1.7098007202148438,1.6831684112548828,0.11186599731445312,0.6921300888061523,0.7060270309448242,0.1001272201538086
244,474951936.0,-0.05865955352783203,-0.9684839248657227,12.939857482910156,1.008835792541504,-1.7098007202148438,1.6831684112548828,0.11186599731445312,0.6921300888061523,0.7060270309448242,0.1001272201538086
245,474951936.0,1.0032005310058594,1.4892387390136719,13.339700698852539,1.008835792541504,-1.7098007202148438,1.6831684112548828,0.11186599731445312,0.6921300888061523,0.7060270309448242,0.1001272201538086
246,474951968.0,1.3791017532348633,1.7921142578125,12.832115173339844,0.18216514587402344,0.09907245635986328,0.6711368560791016,0.11186599731445312,0.6921300888061523,0.7060270309448242,0.1001272201538086
247,474952000.0,0.8691215515136719,-0.6320877075195312,11.012466430664062,0.3217191696166992,0.31958866119384766,0.31319713592529297,0.11186599731445312,0.6921300888061523,0.7060270309448242,0.1001272201538086
248,474952000.0,0.4884319305419922,-0.8715152740478516,10.140950202941895,0.3217191696166992,0.31958866119384766,0.31319713592529297,0.11186599731445312,0.6921300888061523,0.7060270309448242,0.1001272201538086
249,474952032.0,0.8822898864746094,-0.40343475341796875,10.26545238494873,0.3813762664794922,0.25673580169677734,0.17044734954833984,0.11186599731445312,0.6921300888061523,0.7060270309448242,0.1001272201538086
250,474952064.0,0.8631353378295898,-0.3016777038574219,9.95659065246582,-0.17044734954833984,0.29189109802246094,0.05539512634277344,0.11186599731445312,0.6921300888061523,0.7060270309448242,0.1001272201538086
251,474952064.0,0.6368770599365234,-0.8487701416015625,9.40351390838623,-0.17044734954833984,0.29189109802246094,0.05539512634277344,0.11186599731445312,0.6921300888061523,0.7060270309448242,0.1001272201538086
252,474952096.0,0.6201162338256836,-1.8016910552978516,8.691216468811035,0.04793834686279297,0.15766334533691406,-0.005326271057128906,0.11186599731445312,0.6921300888061523,0.7060270309448242,0.1001272201538086
253,474952096.0,0.4393491744995117,-1.939361572265625,8.636148452758789,0.04793834686279297,0.15766334533691406,-0.005326271057128906,0.11186599731445312,0.6921300888061523,0.7060270309448242,0.1001272201538086
254,474952128.0,0.33280372619628906,-1.442549705505371,9.153311729431152,0.1672515869140625,0.10439872741699219,-0.020239830017089844,0.11186599731445312,0.6921300888061523,0.7060270309448242,0.1001272201538086
255,474952160.0,0.2813272476196289,-0.8475723266601562,9.464567184448242,0.05539512634277344,0.09481048583984375,-0.07350540161132812,0.11186599731445312,0.6921300888061523,0.7060270309448242,0.1001272201538086
256,474952160.0,0.1891469955444336,-1.3383989334106445,9.443018913269043,0.05539512634277344,0.09481048583984375,-0.07350540161132812,0.11186599731445312,0.6921300888061523,0.7060270309448242,0.1001272201538086
257,474952192.0,0.01795673370361328,-2.1548471450805664,9.049160957336426,0.05539512634277344,0.09481048583984375,-0.07350540161132812,0.11186599731445312,0.6921300888061523,0.7060270309448242,0.1001272201538086
258,474952192.0,-0.11013603210449219,-2.097384452819824,9.06592082977295,0.05539512634277344,0.09481048583984375,-0.07350540161132812,0.11186599731445312,0.6921300888061523,0.7060270309448242,0.1001272201538086
259,474952224.0,0.05626487731933594,-1.756199836730957,9.332881927490234,0.05539512634277344,0.09481048583984375,-0.07350540161132812,0.11186599731445312,0.6921300888061523,0.7060270309448242,0.1001272201538086
260,474952256.0,-0.046688079833984375,-1.8615484237670898,9.42506217956543,-0.19388389587402344,0.0862884521484375,-0.10120296478271484,0.07449054718017578,0.6318807601928711,0.7678298950195312,0.07526779174804688
261,474952384.0,-0.18196487426757812,-2.1991405487060547,9.470553398132324,-0.11398601531982422,0.023435592651367188,-0.10865974426269531,0.08566856384277344,0.6342544555664062,0.7637300491333008,0.08454704284667969
262,474952384.0,-0.15443038940429688,-2.2398433685302734,9.57470417022705,-0.11398601531982422,0.023435592651367188,-0.10865974426269531,0.08566856384277344,0.6342544555664062,0.7637300491333008,0.08454704284667969
263,474952416.0,-0.20351314544677734,-2.506805419921875,9.52681827545166,-0.11398601531982422,0.023435592651367188,-0.10865974426269531,0.08566856384277344,0.6342544555664062,0.7637300491333008,0.08454704284667969
264,474952416.0,-0.1975269317626953,-2.5307483673095703,9.513649940490723,-0.11398601531982422,0.023435592651367188,-0.10865974426269531,0.08566856384277344,0.6342544555664062,0.7637300491333008,0.08454704284667969
265,474952448.0,-0.1915416717529297,-2.2027320861816406,9.674066543579102,-0.11398601531982422,0.023435592651367188,-0.10865974426269531,0.08566856384277344,0.6342544555664062,0.7637300491333008,0.08454704284667969
266,474952480.0,-0.2729473114013672,-2.281743049621582,9.83568000793457,-0.04367637634277344,-0.05539512634277344,-0.004261016845703125,0.08566856384277344,0.6342544555664062,0.7637300491333008,0.08454704284667969
267,474952480.0,-0.2765378952026367,-2.4361743927001953,9.799765586853027,-0.04367637634277344,-0.05539512634277344,-0.004261016845703125,0.08566856384277344,0.6342544555664062,0.7637300491333008,0.08454704284667969
268,474952512.0,-0.25139808654785156,-2.318854331970215,9.707586288452148,0.0862884521484375,-0.054329872131347656,0.0010652542114257812,0.08566856384277344,0.6342544555664062,0.7637300491333008,0.08454704284667969
269,474952512.0,-0.29808712005615234,-2.128509521484375,9.767443656921387,0.0862884521484375,-0.054329872131347656,0.0010652542114257812,0.08566856384277344,0.6342544555664062,0.7637300491333008,0.08454704284667969
270,474952544.0,-0.19273853302001953,-1.9369678497314453,9.895536422729492,0.054329872131347656,-0.04474163055419922,-0.0010652542114257812,0.08471965789794922,0.6368446350097656,0.7611408233642578,0.08920764923095703
271,474952672.0,-0.18555545806884766,-2.405048370361328,9.603435516357422,0.054329872131347656,-0.04474163055419922,-0.0010652542114257812,0.08683395385742188,0.6378374099731445,0.7600612640380859,0.08925056457519531
272,474952672.0,-0.21907520294189453,-2.372725486755371,9.502876281738281,0.054329872131347656,-0.04474163055419922,-0.0010652542114257812,0.08683395385742188,0.6378374099731445,0.7600612640380859,0.08925056457519531
273,474952672.0,-0.18555545806884766,-2.405048370361328,9.603435516357422,0.054329872131347656,-0.04474163055419922,-0.0010652542114257812,0.08683395385742188,0.6378374099731445,0.7600612640380859,0.08925056457519531
274,474952672.0,-0.21907520294189453,-2.372725486755371,9.502876281738281,0.054329872131347656,-0.04474163055419922,-0.0010652542114257812,0.08683395385742188,0.6378374099731445,0.7600612640380859,0.08925056457519531
275,474952704.0,-0.20590686798095703,-2.2326602935791016,9.443018913269043,0.054329872131347656,-0.04474163055419922,-0.0010652542114257812,0.08683395385742188,0.6378374099731445,0.7600612640380859,0.08925056457519531
276,474952704.0,-0.20590686798095703,-2.2326602935791016,9.443018913269043,0.054329872131347656,-0.04474163055419922,-0.0010652542114257812,0.08683395385742188,0.6378374099731445,0.7600612640380859,0.08925056457519531
277,474952736.0,-0.14844417572021484,-2.164423942565918,9.458581924438477,0.054329872131347656,-0.04474163055419922,-0.0010652542114257812,0.08683395385742188,0.6378374099731445,0.7600612640380859,0.08925056457519531
278,474952736.0,-0.12689590454101562,-2.372725486755371,9.384359359741211,0.054329872131347656,-0.04474163055419922,-0.0010652542114257812,0.08683395385742188,0.6378374099731445,0.7600612640380859,0.08925056457519531
279,474952736.0,-0.14844417572021484,-2.164423942565918,9.458581924438477,0.054329872131347656,-0.04474163055419922,-0.0010652542114257812,0.08683395385742188,0.6378374099731445,0.7600612640380859,0.08925056457519531
280,474952736.0,-0.12689590454101562,-2.372725486755371,9.384359359741211,0.054329872131347656,-0.04474163055419922,-0.0010652542114257812,0.08683395385742188,0.6378374099731445,0.7600612640380859,0.08925056457519531
281,474952864.0,-0.11372756958007812,-2.22188663482666,9.609420776367188,-0.041545867919921875,-0.03515434265136719,-0.026632308959960938,0.08683395385742188,0.6378374099731445,0.7600612640380859,0.08925056457519531
282,474952896.0,-0.11133289337158203,-2.266180992126465,9.700403213500977,-0.041545867919921875,-0.03515434265136719,-0.026632308959960938,0.08683395385742188,0.6378374099731445,0.7600612640380859,0.08925056457519531
283,474952896.0,-0.14245891571044922,-2.417019844055176,9.730332374572754,-0.041545867919921875,-0.03515434265136719,-0.026632308959960938,0.08683395385742188,0.6378374099731445,0.7600612640380859,0.08925056457519531
284,474952928.0,-0.17478179931640625,-2.563070297241211,9.498086929321289,-0.041545867919921875,-0.03515434265136719,-0.026632308959960938,0.08683395385742188,0.6378374099731445,0.7600612640380859,0.08925056457519531
285,474952960.0,-0.3100576400756836,-2.4661026000976562,9.61780071258545,0.04367637634277344,-0.00852203369140625,-0.00852203369140625,0.08683395385742188,0.6378374099731445,0.7600612640380859,0.08925056457519531
286,474952960.0,-0.2789325714111328,-2.2949113845825195,9.711177825927734,0.04367637634277344,-0.00852203369140625,-0.00852203369140625,0.08683395385742188,0.6378374099731445,0.7600612640380859,0.08925056457519531
287,474952960.0,-0.2789325714111328,-2.2949113845825195,9.711177825927734,0.04367637634277344,-0.00852203369140625,-0.00852203369140625,0.08683395385742188,0.6378374099731445,0.7600612640380859,0.08925056457519531
288,474952992.0,-0.20351314544677734,-2.5127906799316406,9.586675643920898,0.020239830017089844,0.021305084228515625,-0.012783050537109375,0.08683395385742188,0.6378374099731445,0.7600612640380859,0.08925056457519531
289,474952992.0,-0.20710468292236328,-2.499622344970703,9.417879104614258,0.020239830017089844,0.021305084228515625,-0.012783050537109375,0.08683395385742188,0.6378374099731445,0.7600612640380859,0.08925056457519531
290,474952992.0,-0.20351314544677734,-2.5127906799316406,9.586675643920898,0.020239830017089844,0.021305084228515625,-0.012783050537109375,0.08683395385742188,0.6378374099731445,0.7600612640380859,0.08925056457519531
291,474952992.0,-0.20710468292236328,-2.499622344970703,9.417879104614258,0.020239830017089844,0.021305084228515625,-0.012783050537109375,0.08683395385742188,0.6378374099731445,0.7600612640380859,0.08925056457519531
292,474953024.0,-0.32442378997802734,-2.4804677963256836,9.428653717041016,0.061786651611328125,0.012783050537109375,0.005326271057128906,0.08683395385742188,0.6378374099731445,0.7600612640380859,0.08925056457519531
293,474953024.0,-0.32442378997802734,-2.4804677963256836,9.428653717041016,0.061786651611328125,0.012783050537109375,0.005326271057128906,0.08683395385742188,0.6378374099731445,0.7600612640380859,0.08925056457519531
294,474953056.0,-0.2789325714111328,-2.10336971282959,9.654911994934082,0.0745706558227539,-0.02769756317138672,-0.0021305084228515625,0.08683395385742188,0.6378374099731445,0.7600612640380859,0.08925056457519531
295,474953056.0,-0.2789325714111328,-2.10336971282959,9.654911994934082,0.0745706558227539,-0.02769756317138672,-0.0021305084228515625,0.08683395385742188,0.6378374099731445,0.7600612640380859,0.08925056457519531
296,474953056.0,-0.16640186309814453,-1.9884443283081055,9.833285331726074,0.0745706558227539,-0.02769756317138672,-0.0021305084228515625,0.08683395385742188,0.6378374099731445,0.7600612640380859,0.08925056457519531
297,474953088.0,-0.2861156463623047,-1.9932336807250977,9.871594429016113,0.0745706558227539,-0.02769756317138672,-0.0021305084228515625,0.08683395385742188,0.6378374099731445,0.7600612640380859,0.08925056457519531
298,474953088.0,-0.215484619140625,-1.9118280410766602,10.030813217163086,0.0745706558227539,-0.02769756317138672,-0.0021305084228515625,0.08683395385742188,0.6378374099731445,0.7600612640380859,0.08925056457519531
299,474953120.0,-0.1448535919189453,-2.037527084350586,10.102642059326172,0.0745706558227539,-0.02769756317138672,-0.0021305084228515625,0.08683395385742188,0.6378374099731445,0.7600612640380859,0.08925056457519531
300,474953152.0,-0.20949840545654297,-2.10097599029541,10.139753341674805,0.0745706558227539,-0.02769756317138672,-0.0021305084228515625,0.08683395385742188,0.6378374099731445,0.7600612640380859,0.08925056457519531
301,474953280.0,-0.2394266128540039,-2.349980354309082,8.984515190124512,0.196014404296875,0.12783527374267578,0.005326271057128906,0.08683395385742188,0.6378374099731445,0.7600612640380859,0.08925056457519531
302,474953280.0,-0.2789325714111328,-1.762186050415039,9.051554679870605,0.196014404296875,0.12783527374267578,0.005326271057128906,0.08683395385742188,0.6378374099731445,0.7600612640380859,0.08925056457519531
303,474953312.0,-0.30646705627441406,-2.096186637878418,9.061132431030273,0.07350540161132812,0.09054946899414062,-0.06711292266845703,0.08683395385742188,0.6378374099731445,0.7600612640380859,0.08925056457519531
304,474953312.0,-0.21189308166503906,-2.594196319580078,8.947403907775879,0.07350540161132812,0.09054946899414062,-0.06711292266845703,0.08683395385742188,0.6378374099731445,0.7600612640380859,0.08925056457519531
305,474953344.0,-0.3435783386230469,-2.3667402267456055,9.000078201293945,0.12677001953125,0.03941535949707031,-0.08309268951416016,0.08683395385742188,0.6378374099731445,0.7600612640380859,0.08925056457519531
306,474953376.0,-0.4525175094604492,-2.2027320861816406,8.97374153137207,0.15766334533691406,-0.03835010528564453,-0.11185550689697266,0.08683395385742188,0.6378374099731445,0.7600612640380859,0.08925056457519531
307,474953376.0,-0.22146987915039062,-2.4577226638793945,8.773818969726562,0.15766334533691406,-0.03835010528564453,-0.11185550689697266,0.08683395385742188,0.6378374099731445,0.7600612640380859,0.08925056457519531
308,474953376.0,-0.4525175094604492,-2.2027320861816406,8.97374153137207,0.15766334533691406,-0.03835010528564453,-0.11185550689697266,0.08683395385742188,0.6378374099731445,0.7600612640380859,0.08925056457519531
309,474953376.0,-0.22146987915039062,-2.4577226638793945,8.773818969726562,0.15766334533691406,-0.03835010528564453,-0.11185550689697266,0.08683395385742188,0.6378374099731445,0.7600612640380859,0.08925056457519531
310,474953408.0,-0.45850276947021484,-2.563070297241211,9.002472877502441,-0.1779041290283203,-0.04900360107421875,-0.1448802947998047,0.08683395385742188,0.6378374099731445,0.7600612640380859,0.08925056457519531
311,474953408.0,-0.4285745620727539,-2.846792221069336,9.220351219177246,-0.1779041290283203,-0.04900360107421875,-0.1448802947998047,0.08683395385742188,0.6378374099731445,0.7600612640380859,0.08925056457519531
312,474953408.0,-0.45850276947021484,-2.563070297241211,9.002472877502441,-0.1779041290283203,-0.04900360107421875,-0.1448802947998047,0.08683395385742188,0.6378374099731445,0.7600612640380859,0.08925056457519531
313,474953408.0,-0.4285745620727539,-2.846792221069336,9.220351219177246,-0.1779041290283203,-0.04900360107421875,-0.1448802947998047,0.08683395385742188,0.6378374099731445,0.7600612640380859,0.08925056457519531
314,474953440.0,-0.5004034042358398,-3.128119468688965,9.269433975219727,-0.15127182006835938,-0.08309268951416016,-0.12996578216552734,0.08683395385742188,0.6378374099731445,0.7600612640380859,0.08925056457519531
315,474953440.0,-0.5004034042358398,-3.128119468688965,9.269433975219727,-0.15127182006835938,-0.08309268951416016,-0.12996578216552734,0.08683395385742188,0.6378374099731445,0.7600612640380859,0.08925056457519531
316,474953472.0,-0.34597206115722656,-3.051502227783203,9.504073143005371,0.1320962905883789,-0.16512012481689453,-0.05539512634277344,0.08683395385742188,0.6378374099731445,0.7600612640380859,0.08925056457519531
317,474953472.0,-0.24780654907226562,-2.7079238891601562,9.1868314743042,0.1320962905883789,-0.16512012481689453,-0.05539512634277344,0.08683395385742188,0.6378374099731445,0.7600612640380859,0.08925056457519531
318,474953472.0,-0.34597206115722656,-3.051502227783203,9.504073143005371,0.1320962905883789,-0.16512012481689453,-0.05539512634277344,0.08683395385742188,0.6378374099731445,0.7600612640380859,0.08925056457519531
319,474953472.0,-0.24780654907226562,-2.7079238891601562,9.1868314743042,0.1320962905883789,-0.16512012481689453,-0.05539512634277344,0.08683395385742188,0.6378374099731445,0.7600612640380859,0.08925056457519531
320,474953504.0,-0.2262582778930664,-2.438568115234375,9.367599487304688,0.18216514587402344,-0.16405487060546875,-0.011717796325683594,0.08683395385742188,0.6378374099731445,0.7600612640380859,0.08925056457519531
321,474953504.0,-0.2262582778930664,-2.438568115234375,9.367599487304688,0.18216514587402344,-0.16405487060546875,-0.011717796325683594,0.08683395385742188,0.6378374099731445,0.7600612640380859,0.08925056457519531
322,474953536.0,-0.08739089965820312,-2.227871894836426,9.85603141784668,-0.021305084228515625,-0.1033334732055664,0.022370338439941406,0.08683395385742188,0.6378374099731445,0.7600612640380859,0.08925056457519531
323,474953536.0,-0.10654449462890625,-2.225478172302246,9.839271545410156,-0.021305084228515625,-0.1033334732055664,0.022370338439941406,0.08683395385742188,0.6378374099731445,0.7600612640380859,0.08925056457519531
324,474953536.0,-0.08739089965820312,-2.227871894836426,9.85603141784668,-0.021305084228515625,-0.1033334732055664,0.022370338439941406,0.08683395385742188,0.6378374099731445,0.7600612640380859,0.08925056457519531
325,474953536.0,-0.10654449462890625,-2.225478172302246,9.839271545410156,-0.021305084228515625,-0.1033334732055664,0.022370338439941406,0.08683395385742188,0.6378374099731445,0.7600612640380859,0.08925056457519531
326,474953664.0,-0.3076639175415039,-2.225478172302246,9.803357124328613,-0.021305084228515625,-0.1033334732055664,0.022370338439941406,0.08683395385742188,0.6378374099731445,0.7600612640380859,0.08925056457519531
327,474953664.0,-0.3076639175415039,-2.225478172302246,9.803357124328613,-0.021305084228515625,-0.1033334732055664,0.022370338439941406,0.08683395385742188,0.6378374099731445,0.7600612640380859,0.08925056457519531
328,474953696.0,-0.20590686798095703,-2.2673778533935547,9.869199752807617,-0.021305084228515625,-0.1033334732055664,0.022370338439941406,0.08683395385742188,0.6378374099731445,0.7600612640380859,0.08925056457519531
329,474953696.0,-0.17478179931640625,-2.1261157989501953,9.865608215332031,-0.021305084228515625,-0.1033334732055664,0.022370338439941406,0.08683395385742188,0.6378374099731445,0.7600612640380859,0.08925056457519531
330,474953696.0,-0.20590686798095703,-2.2673778533935547,9.869199752807617,-0.021305084228515625,-0.1033334732055664,0.022370338439941406,0.08683395385742188,0.6378374099731445,0.7600612640380859,0.08925056457519531
331,474953696.0,-0.17478179931640625,-2.1261157989501953,9.865608215332031,-0.021305084228515625,-0.1033334732055664,0.022370338439941406,0.08683395385742188,0.6378374099731445,0.7600612640380859,0.08925056457519531
332,474953728.0,-0.14605045318603516,-2.0842161178588867,9.750682830810547,-0.021305084228515625,-0.1033334732055664,0.022370338439941406,0.08683395385742188,0.6378374099731445,0.7600612640380859,0.08925056457519531
333,474953728.0,-0.08978462219238281,-2.124917984008789,9.61780071258545,-0.021305084228515625,-0.1033334732055664,0.022370338439941406,0.08683395385742188,0.6378374099731445,0.7600612640380859,0.08925056457519531
334,474953728.0,-0.14605045318603516,-2.0842161178588867,9.750682830810547,-0.021305084228515625,-0.1033334732055664,0.022370338439941406,0.08683395385742188,0.6378374099731445,0.7600612640380859,0.08925056457519531
335,474953728.0,-0.08978462219238281,-2.124917984008789,9.61780071258545,-0.021305084228515625,-0.1033334732055664,0.022370338439941406,0.08683395385742188,0.6378374099731445,0.7600612640380859,0.08925056457519531
336,474953760.0,-0.16400718688964844,-2.099778175354004,9.609420776367188,0.026632308959960938,0.007456779479980469,0.020239830017089844,0.08683395385742188,0.6378374099731445,0.7600612640380859,0.08925056457519531
337,474953792.0,-0.04788494110107422,-2.0830183029174805,9.671671867370605,-0.005326271057128906,0.024501800537109375,0.020239830017089844,0.08683395385742188,0.6378374099731445,0.7600612640380859,0.08925056457519531
338,474953792.0,-0.11133289337158203,-2.106961250305176,9.624983787536621,-0.005326271057128906,0.024501800537109375,0.020239830017089844,0.08683395385742188,0.6378374099731445,0.7600612640380859,0.08925056457519531
339,474953824.0,-0.10295295715332031,-2.130904197692871,9.481327056884766,-0.004261016845703125,0.02769756317138672,0.01597881317138672,0.08683395385742188,0.6378374099731445,0.7600612640380859,0.08925056457519531
340,474953856.0,-0.12929058074951172,-2.080624580383301,9.460975646972656,0.00852203369140625,0.01810932159423828,0.020239830017089844,0.08139610290527344,0.6516475677490234,0.7499628067016602,0.07932472229003906
341,474953952.0,-0.12330436706542969,-2.1428756713867188,9.408302307128906,0.00852203369140625,0.01810932159423828,0.020239830017089844,0.08096504211425781,0.6516475677490234,0.7499628067016602,0.07941055297851562
342,474953984.0,-0.1759786605834961,-2.094989776611328,9.642940521240234,0.00852203369140625,0.01810932159423828,0.020239830017089844,0.08096504211425781,0.6516475677490234,0.7499628067016602,0.07941055297851562
343,474954016.0,-0.11013603210449219,-2.0267534255981445,9.653715133666992,0.00852203369140625,0.01810932159423828,0.020239830017089844,0.08096504211425781,0.6516475677490234,0.7499628067016602,0.07941055297851562
344,474954016.0,-0.19633007049560547,-1.9477424621582031,9.634560585021973,0.00852203369140625,0.01810932159423828,0.020239830017089844,0.08096504211425781,0.6516475677490234,0.7499628067016602,0.07941055297851562
345,474954048.0,-0.14245891571044922,-2.0854129791259766,9.555549621582031,-0.007456779479980469,-0.004261016845703125,-0.034089088439941406,0.08096504211425781,0.6516475677490234,0.7499628067016602,0.07941055297851562
346,474954048.0,-0.27414417266845703,-2.17160701751709,9.669278144836426,-0.007456779479980469,-0.004261016845703125,-0.034089088439941406,0.08096504211425781,0.6516475677490234,0.7499628067016602,0.07941055297851562
347,474954048.0,-0.27414417266845703,-2.17160701751709,9.669278144836426,-0.007456779479980469,-0.004261016845703125,-0.034089088439941406,0.08096504211425781,0.6516475677490234,0.7499628067016602,0.07941055297851562
348,474954080.0,-0.1711902618408203,-2.123721122741699,9.698009490966797,-0.0010652542114257812,-0.01810932159423828,-0.040480613708496094,0.08096504211425781,0.6516475677490234,0.7499628067016602,0.07941055297851562
349,474954080.0,-0.1711902618408203,-2.123721122741699,9.698009490966797,-0.0010652542114257812,-0.01810932159423828,-0.040480613708496094,0.08096504211425781,0.6516475677490234,0.7499628067016602,0.07941055297851562
350,474954112.0,-0.19872474670410156,-2.036330223083496,9.671671867370605,-0.041545867919921875,-0.0021305084228515625,-0.03515434265136719,0.08096504211425781,0.6516475677490234,0.7499628067016602,0.07941055297851562
351,474954112.0,-0.2023153305053711,-2.2949113845825195,9.567521095275879,-0.041545867919921875,-0.0021305084228515625,-0.03515434265136719,0.08096504211425781,0.6516475677490234,0.7499628067016602,0.07941055297851562
352,474954112.0,-0.19872474670410156,-2.036330223083496,9.671671867370605,-0.041545867919921875,-0.0021305084228515625,-0.03515434265136719,0.08096504211425781,0.6516475677490234,0.7499628067016602,0.07941055297851562
353,474954112.0,-0.2023153305053711,-2.2949113845825195,9.567521095275879,-0.041545867919921875,-0.0021305084228515625,-0.03515434265136719,0.08096504211425781,0.6516475677490234,0.7499628067016602,0.07941055297851562
354,474954144.0,-0.15083885192871094,-2.409836769104004,9.602238655090332,-0.0063915252685546875,-0.0031957626342773438,-0.042611122131347656,0.08096504211425781,0.6516475677490234,0.7499628067016602,0.07941055297851562
355,474954144.0,-0.15083885192871094,-2.409836769104004,9.602238655090332,-0.0063915252685546875,-0.0031957626342773438,-0.042611122131347656,0.08096504211425781,0.6516475677490234,0.7499628067016602,0.07941055297851562
356,474954368.0,-0.19034481048583984,-2.127312660217285,9.689629554748535,0.005326271057128906,-0.0031957626342773438,-0.022370338439941406,0.07945442199707031,0.65350341796875,0.7483654022216797,0.08109378814697266
357,474954368.0,-0.08978462219238281,-2.1404809951782227,9.653715133666992,0.005326271057128906,-0.0031957626342773438,-0.022370338439941406,0.07945442199707031,0.65350341796875,0.7483654022216797,0.08109378814697266
358,474954400.0,0.014365196228027344,-2.1692123413085938,9.57709789276123,0.0010652542114257812,0.0031957626342773438,-0.020239830017089844,0.07936763763427734,0.6538057327270508,0.7480630874633789,0.08109378814697266
359,474954432.0,-0.05626487731933594,-2.2362518310546875,9.556747436523438,-0.0031957626342773438,0.007456779479980469,0.0063915252685546875,0.07945442199707031,0.6538486480712891,0.7481069564819336,0.0810079574584961
360,474954432.0,-0.11492443084716797,-2.2470264434814453,9.602238655090332,-0.0031957626342773438,0.007456779479980469,0.0063915252685546875,0.07945442199707031,0.6538486480712891,0.7481069564819336,0.0810079574584961
361,474954464.0,-0.13767051696777344,-2.226675033569336,9.599843978881836,-0.0031957626342773438,0.007456779479980469,0.0063915252685546875,0.07945442199707031,0.6538486480712891,0.7481069564819336,0.0810079574584961
362,474954464.0,-0.16640186309814453,-2.1524524688720703,9.603435516357422,-0.0031957626342773438,0.007456779479980469,0.0063915252685546875,0.07945442199707031,0.6538486480712891,0.7481069564819336,0.0810079574584961
363,474954496.0,-0.15562725067138672,-2.097384452819824,9.611815452575684,-0.0031957626342773438,0.007456779479980469,0.0063915252685546875,0.07945442199707031,0.6538486480712891,0.7481069564819336,0.0810079574584961
364,474954528.0,-0.07781314849853516,-2.1548471450805664,9.556747436523438,-0.0031957626342773438,0.007456779479980469,0.0063915252685546875,0.07945442199707031,0.6538486480712891,0.7481069564819336,0.0810079574584961
365,474954528.0,-0.1891469955444336,-2.22188663482666,9.608223915100098,-0.0031957626342773438,0.007456779479980469,0.0063915252685546875,0.07945442199707031,0.6538486480712891,0.7481069564819336,0.0810079574584961
366,474954656.0,-0.13886737823486328,-2.164423942565918,9.622589111328125,0.00852203369140625,0.0031957626342773438,-0.021305084228515625,0.07945442199707031,0.6538486480712891,0.7481069564819336,0.0810079574584961
367,474954688.0,-0.09577083587646484,-2.190760612487793,9.632166862487793,-0.03621959686279297,0.01810932159423828,-0.024501800537109375,0.07945442199707031,0.6538486480712891,0.7481069564819336,0.0810079574584961
368,474954688.0,-0.1891469955444336,-2.226675033569336,9.499284744262695,-0.03621959686279297,0.01810932159423828,-0.024501800537109375,0.07945442199707031,0.6538486480712891,0.7481069564819336,0.0810079574584961
369,474954720.0,-0.19633007049560547,-2.324840545654297,9.541184425354004,-0.024501800537109375,0.009587287902832031,-0.020239830017089844,0.07945442199707031,0.6538486480712891,0.7481069564819336,0.0810079574584961
370,474954752.0,-0.10175609588623047,-2.316460609436035,9.586675643920898,0.005326271057128906,-0.0021305084228515625,-0.014913558959960938,0.07945442199707031,0.6538486480712891,0.7481069564819336,0.0810079574584961
371,474954752.0,-0.15203571319580078,-2.218295097351074,9.57709789276123,0.005326271057128906,-0.0021305084228515625,-0.014913558959960938,0.07945442199707031,0.6538486480712891,0.7481069564819336,0.0810079574584961
372,474954784.0,-0.15083885192871094,-2.3032913208007812,9.528016090393066,0.005326271057128906,-0.0021305084228515625,-0.014913558959960938,0.07945442199707031,0.6538486480712891,0.7481069564819336,0.0810079574584961
373,474954784.0,-0.16400718688964844,-2.2985029220581055,9.556747436523438,0.005326271057128906,-0.0021305084228515625,-0.014913558959960938,0.07945442199707031,0.6538486480712891,0.7481069564819336,0.0810079574584961
374,474954816.0,-0.19273853302001953,-2.251814842224121,9.57470417022705,0.005326271057128906,-0.0021305084228515625,-0.014913558959960938,0.07945442199707031,0.6538486480712891,0.7481069564819336,0.0810079574584961
375,474954848.0,-0.11013603210449219,-2.2793493270874023,9.549564361572266,0.005326271057128906,-0.0021305084228515625,-0.014913558959960938,0.07945442199707031,0.6538486480712891,0.7481069564819336,0.0810079574584961
376,474954848.0,-0.1867532730102539,-2.2075204849243164,9.648926734924316,0.005326271057128906,-0.0021305084228515625,-0.014913558959960938,0.07945442199707031,0.6538486480712891,0.7481069564819336,0.0810079574584961
377,474954848.0,-0.1867532730102539,-2.2075204849243164,9.648926734924316,0.005326271057128906,-0.0021305084228515625,-0.014913558959960938,0.07945442199707031,0.6538486480712891,0.7481069564819336,0.0810079574584961
378,474954880.0,-0.15323352813720703,-2.22428035736084,9.648926734924316,0.005326271057128906,-0.0021305084228515625,-0.014913558959960938,0.07945442199707031,0.6538486480712891,0.7481069564819336,0.0810079574584961
379,474954880.0,-0.15323352813720703,-2.22428035736084,9.648926734924316,0.005326271057128906,-0.0021305084228515625,-0.014913558959960938,0.07945442199707031,0.6538486480712891,0.7481069564819336,0.0810079574584961
380,474954912.0,-0.10055923461914062,-2.2111120223999023,9.639349937438965,0.005326271057128906,-0.0021305084228515625,-0.014913558959960938,0.07945442199707031,0.6538486480712891,0.7481069564819336,0.0810079574584961
381,474954912.0,-0.16879558563232422,-2.2506179809570312,9.591464042663574,0.005326271057128906,-0.0021305084228515625,-0.014913558959960938,0.07945442199707031,0.6538486480712891,0.7481069564819336,0.0810079574584961
382,474954912.0,-0.10055923461914062,-2.2111120223999023,9.639349937438965,0.005326271057128906,-0.0021305084228515625,-0.014913558959960938,0.07945442199707031,0.6538486480712891,0.7481069564819336,0.0810079574584961
383,474954912.0,-0.16879558563232422,-2.2506179809570312,9.591464042663574,0.005326271057128906,-0.0021305084228515625,-0.014913558959960938,0.07945442199707031,0.6538486480712891,0.7481069564819336,0.0810079574584961
384,474954944.0,-0.11971282958984375,-2.1261157989501953,9.602238655090332,0.00852203369140625,-0.0010652542114257812,0.0170440673828125,0.07962703704833984,0.6550140380859375,0.7470273971557617,0.08092117309570312
385,474954944.0,-0.11971282958984375,-2.1261157989501953,9.602238655090332,0.00852203369140625,-0.0010652542114257812,0.0170440673828125,0.07962703704833984,0.6550140380859375,0.7470273971557617,0.08092117309570312
386,474955072.0,-0.07661628723144531,-2.0902013778686523,9.573507308959961,0.0287628173828125,-0.0031957626342773438,0.010652542114257812,0.07941055297851562,0.6546258926391602,0.7474164962768555,0.08053302764892578
387,474955072.0,-0.07661628723144531,-2.1512556076049805,9.680051803588867,0.0287628173828125,-0.0031957626342773438,0.010652542114257812,0.07941055297851562,0.6546258926391602,0.7474164962768555,0.08053302764892578
388,474955104.0,-0.05865955352783203,-2.135692596435547,9.635758399963379,0.0287628173828125,-0.0031957626342773438,0.010652542114257812,0.07941055297851562,0.6546258926391602,0.7474164962768555,0.08053302764892578
389,474955104.0,-0.15562725067138672,-2.1261157989501953,9.608223915100098,0.0287628173828125,-0.0031957626342773438,0.010652542114257812,0.07941055297851562,0.6546258926391602,0.7474164962768555,0.08053302764892578
390,474955136.0,-0.12330436706542969,-2.1404809951782227,9.592660903930664,0.0287628173828125,-0.0031957626342773438,0.010652542114257812,0.07941055297851562,0.6546258926391602,0.7474164962768555,0.08053302764892578
391,474955168.0,-0.13048744201660156,-2.1129465103149414,9.633363723754883,0.0021305084228515625,0.0063915252685546875,-0.00852203369140625,0.07941055297851562,0.6546258926391602,0.7474164962768555,0.08053302764892578
392,474955168.0,-0.11253070831298828,-2.139284133911133,9.640546798706055,0.0021305084228515625,0.0063915252685546875,-0.00852203369140625,0.07941055297851562,0.6546258926391602,0.7474164962768555,0.08053302764892578
393,474955168.0,-0.13048744201660156,-2.1129465103149414,9.633363723754883,0.0021305084228515625,0.0063915252685546875,-0.00852203369140625,0.07941055297851562,0.6546258926391602,0.7474164962768555,0.08053302764892578
394,474955168.0,-0.11253070831298828,-2.139284133911133,9.640546798706055,0.0021305084228515625,0.0063915252685546875,-0.00852203369140625,0.07941055297851562,0.6546258926391602,0.7474164962768555,0.08053302764892578
395,474955200.0,-0.11372756958007812,-2.0925960540771484,9.705191612243652,0.013848304748535156,0.011717796325683594,-0.00852203369140625,0.07941055297851562,0.6546258926391602,0.7474164962768555,0.08053302764892578
396,474955200.0,-0.11372756958007812,-2.0925960540771484,9.705191612243652,0.013848304748535156,0.011717796325683594,-0.00852203369140625,0.07941055297851562,0.6546258926391602,0.7474164962768555,0.08053302764892578
397,474955232.0,-0.11971282958984375,-2.0459070205688477,9.690826416015625,0.00852203369140625,0.03941535949707031,-0.024501800537109375,0.07975578308105469,0.655186653137207,0.7471141815185547,0.07906532287597656
398,474955232.0,-0.147247314453125,-2.0459070205688477,9.738712310791016,0.00852203369140625,0.03941535949707031,-0.024501800537109375,0.07975578308105469,0.655186653137207,0.7471141815185547,0.07906532287597656
399,474955232.0,-0.11971282958984375,-2.0459070205688477,9.690826416015625,0.00852203369140625,0.03941535949707031,-0.024501800537109375,0.07975578308105469,0.655186653137207,0.7471141815185547,0.07906532287597656
400,474955232.0,-0.147247314453125,-2.0459070205688477,9.738712310791016,0.00852203369140625,0.03941535949707031,-0.024501800537109375,0.07975578308105469,0.655186653137207,0.7471141815185547,0.07906532287597656
401,474955360.0,-0.2178783416748047,-2.1225242614746094,9.626180648803711,0.00852203369140625,0.03941535949707031,-0.024501800537109375,0.08178424835205078,0.656437873840332,0.7458620071411133,0.07824516296386719
402,474955360.0,-0.2178783416748047,-2.1225242614746094,9.626180648803711,0.00852203369140625,0.03941535949707031,-0.024501800537109375,0.08178424835205078,0.656437873840332,0.7458620071411133,0.07824516296386719
403,474955392.0,-0.23344135284423828,-2.193155288696289,9.674066543579102,0.00852203369140625,0.03941535949707031,-0.024501800537109375,0.08178424835205078,0.656437873840332,0.7458620071411133,0.07824516296386719
404,474955392.0,-0.14365577697753906,-2.168015480041504,9.627378463745117,0.00852203369140625,0.03941535949707031,-0.024501800537109375,0.08178424835205078,0.656437873840332,0.7458620071411133,0.07824516296386719
405,474955392.0,-0.23344135284423828,-2.193155288696289,9.674066543579102,0.00852203369140625,0.03941535949707031,-0.024501800537109375,0.08178424835205078,0.656437873840332,0.7458620071411133,0.07824516296386719
406,474955392.0,-0.14365577697753906,-2.168015480041504,9.627378463745117,0.00852203369140625,0.03941535949707031,-0.024501800537109375,0.08178424835205078,0.656437873840332,0.7458620071411133,0.07824516296386719
407,474955424.0,-0.18316173553466797,-2.1201295852661133,9.61540699005127,0.00852203369140625,0.03941535949707031,-0.024501800537109375,0.08178424835205078,0.656437873840332,0.7458620071411133,0.07824516296386719
408,474955424.0,-0.1999216079711914,-2.258997917175293,9.66688346862793,0.00852203369140625,0.03941535949707031,-0.024501800537109375,0.08178424835205078,0.656437873840332,0.7458620071411133,0.07824516296386719
409,474955424.0,-0.18316173553466797,-2.1201295852661133,9.61540699005127,0.00852203369140625,0.03941535949707031,-0.024501800537109375,0.08178424835205078,0.656437873840332,0.7458620071411133,0.07824516296386719
410,474955424.0,-0.1999216079711914,-2.258997917175293,9.66688346862793,0.00852203369140625,0.03941535949707031,-0.024501800537109375,0.08178424835205078,0.656437873840332,0.7458620071411133,0.07824516296386719
411,474955456.0,-0.1364736557006836,-2.348782539367676,9.727937698364258,0.00852203369140625,0.03941535949707031,-0.024501800537109375,0.08178424835205078,0.656437873840332,0.7458620071411133,0.07824516296386719
412,474955488.0,-0.1185159683227539,-2.2613916397094727,9.660898208618164,0.00852203369140625,0.03941535949707031,-0.024501800537109375,0.08178424835205078,0.656437873840332,0.7458620071411133,0.07824516296386719
413,474955488.0,-0.14605045318603516,-2.3308258056640625,9.755472183227539,0.00852203369140625,0.03941535949707031,-0.024501800537109375,0.08178424835205078,0.656437873840332,0.7458620071411133,0.07824516296386719
414,474955520.0,-0.16999340057373047,-2.3679370880126953,9.7171630859375,0.00852203369140625,0.03941535949707031,-0.024501800537109375,0.08178424835205078,0.656437873840332,0.7458620071411133,0.07824516296386719
415,474955520.0,-0.30048084259033203,-2.251814842224121,9.64413833618164,0.00852203369140625,0.03941535949707031,-0.024501800537109375,0.08178424835205078,0.656437873840332,0.7458620071411133,0.07824516296386719
416,474955552.0,-0.3782949447631836,-2.159635543823242,9.687234878540039,-0.05859088897705078,0.16298961639404297,0.0021305084228515625,0.08178424835205078,0.656437873840332,0.7458620071411133,0.07824516296386719
417,474955584.0,-0.47406578063964844,-2.1416778564453125,9.683643341064453,-0.1555328369140625,0.15659809112548828,-0.031958580017089844,0.08178424835205078,0.656437873840332,0.7458620071411133,0.07824516296386719
418,474955584.0,-0.6177225112915039,-2.2973060607910156,9.449005126953125,-0.1555328369140625,0.15659809112548828,-0.031958580017089844,0.08178424835205078,0.656437873840332,0.7458620071411133,0.07824516296386719
419,474955616.0,-0.6548337936401367,-2.227871894836426,9.439427375793457,-0.1214437484741211,0.1502065658569336,-0.0809621810913086,0.08178424835205078,0.656437873840332,0.7458620071411133,0.07824516296386719
420,474955648.0,-0.6596221923828125,-2.1560440063476562,9.338868141174316,-0.14594554901123047,0.1374225616455078,-0.1320962905883789,0.08178424835205078,0.656437873840332,0.7458620071411133,0.07824516296386719
421,474955648.0,-0.67279052734375,-2.3320226669311523,9.322108268737793,-0.14594554901123047,0.1374225616455078,-0.1320962905883789,0.08178424835205078,0.656437873840332,0.7458620071411133,0.07824516296386719
422,474955680.0,-0.5818080902099609,-2.139284133911133,9.410696029663086,-0.14594554901123047,0.1374225616455078,-0.1320962905883789,0.08178424835205078,0.656437873840332,0.7458620071411133,0.07824516296386719
423,474955680.0,-0.5135717391967773,-2.3631486892700195,9.250279426574707,-0.14594554901123047,0.1374225616455078,-0.1320962905883789,0.08178424835205078,0.656437873840332,0.7458620071411133,0.07824516296386719
424,474955712.0,-0.5219516754150391,-2.7725696563720703,9.047964096069336,-0.14594554901123047,0.1374225616455078,-0.1320962905883789,0.08178424835205078,0.656437873840332,0.7458620071411133,0.07824516296386719
425,474955744.0,-0.5530767440795898,-3.0993881225585938,8.691216468811035,-0.1619243621826172,-0.06604766845703125,-0.10546398162841797,0.08178424835205078,0.656437873840332,0.7458620071411133,0.07824516296386719
426,474955744.0,-0.515965461730957,-3.776968002319336,8.128561973571777,-0.1619243621826172,-0.06604766845703125,-0.10546398162841797,0.08178424835205078,0.656437873840332,0.7458620071411133,0.07824516296386719
427,474955776.0,-0.49561405181884766,-4.647286415100098,7.581470489501953,-0.03835010528564453,-0.22690773010253906,0.04900360107421875,0.08178424835205078,0.656437873840332,0.7458620071411133,0.07824516296386719
428,474955808.0,-0.49800872802734375,-5.488874435424805,7.0176191329956055,0.5177335739135742,-0.7041606903076172,0.5422353744506836,0.08178424835205078,0.656437873840332,0.7458620071411133,0.07824516296386719
429,474955808.0,-0.4501228332519531,-5.812101364135742,6.982901573181152,0.5177335739135742,-0.7041606903076172,0.5422353744506836,0.08178424835205078,0.656437873840332,0.7458620071411133,0.07824516296386719
430,474955840.0,-0.33759212493896484,-6.061105728149414,7.057124137878418,0.9662237167358398,-1.1366710662841797,1.251723289489746,0.08178424835205078,0.656437873840332,0.7458620071411133,0.07824516296386719
431,474955840.0,-0.4501228332519531,-4.988471031188965,8.118985176086426,0.9662237167358398,-1.1366710662841797,1.251723289489746,0.08178424835205078,0.656437873840332,0.7458620071411133,0.07824516296386719
432,474955872.0,-0.5207538604736328,-4.51201057434082,9.810540199279785,1.0471868515014648,-1.2197647094726562,1.5894222259521484,0.08178424835205078,0.656437873840332,0.7458620071411133,0.07824516296386719
433,474955904.0,-0.610539436340332,-4.698763847351074,10.719167709350586,1.1654348373413086,-1.120692253112793,2.0400428771972656,0.08178424835205078,0.656437873840332,0.7458620071411133,0.07824516296386719
434,474955904.0,0.041899681091308594,-3.8475990295410156,11.809759140014648,1.1654348373413086,-1.120692253112793,2.0400428771972656,0.08178424835205078,0.656437873840332,0.7458620071411133,0.07824516296386719
435,474955936.0,1.047494888305664,-3.9134416580200195,12.501705169677734,1.2645072937011719,-0.831995964050293,2.245645523071289,0.08178424835205078,0.656437873840332,0.7458620071411133,0.07824516296386719
436,474955968.0,1.1408710479736328,-3.805699348449707,13.17569351196289,1.2645072937011719,-0.831995964050293,2.245645523071289,0.08178424835205078,0.656437873840332,0.7458620071411133,0.07824516296386719
437,474955968.0,1.3180475234985352,-1.884293556213379,14.406350135803223,1.2645072937011719,-0.831995964050293,2.245645523071289,0.08178424835205078,0.656437873840332,0.7458620071411133,0.07824516296386719
438,474956000.0,1.8040857315063477,-0.2885093688964844,15.073156356811523,1.2645072937011719,-0.831995964050293,2.245645523071289,0.08178424835205078,0.656437873840332,0.7458620071411133,0.07824516296386719
439,474956000.0,1.7286663055419922,-0.3495635986328125,14.619441032409668,1.2645072937011719,-0.831995964050293,2.245645523071289,0.08178424835205078,0.656437873840332,0.7458620071411133,0.07824516296386719
440,474956032.0,1.723876953125,1.7442283630371094,14.736760139465332,1.2645072937011719,-0.831995964050293,2.245645523071289,-0.002201080322265625,0.4652900695800781,0.8851346969604492,0.006775856018066406
441,474956064.0,1.9944305419921875,4.2235002517700195,15.41793155670166,0.8426494598388672,2.0411081314086914,1.8834447860717773,0.006991386413574219,0.4460411071777344,0.8948879241943359,-0.011307716369628906
442,474956064.0,2.3020944595336914,4.236668586730957,14.570358276367188,0.8426494598388672,2.0411081314086914,1.8834447860717773,0.006991386413574219,0.4460411071777344,0.8948879241943359,-0.011307716369628906
443,474956096.0,1.6843719482421875,4.13371467590332,12.629798889160156,0.7094869613647461,2.5396671295166016,1.4274978637695312,0.042984962463378906,0.4173412322998047,0.9065837860107422,-0.04583454132080078
444,474956128.0,1.2294597625732422,5.813298225402832,12.359245300292969,0.1374225616455078,3.027573585510254,0.34302520751953125,0.06633377075195312,0.4095296859741211,0.9077491760253906,-0.062450408935546875
445,474956128.0,1.5455036163330078,6.417853355407715,11.85644817352295,0.1374225616455078,3.027573585510254,0.34302520751953125,0.06633377075195312,0.4095296859741211,0.9077491760253906,-0.062450408935546875
446,474956160.0,1.733454704284668,5.591828346252441,10.579102516174316,0.1374225616455078,3.027573585510254,0.34302520751953125,0.06633377075195312,0.4095296859741211,0.9077491760253906,-0.062450408935546875
447,474956160.0,1.2797393798828125,4.898685455322266,9.507664680480957,0.1374225616455078,3.027573585510254,0.34302520751953125,0.06633377075195312,0.4095296859741211,0.9077491760253906,-0.062450408935546875
448,474956192.0,0.7565898895263672,5.63612174987793,8.530799865722656,0.1374225616455078,3.027573585510254,0.34302520751953125,0.06633377075195312,0.4095296859741211,0.9077491760253906,-0.062450408935546875
449,474956224.0,0.6356792449951172,5.602602005004883,7.540767669677734,0.1374225616455078,3.027573585510254,0.34302520751953125,0.06633377075195312,0.4095296859741211,0.9077491760253906,-0.062450408935546875
450,474956224.0,0.12569904327392578,4.750240325927734,6.154482841491699,0.1374225616455078,3.027573585510254,0.34302520751953125,0.06633377075195312,0.4095296859741211,0.9077491760253906,-0.062450408935546875
451,474956256.0,-0.5626544952392578,4.395888328552246,5.045933723449707,0.053264617919921875,2.611042022705078,-2.2115564346313477,0.06633377075195312,0.4095296859741211,0.9077491760253906,-0.062450408935546875
452,474956288.0,-0.8751068115234375,3.22269344329834,3.861964225769043,-0.18536090850830078,1.8269834518432617,-2.8006649017333984,0.06633377075195312,0.4095296859741211,0.9077491760253906,-0.062450408935546875
453,474956288.0,-1.4617042541503906,1.9285879135131836,3.299309730529785,-0.18536090850830078,1.8269834518432617,-2.8006649017333984,0.06633377075195312,0.4095296859741211,0.9077491760253906,-0.062450408935546875
454,474956320.0,-2.0494985580444336,1.0881977081298828,2.966506004333496,0.14061832427978516,0.9001750946044922,-3.281113624572754,0.06633377075195312,0.4095296859741211,0.9077491760253906,-0.062450408935546875
455,474956320.0,-1.919011116027832,-0.10175609588623047,2.4026546478271484,0.14061832427978516,0.9001750946044922,-3.281113624572754,0.06633377075195312,0.4095296859741211,0.9077491760253906,-0.062450408935546875
456,474956352.0,-1.9237995147705078,-1.7430315017700195,2.314065933227539,0.3867025375366211,0.39522457122802734,-3.361011505126953,0.06633377075195312,0.4095296859741211,0.9077491760253906,-0.062450408935546875
457,474956384.0,-1.9369678497314453,-3.164033889770508,2.197943687438965,0.5060157775878906,-0.5454311370849609,-3.367403030395508,0.06633377075195312,0.4095296859741211,0.9077491760253906,-0.062450408935546875
458,474956384.0,-2.2721662521362305,-4.292934417724609,2.0638647079467773,0.5060157775878906,-0.5454311370849609,-3.367403030395508,0.06633377075195312,0.4095296859741211,0.9077491760253906,-0.062450408935546875
459,474956416.0,-1.786128044128418,-4.792140007019043,2.431385040283203,0.3451557159423828,-1.3934078216552734,-3.1309070587158203,0.06633377075195312,0.4095296859741211,0.9077491760253906,-0.062450408935546875
460,474956416.0,-1.7358484268188477,-6.385530471801758,3.2346649169921875,0.3451557159423828,-1.3934078216552734,-3.1309070587158203,0.06633377075195312,0.4095296859741211,0.9077491760253906,-0.062450408935546875
461,474956448.0,-1.98126220703125,-8.73431396484375,3.616551399230957,0.3451557159423828,-1.3934078216552734,-3.1309070587158203,0.06633377075195312,0.4095296859741211,0.9077491760253906,-0.062450408935546875
462,474956480.0,-1.9704875946044922,-8.980923652648926,3.924215316772461,0.3451557159423828,-1.3934078216552734,-3.1309070587158203,0.06633377075195312,0.4095296859741211,0.9077491760253906,-0.062450408935546875
463,474956480.0,-1.5455036163330078,-8.23391056060791,5.061496734619141,0.3451557159423828,-1.3934078216552734,-3.1309070587158203,0.06633377075195312,0.4095296859741211,0.9077491760253906,-0.062450408935546875
464,474956512.0,-1.204319953918457,-8.791776657104492,5.892309188842773,0.3451557159423828,-1.3934078216552734,-3.1309070587158203,0.06633377075195312,0.4095296859741211,0.9077491760253906,-0.062450408935546875
465,474956544.0,-0.7170848846435547,-10.944229125976562,6.7338972091674805,0.3451557159423828,-1.3934078216552734,-3.1309070587158203,0.06633377075195312,0.4095296859741211,0.9077491760253906,-0.062450408935546875
466,474956544.0,-0.3782949447631836,-11.692440032958984,7.703577995300293,0.3451557159423828,-1.3934078216552734,-3.1309070587158203,0.06633377075195312,0.4095296859741211,0.9077491760253906,-0.062450408935546875
467,474956576.0,-0.1843585968017578,-9.949408531188965,9.730332374572754,0.3451557159423828,-1.3934078216552734,-3.1309070587158203,0.06633377075195312,0.4095296859741211,0.9077491760253906,-0.062450408935546875
468,474956608.0,-0.6907482147216797,-9.408302307128906,10.932257652282715,0.3451557159423828,-1.3934078216552734,-3.1309070587158203,0.06633377075195312,0.4095296859741211,0.9077491760253906,-0.062450408935546875
469,474956608.0,-0.9541177749633789,-10.033207893371582,10.97774887084961,0.3451557159423828,-1.3934078216552734,-3.1309070587158203,0.06633377075195312,0.4095296859741211,0.9077491760253906,-0.062450408935546875
470,474956640.0,-0.9074296951293945,-9.125777244567871,12.221574783325195,0.7520990371704102,-2.233926773071289,1.9505586624145508,0.06633377075195312,0.4095296859741211,0.9077491760253906,-0.062450408935546875
471,474956640.0,-1.0989713668823242,-5.396695137023926,13.69884204864502,0.7520990371704102,-2.233926773071289,1.9505586624145508,0.06633377075195312,0.4095296859741211,0.9077491760253906,-0.062450408935546875
472,474956672.0,-0.9517240524291992,-4.592218399047852,12.652544021606445,0.3909635543823242,-1.9729290008544922,2.1785316467285156,0.06633377075195312,0.4095296859741211,0.9077491760253906,-0.062450408935546875
473,474956704.0,-0.6680021286010742,-3.6704225540161133,13.412726402282715,0.726531982421875,-1.5233745574951172,2.22860050201416,0.06633377075195312,0.4095296859741211,0.9077491760253906,-0.062450408935546875
474,474956704.0,0.5925827026367188,-3.7566165924072266,13.820950508117676,0.726531982421875,-1.5233745574951172,2.22860050201416,0.06633377075195312,0.4095296859741211,0.9077491760253906,-0.062450408935546875
475,474956736.0,0.7458162307739258,-1.9537277221679688,13.428289413452148,1.3252286911010742,-0.6263942718505859,1.7854375839233398,0.06633377075195312,0.4095296859741211,0.9077491760253906,-0.062450408935546875
476,474956736.0,0.6907482147216797,0.15083885192871094,13.865243911743164,1.3252286911010742,-0.6263942718505859,1.7854375839233398,0.06633377075195312,0.4095296859741211,0.9077491760253906,-0.062450408935546875
477,474956768.0,0.9385547637939453,0.8332071304321289,13.592296600341797,0.8969793319702148,-0.2578010559082031,1.5617246627807617,0.06633377075195312,0.4095296859741211,0.9077491760253906,-0.062450408935546875
478,474956800.0,0.9313726425170898,0.7218732833862305,12.615432739257812,0.26312828063964844,0.31319713592529297,1.0951251983642578,0.06633377075195312,0.4095296859741211,0.9077491760253906,-0.062450408935546875
479,474956800.0,0.6991281509399414,0.3543519973754883,11.64694881439209,0.26312828063964844,0.31319713592529297,1.0951251983642578,0.06633377075195312,0.4095296859741211,0.9077491760253906,-0.062450408935546875
480,474956832.0,0.6165256500244141,-0.04549121856689453,10.66769027709961,0.2641935348510742,0.37817955017089844,0.8873920440673828,0.06633377075195312,0.4095296859741211,0.9077491760253906,-0.062450408935546875
481,474956864.0,0.5758228302001953,-0.11492443084716797,10.191229820251465,0.2641935348510742,0.37817955017089844,0.8873920440673828,0.06633377075195312,0.4095296859741211,0.9077491760253906,-0.062450408935546875
482,474956864.0,0.6763820648193359,-0.5027971267700195,9.739909172058105,0.2641935348510742,0.37817955017089844,0.8873920440673828,0.06633377075195312,0.4095296859741211,0.9077491760253906,-0.062450408935546875
483,474956896.0,0.36153507232666016,-0.5602598190307617,9.118595123291016,0.2641935348510742,0.37817955017089844,0.8873920440673828,0.06633377075195312,0.4095296859741211,0.9077491760253906,-0.062450408935546875
484,474956928.0,0.2549896240234375,-0.6296939849853516,9.039584159851074,0.2641935348510742,0.37817955017089844,0.8873920440673828,0.06633377075195312,0.4095296859741211,0.9077491760253906,-0.062450408935546875
485,474956928.0,0.1604156494140625,-0.835601806640625,8.980923652648926,0.2641935348510742,0.37817955017089844,0.8873920440673828,0.06633377075195312,0.4095296859741211,0.9077491760253906,-0.062450408935546875
486,474956960.0,0.0011968612670898438,-1.2522048950195312,9.160494804382324,-0.045806884765625,0.29189109802246094,-0.1374225616455078,0.08735179901123047,0.5573463439941406,0.8214759826660156,0.08277702331542969
487,474957056.0,-0.35914039611816406,-2.1189327239990234,9.138946533203125,-0.12677001953125,0.1491413116455078,-0.2535400390625,0.09218597412109375,0.5629568099975586,0.8175048828125,0.0794973373413086
488,474957056.0,-0.4752626419067383,-2.4253997802734375,9.118595123291016,-0.12677001953125,0.1491413116455078,-0.2535400390625,0.09218597412109375,0.5629568099975586,0.8175048828125,0.0794973373413086
489,474957088.0,-0.5434999465942383,-2.314065933227539,9.062329292297363,-0.07030868530273438,0.10759449005126953,-0.27378082275390625,0.09218597412109375,0.5629568099975586,0.8175048828125,0.0794973373413086
490,474957120.0,-0.5638513565063477,-2.068653106689453,9.296968460083008,-0.1097249984741211,0.10759449005126953,-0.2546052932739258,0.09218597412109375,0.5629568099975586,0.8175048828125,0.0794973373413086
491,474957120.0,-0.6213140487670898,-2.2506179809570312,9.365204811096191,-0.1097249984741211,0.10759449005126953,-0.2546052932739258,0.09218597412109375,0.5629568099975586,0.8175048828125,0.0794973373413086
492,474957152.0,-0.6967334747314453,-2.529550552368164,9.250279426574707,-0.09587669372558594,0.09907245635986328,-0.2428874969482422,0.09218597412109375,0.5629568099975586,0.8175048828125,0.0794973373413086
493,474957184.0,-0.705113410949707,-2.504410743713379,9.30654525756836,-0.09587669372558594,0.09907245635986328,-0.2428874969482422,0.09218597412109375,0.5629568099975586,0.8175048828125,0.0794973373413086
494,474957184.0,-0.7757444381713867,-2.543916702270508,9.397527694702148,-0.09587669372558594,0.09907245635986328,-0.2428874969482422,0.09218597412109375,0.5629568099975586,0.8175048828125,0.0794973373413086
495,474957216.0,-0.7984905242919922,-2.664827346801758,9.408302307128906,-0.09587669372558594,0.09907245635986328,-0.2428874969482422,0.09218597412109375,0.5629568099975586,0.8175048828125,0.0794973373413086
496,474957216.0,-0.8727130889892578,-2.6468706130981445,9.480130195617676,-0.09587669372558594,0.09907245635986328,-0.2428874969482422,0.09218597412109375,0.5629568099975586,0.8175048828125,0.0794973373413086
497,474957248.0,-0.8104610443115234,-2.752218246459961,9.443018913269043,-0.09587669372558594,0.09907245635986328,-0.2428874969482422,0.09218597412109375,0.5629568099975586,0.8175048828125,0.0794973373413086
498,474957280.0,-0.6632137298583984,-2.8276376724243164,9.548367500305176,0.011717796325683594,-0.0031957626342773438,-0.15872859954833984,0.09218597412109375,0.5629568099975586,0.8175048828125,0.0794973373413086
499,474957280.0,-0.5542745590209961,-2.7019386291503906,9.688431739807129,0.011717796325683594,-0.0031957626342773438,-0.15872859954833984,0.09218597412109375,0.5629568099975586,0.8175048828125,0.0794973373413086
500,474957312.0,-0.4908256530761719,-2.53433895111084,9.694417953491211,0.01597881317138672,0.020239830017089844,-0.1331615447998047,0.09218597412109375,0.5629568099975586,0.8175048828125,0.0794973373413086
501,474957344.0,-0.4788541793823242,-2.383500099182129,9.607027053833008,-0.13955307006835938,0.053264617919921875,-0.09907245635986328,0.09218597412109375,0.5629568099975586,0.8175048828125,0.0794973373413086
502,474957344.0,-0.5183601379394531,-2.4589195251464844,9.59625244140625,-0.13955307006835938,0.053264617919921875,-0.09907245635986328,0.09218597412109375,0.5629568099975586,0.8175048828125,0.0794973373413086
503,474957376.0,-0.5913858413696289,-2.6001815795898438,9.613012313842773,-0.13955307006835938,0.053264617919921875,-0.09907245635986328,0.09218597412109375,0.5629568099975586,0.8175048828125,0.0794973373413086
504,474957376.0,-0.6416654586791992,-2.564268112182617,9.629772186279297,-0.13955307006835938,0.053264617919921875,-0.09907245635986328,0.09218597412109375,0.5629568099975586,0.8175048828125,0.0794973373413086
505,474957408.0,-0.74102783203125,-2.5774364471435547,9.560338020324707,-0.13955307006835938,0.053264617919921875,-0.09907245635986328,0.09218597412109375,0.5629568099975586,0.8175048828125,0.0794973373413086
506,474957440.0,-0.7865190505981445,-2.687572479248047,9.475341796875,-0.13955307006835938,0.053264617919921875,-0.09907245635986328,0.09218597412109375,0.5629568099975586,0.8175048828125,0.0794973373413086
507,474957440.0,-0.6668052673339844,-2.688770294189453,9.601040840148926,-0.13955307006835938,0.053264617919921875,-0.09907245635986328,0.09218597412109375,0.5629568099975586,0.8175048828125,0.0794973373413086
508,474957472.0,-0.6201162338256836,-2.871932029724121,9.572309494018555,-0.13955307006835938,0.053264617919921875,-0.09907245635986328,0.09218597412109375,0.5629568099975586,0.8175048828125,0.0794973373413086
509,474957472.0,-0.6201162338256836,-2.871932029724121,9.572309494018555,-0.13955307006835938,0.053264617919921875,-0.09907245635986328,0.09218597412109375,0.5629568099975586,0.8175048828125,0.0794973373413086
510,474957504.0,-0.6608190536499023,-2.7869348526000977,9.513649940490723,-0.13955307006835938,0.053264617919921875,-0.09907245635986328,0.09218597412109375,0.5629568099975586,0.8175048828125,0.0794973373413086
511,474957504.0,-0.6057510375976562,-2.658841133117676,9.508861541748047,-0.13955307006835938,0.053264617919921875,-0.09907245635986328,0.09218597412109375,0.5629568099975586,0.8175048828125,0.0794973373413086
512,474957504.0,-0.6608190536499023,-2.7869348526000977,9.513649940490723,-0.13955307006835938,0.053264617919921875,-0.09907245635986328,0.09218597412109375,0.5629568099975586,0.8175048828125,0.0794973373413086
513,474957504.0,-0.6057510375976562,-2.658841133117676,9.508861541748047,-0.13955307006835938,0.053264617919921875,-0.09907245635986328,0.09218597412109375,0.5629568099975586,0.8175048828125,0.0794973373413086
514,474957536.0,-0.6129341125488281,-2.6097593307495117,9.4968900680542,-0.13955307006835938,0.053264617919921875,-0.09907245635986328,0.09218597412109375,0.5629568099975586,0.8175048828125,0.0794973373413086
515,474957536.0,-0.6033563613891602,-2.5211706161499023,9.543578147888184,-0.13955307006835938,0.053264617919921875,-0.09907245635986328,0.09218597412109375,0.5629568099975586,0.8175048828125,0.0794973373413086
516,474957536.0,-0.6129341125488281,-2.6097593307495117,9.4968900680542,-0.13955307006835938,0.053264617919921875,-0.09907245635986328,0.09218597412109375,0.5629568099975586,0.8175048828125,0.0794973373413086
517,474957536.0,-0.6033563613891602,-2.5211706161499023,9.543578147888184,-0.13955307006835938,0.053264617919921875,-0.09907245635986328,0.09218597412109375,0.5629568099975586,0.8175048828125,0.0794973373413086
518,474957568.0,-0.6608190536499023,-2.595393180847168,9.464567184448242,-0.11611652374267578,0.05113410949707031,-0.02982807159423828,0.09218597412109375,0.5629568099975586,0.8175048828125,0.0794973373413086
519,474957600.0,-0.6991281509399414,-2.631307601928711,9.313728332519531,0.010652542114257812,0.022370338439941406,-0.04367637634277344,0.09218597412109375,0.5629568099975586,0.8175048828125,0.0794973373413086
520,474957600.0,-0.6715936660766602,-2.6145477294921875,9.312531471252441,0.010652542114257812,0.022370338439941406,-0.04367637634277344,0.09218597412109375,0.5629568099975586,0.8175048828125,0.0794973373413086
521,474957632.0,-0.7230701446533203,-2.5858163833618164,9.380767822265625,0.007456779479980469,0.01597881317138672,-0.034089088439941406,0.09218597412109375,0.5629568099975586,0.8175048828125,0.0794973373413086
522,474957632.0,-0.7182817459106445,-2.6408843994140625,9.409499168395996,0.007456779479980469,0.01597881317138672,-0.034089088439941406,0.09218597412109375,0.5629568099975586,0.8175048828125,0.0794973373413086
523,474957760.0,-0.6213140487670898,-2.7689781188964844,9.40590763092041,-0.026632308959960938,-0.03728485107421875,-0.042611122131347656,0.09218597412109375,0.5629568099975586,0.8175048828125,0.0794973373413086
524,474957760.0,-0.6213140487670898,-2.7689781188964844,9.40590763092041,-0.026632308959960938,-0.03728485107421875,-0.042611122131347656,0.09218597412109375,0.5629568099975586,0.8175048828125,0.0794973373413086
525,474957792.0,-0.5578651428222656,-2.7941179275512695,9.318516731262207,-0.026632308959960938,-0.03728485107421875,-0.042611122131347656,0.09218597412109375,0.5629568099975586,0.8175048828125,0.0794973373413086
526,474957792.0,-0.610539436340332,-2.7570066452026367,9.358022689819336,-0.026632308959960938,-0.03728485107421875,-0.042611122131347656,0.09218597412109375,0.5629568099975586,0.8175048828125,0.0794973373413086
527,474957792.0,-0.5578651428222656,-2.7941179275512695,9.318516731262207,-0.026632308959960938,-0.03728485107421875,-0.042611122131347656,0.09218597412109375,0.5629568099975586,0.8175048828125,0.0794973373413086
528,474957792.0,-0.610539436340332,-2.7570066452026367,9.358022689819336,-0.026632308959960938,-0.03728485107421875,-0.042611122131347656,0.09218597412109375,0.5629568099975586,0.8175048828125,0.0794973373413086
529,474957824.0,-0.6069478988647461,-2.624124526977539,9.529212951660156,-0.026632308959960938,-0.03728485107421875,-0.042611122131347656,0.09218597412109375,0.5629568099975586,0.8175048828125,0.0794973373413086
530,474957824.0,-0.6069478988647461,-2.624124526977539,9.529212951660156,-0.026632308959960938,-0.03728485107421875,-0.042611122131347656,0.09218597412109375,0.5629568099975586,0.8175048828125,0.0794973373413086
531,474957856.0,-0.5973711013793945,-2.467299461364746,9.598647117614746,-0.05859088897705078,-0.009587287902832031,0.011717796325683594,0.09218597412109375,0.5629568099975586,0.8175048828125,0.0794973373413086
532,474957856.0,-0.5973711013793945,-2.467299461364746,9.598647117614746,-0.05859088897705078,-0.009587287902832031,0.011717796325683594,0.09218597412109375,0.5629568099975586,0.8175048828125,0.0794973373413086
533,474957984.0,-0.5722312927246094,-2.511593818664551,9.660898208618164,-0.020239830017089844,0.0031957626342773438,-0.02769756317138672,0.09218597412109375,0.5629568099975586,0.8175048828125,0.0794973373413086
534,474957984.0,-0.6021595001220703,-2.6145477294921875,9.59744930267334,-0.020239830017089844,0.0031957626342773438,-0.02769756317138672,0.09218597412109375,0.5629568099975586,0.8175048828125,0.0794973373413086
535,474957984.0,-0.5722312927246094,-2.511593818664551,9.660898208618164,-0.020239830017089844,0.0031957626342773438,-0.02769756317138672,0.09218597412109375,0.5629568099975586,0.8175048828125,0.0794973373413086
536,474957984.0,-0.6021595001220703,-2.6145477294921875,9.59744930267334,-0.020239830017089844,0.0031957626342773438,-0.02769756317138672,0.09218597412109375,0.5629568099975586,0.8175048828125,0.0794973373413086
537,474958016.0,-0.515965461730957,-2.6468706130981445,9.555549621582031,0.04793834686279297,0.005326271057128906,-0.03835010528564453,0.09218597412109375,0.5629568099975586,0.8175048828125,0.0794973373413086
538,474958016.0,-0.5554714202880859,-2.472087860107422,9.470553398132324,0.04793834686279297,0.005326271057128906,-0.03835010528564453,0.09218597412109375,0.5629568099975586,0.8175048828125,0.0794973373413086
539,474958016.0,-0.515965461730957,-2.6468706130981445,9.555549621582031,0.04793834686279297,0.005326271057128906,-0.03835010528564453,0.09218597412109375,0.5629568099975586,0.8175048828125,0.0794973373413086
540,474958016.0,-0.5554714202880859,-2.472087860107422,9.470553398132324,0.04793834686279297,0.005326271057128906,-0.03835010528564453,0.09218597412109375,0.5629568099975586,0.8175048828125,0.0794973373413086
541,474958048.0,-0.5470914840698242,-2.537930488586426,9.656109809875488,0.025567054748535156,0.014913558959960938,-0.023435592651367188,0.09218597412109375,0.5629568099975586,0.8175048828125,0.0794973373413086
542,474958048.0,-0.5470914840698242,-2.537930488586426,9.656109809875488,0.025567054748535156,0.014913558959960938,-0.023435592651367188,0.09218597412109375,0.5629568099975586,0.8175048828125,0.0794973373413086
543,474958176.0,-0.587794303894043,-2.6720104217529297,9.416682243347168,0.025567054748535156,0.014913558959960938,-0.023435592651367188,0.09218597412109375,0.5629568099975586,0.8175048828125,0.0794973373413086
544,474958176.0,-0.6488475799560547,-2.7019386291503906,9.325699806213379,0.025567054748535156,0.014913558959960938,-0.023435592651367188,0.09218597412109375,0.5629568099975586,0.8175048828125,0.0794973373413086
545,474958176.0,-0.587794303894043,-2.6720104217529297,9.416682243347168,0.025567054748535156,0.014913558959960938,-0.023435592651367188,0.09218597412109375,0.5629568099975586,0.8175048828125,0.0794973373413086
546,474958176.0,-0.6488475799560547,-2.7019386291503906,9.325699806213379,0.025567054748535156,0.014913558959960938,-0.023435592651367188,0.09218597412109375,0.5629568099975586,0.8175048828125,0.0794973373413086
547,474958208.0,-0.6237077713012695,-2.759401321411133,9.310136795043945,0.025567054748535156,0.014913558959960938,-0.023435592651367188,0.09218597412109375,0.5629568099975586,0.8175048828125,0.0794973373413086
548,474958208.0,-0.6237077713012695,-2.759401321411133,9.310136795043945,0.025567054748535156,0.014913558959960938,-0.023435592651367188,0.09218597412109375,0.5629568099975586,0.8175048828125,0.0794973373413086
549,474958240.0,-0.5351200103759766,-2.6193361282348633,9.250279426574707,0.025567054748535156,0.014913558959960938,-0.023435592651367188,0.09218597412109375,0.5629568099975586,0.8175048828125,0.0794973373413086
550,474958240.0,-0.6153278350830078,-2.5139875411987305,9.449005126953125,0.025567054748535156,0.014913558959960938,-0.023435592651367188,0.09218597412109375,0.5629568099975586,0.8175048828125,0.0794973373413086
551,474958240.0,-0.5351200103759766,-2.6193361282348633,9.250279426574707,0.025567054748535156,0.014913558959960938,-0.023435592651367188,0.09218597412109375,0.5629568099975586,0.8175048828125,0.0794973373413086
552,474958240.0,-0.6153278350830078,-2.5139875411987305,9.449005126953125,0.025567054748535156,0.014913558959960938,-0.023435592651367188,0.09218597412109375,0.5629568099975586,0.8175048828125,0.0794973373413086
553,474958272.0,-0.6213140487670898,-2.6193361282348633,9.437033653259277,-0.02769756317138672,0.005326271057128906,-0.010652542114257812,0.09218597412109375,0.5629568099975586,0.8175048828125,0.0794973373413086
554,474958272.0,-0.614130973815918,-2.660038948059082,9.443018913269043,-0.02769756317138672,0.005326271057128906,-0.010652542114257812,0.09218597412109375,0.5629568099975586,0.8175048828125,0.0794973373413086
555,474958304.0,-0.6584253311157227,-2.6001815795898438,9.2550687789917,-0.025567054748535156,0.0,-0.019174575805664062,0.09218597412109375,0.5629568099975586,0.8175048828125,0.0794973373413086
556,474958336.0,-0.7063102722167969,-2.5810279846191406,9.323305130004883,-0.011717796325683594,-0.012783050537109375,-0.0170440673828125,0.09218597412109375,0.5629568099975586,0.8175048828125,0.0794973373413086
557,474958336.0,-0.6249055862426758,-2.6049699783325195,9.360416412353516,-0.011717796325683594,-0.012783050537109375,-0.0170440673828125,0.09218597412109375,0.5629568099975586,0.8175048828125,0.0794973373413086
558,474958368.0,-0.6859588623046875,-2.5870132446289062,9.410696029663086,-0.03515434265136719,-0.0170440673828125,-0.020239830017089844,0.09218597412109375,0.5629568099975586,0.8175048828125,0.0794973373413086
559,474958400.0,-0.6117362976074219,-2.7103185653686523,9.290982246398926,0.013848304748535156,-0.033023834228515625,-0.02769756317138672,0.09218597412109375,0.5629568099975586,0.8175048828125,0.0794973373413086
560,474958400.0,-0.587794303894043,-2.657644271850586,9.364007949829102,0.013848304748535156,-0.033023834228515625,-0.02769756317138672,0.09218597412109375,0.5629568099975586,0.8175048828125,0.0794973373413086
561,474958432.0,-0.4776573181152344,-2.7019386291503906,9.457385063171387,-0.0031957626342773438,-0.03835010528564453,-0.019174575805664062,0.09218597412109375,0.5629568099975586,0.8175048828125,0.0794973373413086
562,474958432.0,-0.5566682815551758,-2.7055301666259766,9.50646686553955,-0.0031957626342773438,-0.03835010528564453,-0.019174575805664062,0.09218597412109375,0.5629568099975586,0.8175048828125,0.0794973373413086
563,474958464.0,-0.5542745590209961,-2.6660242080688477,9.458581924438477,-0.0031957626342773438,-0.03835010528564453,-0.019174575805664062,0.09218597412109375,0.5629568099975586,0.8175048828125,0.0794973373413086
