,timestamp,accel_x,accel_y,accel_z,gyro_x,gyro_y,gyro_z,ori_scalar,ori_x,ori_y,ori_z
0,474061760.0,-2.4924392700195312,-1.8304224014282227,9.613012313842773,-0.30360889434814453,0.0628519058227539,-0.12890052795410156,0.15152835845947266,0.8382644653320312,0.5179433822631836,-0.077728271484375
1,474061792.0,-2.4912424087524414,-1.8364086151123047,9.536396026611328,-0.2940216064453125,0.07563591003417969,-0.14701080322265625,0.1544637680053711,0.8385229110717773,0.5169076919555664,-0.07634735107421875
2,474061824.0,-2.3559656143188477,-1.351567268371582,9.902719497680664,-0.3622007369995117,0.13529205322265625,-0.13422679901123047,0.15662097930908203,0.8389120101928711,0.5158281326293945,-0.07479381561279297
3,474061824.0,-2.10336971282959,-1.580221176147461,9.632166862487793,-0.3622007369995117,0.13529205322265625,-0.13422679901123047,0.15662097930908203,0.8389120101928711,0.5158281326293945,-0.07479381561279297
4,474061856.0,-2.409836769104004,-1.6556406021118164,9.3855562210083,-0.27271556854248047,0.10759449005126953,-0.11505126953125,0.15662097930908203,0.8389120101928711,0.5158281326293945,-0.07479381561279297
5,474061856.0,-2.439764976501465,-1.485647201538086,9.514846801757812,-0.27271556854248047,0.10759449005126953,-0.11505126953125,0.15662097930908203,0.8389120101928711,0.5158281326293945,-0.07479381561279297
6,474061888.0,-2.4852561950683594,-1.2749509811401367,9.528016090393066,-0.22903823852539062,0.08309268951416016,-0.0628519058227539,0.15662097930908203,0.8389120101928711,0.5158281326293945,-0.07479381561279297
7,474061920.0,-2.4613142013549805,-1.479660987854004,9.11620044708252,-0.19814491271972656,0.06711292266845703,-0.04474163055419922,0.17198562622070312,0.8388681411743164,0.5115556716918945,-0.07073688507080078
8,474062048.0,-3.0431222915649414,-2.0878067016601562,8.790578842163086,-0.5134725570678711,0.10546398162841797,-0.24395275115966797,0.15653514862060547,0.8391704559326172,0.5154829025268555,-0.07488059997558594
9,474062080.0,-2.9150285720825195,-3.270578384399414,7.695198059082031,-0.5656719207763672,0.12677001953125,-0.2578010559082031,0.15653514862060547,0.8391704559326172,0.5154829025268555,-0.07488059997558594
10,474062112.0,-3.518385887145996,-3.146076202392578,7.9118804931640625,0.30147838592529297,-0.25673580169677734,0.12250900268554688,0.15653514862060547,0.8391704559326172,0.5154829025268555,-0.07488059997558594
11,474062112.0,-3.3819122314453125,-2.278151512145996,8.831281661987305,0.30147838592529297,-0.25673580169677734,0.12250900268554688,0.15653514862060547,0.8391704559326172,0.5154829025268555,-0.07488059997558594
12,474062144.0,-2.7725696563720703,-1.2881193161010742,9.629772186279297,0.3281106948852539,-0.3057394027709961,0.2013406753540039,0.1592111587524414,0.8399906158447266,0.5142316818237305,-0.06780242919921875
13,474062272.0,-2.372725486755371,-1.416213035583496,9.229928970336914,-0.12037849426269531,-0.1214437484741211,0.09374523162841797,0.1526508331298828,0.8367109298706055,0.5226039886474609,-0.059256553649902344
14,474062272.0,-2.682784080505371,-1.8388023376464844,9.11500358581543,-0.12037849426269531,-0.1214437484741211,0.09374523162841797,0.1526508331298828,0.8367109298706055,0.5226039886474609,-0.059256553649902344
15,474062304.0,-3.0179824829101562,-2.340402603149414,9.142537117004395,0.012783050537109375,-0.22051620483398438,0.11079025268554688,0.1521759033203125,0.8361063003540039,0.5238990783691406,-0.057745933532714844
16,474062304.0,-3.20473575592041,-1.9333763122558594,9.433442115783691,0.012783050537109375,-0.22051620483398438,0.11079025268554688,0.1521759033203125,0.8361063003540039,0.5238990783691406,-0.057745933532714844
17,474062336.0,-2.8228492736816406,-1.786128044128418,9.653715133666992,-0.040480613708496094,-0.2364950180053711,0.05859088897705078,0.15075206756591797,0.8357610702514648,0.5250205993652344,-0.05606365203857422
18,474062368.0,-2.650461196899414,-2.130904197692871,9.349641799926758,-0.040480613708496094,-0.2364950180053711,0.05859088897705078,0.15075206756591797,0.8357610702514648,0.5250205993652344,-0.05606365203857422
19,474062368.0,-2.281743049621582,-2.0746383666992188,9.268237113952637,-0.040480613708496094,-0.2364950180053711,0.05859088897705078,0.15075206756591797,0.8357610702514648,0.5250205993652344,-0.05606365203857422
20,474062400.0,-2.157240867614746,-1.7190885543823242,9.45618724822998,-0.040480613708496094,-0.2364950180053711,0.05859088897705078,0.15075206756591797,0.8357610702514648,0.5250205993652344,-0.05606365203857422
21,474062432.0,-1.9872474670410156,-1.9202079772949219,9.397527694702148,-0.040480613708496094,-0.2364950180053711,0.05859088897705078,0.15075206756591797,0.8357610702514648,0.5250205993652344,-0.05606365203857422
22,474062432.0,-1.978867530822754,-2.073441505432129,9.232322692871094,-0.040480613708496094,-0.2364950180053711,0.05859088897705078,0.15075206756591797,0.8357610702514648,0.5250205993652344,-0.05606365203857422
23,474062560.0,-2.044710159301758,-1.2809362411499023,9.583084106445312,0.04367637634277344,-0.2013406753540039,0.04367637634277344,0.1408681869506836,0.8332147598266602,0.5336093902587891,-0.033577919006347656
24,474062592.0,-1.8711252212524414,-1.701131820678711,9.465764999389648,0.052199363708496094,-0.20560169219970703,0.031958580017089844,0.13750171661376953,0.8331289291381836,0.5348176956176758,-0.03081512451171875
25,474062592.0,-1.8675336837768555,-1.9609107971191406,9.282602310180664,0.052199363708496094,-0.20560169219970703,0.031958580017089844,0.13750171661376953,0.8331289291381836,0.5348176956176758,-0.03081512451171875
26,474062624.0,-1.9932336807250977,-1.7801427841186523,9.466961860656738,0.08735370635986328,-0.2599315643310547,0.04900360107421875,0.1353445053100586,0.8331289291381836,0.5354223251342773,-0.0294342041015625
27,474062624.0,-1.919011116027832,-1.4940271377563477,9.757865905761719,0.08735370635986328,-0.2599315643310547,0.04900360107421875,0.1353445053100586,0.8331289291381836,0.5354223251342773,-0.0294342041015625
28,474062656.0,-1.9046449661254883,-1.385087013244629,9.741106033325195,0.08735370635986328,-0.2599315643310547,0.04900360107421875,0.1320638656616211,0.8332147598266602,0.536285400390625,-0.026067733764648438
29,474062688.0,-1.8004941940307617,-1.632894515991211,9.52681827545166,0.08735370635986328,-0.2599315643310547,0.04900360107421875,0.13115787506103516,0.8336467742919922,0.5359401702880859,-0.024384498596191406
30,474062688.0,-1.726271629333496,-1.638880729675293,9.581887245178223,0.08735370635986328,-0.2599315643310547,0.04900360107421875,0.13115787506103516,0.8336467742919922,0.5359401702880859,-0.024384498596191406
31,474062720.0,-1.7250747680664062,-1.9357709884643555,9.584280967712402,0.08735370635986328,-0.2599315643310547,0.04900360107421875,0.12869739532470703,0.8345527648925781,0.5352926254272461,-0.021492958068847656
32,474062720.0,-1.7346515655517578,-2.002810478210449,9.421470642089844,0.08735370635986328,-0.2599315643310547,0.04900360107421875,0.12869739532470703,0.8345527648925781,0.5352926254272461,-0.021492958068847656
33,474062944.0,-1.5538835525512695,-1.4377613067626953,10.032010078430176,0.11611652374267578,-0.026632308959960938,0.024501800537109375,0.10599613189697266,0.835113525390625,0.5396518707275391,-0.013379096984863281
34,474062976.0,-1.4186077117919922,-1.605360984802246,9.554352760314941,0.014913558959960938,0.06711292266845703,0.03621959686279297,0.10556507110595703,0.8348979949951172,0.5400400161743164,-0.014588356018066406
35,474063008.0,-1.828028678894043,-1.7083148956298828,9.377176284790039,-0.034089088439941406,0.07883167266845703,0.007456779479980469,0.10616874694824219,0.8348550796508789,0.5399103164672852,-0.015278816223144531
36,474063008.0,-1.4688873291015625,-1.693948745727539,9.469355583190918,-0.034089088439941406,0.07883167266845703,0.007456779479980469,0.10616874694824219,0.8348550796508789,0.5399103164672852,-0.015278816223144531
37,474063040.0,-1.3372020721435547,-1.5299406051635742,9.270630836486816,-0.08202743530273438,0.06711292266845703,-0.007456779479980469,0.106903076171875,0.8348121643066406,0.5398674011230469,-0.015666961669921875
38,474063168.0,-1.6472606658935547,-1.6364860534667969,9.519636154174805,-0.1097249984741211,-0.07776641845703125,-0.09587669372558594,0.106903076171875,0.8348121643066406,0.5398674011230469,-0.015666961669921875
39,474063168.0,-1.726271629333496,-1.4892387390136719,9.748289108276367,-0.1097249984741211,-0.07776641845703125,-0.09587669372558594,0.106903076171875,0.8348121643066406,0.5398674011230469,-0.015666961669921875
40,474063200.0,-1.3623418807983398,-1.7466230392456055,9.68603801727295,-0.05539512634277344,-0.057525634765625,-0.11185550689697266,0.106903076171875,0.8348121643066406,0.5398674011230469,-0.015666961669921875
41,474063200.0,-1.4186077117919922,-1.5012102127075195,9.832088470458984,-0.05539512634277344,-0.057525634765625,-0.11185550689697266,0.106903076171875,0.8348121643066406,0.5398674011230469,-0.015666961669921875
42,474063232.0,-1.3731164932250977,-1.7454261779785156,9.8069486618042,-0.11505126953125,-0.013848304748535156,-0.10546398162841797,0.11739063262939453,0.8380918502807617,0.5327033996582031,-0.006732940673828125
43,474063264.0,-1.504800796508789,-2.0614700317382812,9.64413833618164,-0.11505126953125,-0.013848304748535156,-0.10546398162841797,0.11782169342041016,0.8383941650390625,0.5321416854858398,-0.0063018798828125
44,474063264.0,-1.387481689453125,-2.1117496490478516,9.599843978881836,-0.11505126953125,-0.013848304748535156,-0.10546398162841797,0.11782169342041016,0.8383941650390625,0.5321416854858398,-0.0063018798828125
45,474063296.0,-1.3168506622314453,-2.067455291748047,9.670475006103516,-0.11505126953125,-0.013848304748535156,-0.10546398162841797,0.11734676361083984,0.8384370803833008,0.5321855545043945,-0.00591278076171875
46,474063328.0,-1.3144559860229492,-2.1165380477905273,9.50646686553955,-0.11505126953125,-0.013848304748535156,-0.10546398162841797,0.1177358627319336,0.838221549987793,0.5324869155883789,-0.005524635314941406
47,474063328.0,-1.3060760498046875,-2.105764389038086,9.353233337402344,-0.11505126953125,-0.013848304748535156,-0.10546398162841797,0.1177358627319336,0.838221549987793,0.5324869155883789,-0.005524635314941406
48,474063552.0,-1.4652957916259766,-1.6915550231933594,9.71476936340332,-0.0287628173828125,-0.03621959686279297,0.02982807159423828,0.11648368835449219,0.8351573944091797,0.53753662109375,-0.0020284652709960938
49,474063584.0,-1.4114246368408203,-1.9405593872070312,9.803357124328613,-0.0063915252685546875,-0.014913558959960938,-0.0010652542114257812,0.1164407730102539,0.835113525390625,0.5375804901123047,-0.0018129348754882812
50,474063584.0,-1.270162582397461,-1.8076772689819336,9.933845520019531,-0.0063915252685546875,-0.014913558959960938,-0.0010652542114257812,0.1164407730102539,0.835113525390625,0.5375804901123047,-0.0018129348754882812
51,474063616.0,-1.207911491394043,-1.8926734924316406,9.97574520111084,-0.031958580017089844,0.041545867919921875,0.024501800537109375,0.1169586181640625,0.8350706100463867,0.53753662109375,-0.00164031982421875
52,474063616.0,-1.328822135925293,-2.128509521484375,9.850045204162598,-0.031958580017089844,0.041545867919921875,0.024501800537109375,0.1169586181640625,0.8350706100463867,0.53753662109375,-0.00164031982421875
53,474063648.0,-1.3743133544921875,-2.0937929153442383,9.538789749145508,-0.031958580017089844,0.041545867919921875,0.024501800537109375,0.1169586181640625,0.8350706100463867,0.53753662109375,-0.00164031982421875
54,474063680.0,-1.3000907897949219,-1.729863166809082,9.751880645751953,-0.031958580017089844,0.041545867919921875,0.024501800537109375,0.1169586181640625,0.8350706100463867,0.53753662109375,-0.00164031982421875
55,474063680.0,-1.260584831237793,-1.6257123947143555,9.924267768859863,-0.031958580017089844,0.041545867919921875,0.024501800537109375,0.1169586181640625,0.8350706100463867,0.53753662109375,-0.00164031982421875
56,474063712.0,-1.3958616256713867,-1.8783082962036133,9.726740837097168,-0.031958580017089844,0.041545867919921875,0.024501800537109375,0.1169586181640625,0.8350706100463867,0.53753662109375,-0.00164031982421875
57,474063744.0,-1.3348073959350586,-1.8890819549560547,9.142537117004395,-0.031958580017089844,0.041545867919921875,0.024501800537109375,0.1169586181640625,0.8350706100463867,0.53753662109375,-0.00164031982421875
58,474063744.0,-1.387481689453125,-1.6903572082519531,9.42625904083252,-0.031958580017089844,0.041545867919921875,0.024501800537109375,0.1169586181640625,0.8350706100463867,0.53753662109375,-0.00164031982421875
59,474063744.0,-1.387481689453125,-1.6903572082519531,9.42625904083252,-0.031958580017089844,0.041545867919921875,0.024501800537109375,0.1169586181640625,0.8350706100463867,0.53753662109375,-0.00164031982421875
60,474063776.0,-1.5167722702026367,-1.665217399597168,9.700403213500977,-0.031958580017089844,0.041545867919921875,0.024501800537109375,0.1169586181640625,0.8350706100463867,0.53753662109375,-0.00164031982421875
61,474063776.0,-1.5167722702026367,-1.665217399597168,9.700403213500977,-0.031958580017089844,0.041545867919921875,0.024501800537109375,0.1169586181640625,0.8350706100463867,0.53753662109375,-0.00164031982421875
62,474063808.0,-1.6532459259033203,-1.7047233581542969,9.513649940490723,-0.031958580017089844,0.041545867919921875,0.024501800537109375,0.1169586181640625,0.8350706100463867,0.53753662109375,-0.00164031982421875
63,474063808.0,-1.6963434219360352,-1.5838127136230469,9.141340255737305,-0.031958580017089844,0.041545867919921875,0.024501800537109375,0.1169586181640625,0.8350706100463867,0.53753662109375,-0.00164031982421875
64,474063808.0,-1.6532459259033203,-1.7047233581542969,9.513649940490723,-0.031958580017089844,0.041545867919921875,0.024501800537109375,0.1169586181640625,0.8350706100463867,0.53753662109375,-0.00164031982421875
65,474063808.0,-1.6963434219360352,-1.5838127136230469,9.141340255737305,-0.031958580017089844,0.041545867919921875,0.024501800537109375,0.1169586181640625,0.8350706100463867,0.53753662109375,-0.00164031982421875
66,474063840.0,-1.6101493835449219,-1.8747167587280273,9.383162498474121,-0.052199363708496094,0.07883167266845703,0.0021305084228515625,0.1169586181640625,0.8350706100463867,0.53753662109375,-0.00164031982421875
67,474063840.0,-1.6101493835449219,-1.8747167587280273,9.383162498474121,-0.052199363708496094,0.07883167266845703,0.0021305084228515625,0.1169586181640625,0.8350706100463867,0.53753662109375,-0.00164031982421875
68,474063840.0,-1.606557846069336,-1.763382911682129,9.490904808044434,-0.052199363708496094,0.07883167266845703,0.0021305084228515625,0.1169586181640625,0.8350706100463867,0.53753662109375,-0.00164031982421875
69,474063872.0,-1.6759920120239258,-1.848379135131836,9.30654525756836,-0.12890052795410156,0.07563591003417969,-0.0021305084228515625,0.1169586181640625,0.8350706100463867,0.53753662109375,-0.00164031982421875
70,474063904.0,-1.6759920120239258,-1.952530860900879,9.510058403015137,-0.11079025268554688,0.026632308959960938,-0.00852203369140625,0.1169586181640625,0.8350706100463867,0.53753662109375,-0.00164031982421875
71,474063904.0,-1.4090299606323242,-2.1261157989501953,9.153311729431152,-0.11079025268554688,0.026632308959960938,-0.00852203369140625,0.1169586181640625,0.8350706100463867,0.53753662109375,-0.00164031982421875
72,474063936.0,-1.5838127136230469,-2.0195703506469727,8.518829345703125,-0.031958580017089844,-0.007456779479980469,-0.042611122131347656,0.1169586181640625,0.8350706100463867,0.53753662109375,-0.00164031982421875
73,474064064.0,-1.6400775909423828,-1.8962650299072266,9.501678466796875,-0.031958580017089844,-0.007456779479980469,-0.042611122131347656,0.12766170501708984,0.8312292098999023,0.5410327911376953,-0.008459091186523438
74,474064064.0,-1.5024070739746094,-1.8040857315063477,9.832088470458984,-0.031958580017089844,-0.007456779479980469,-0.042611122131347656,0.12766170501708984,0.8312292098999023,0.5410327911376953,-0.008459091186523438
75,474064096.0,-1.6005725860595703,-2.0315418243408203,9.393936157226562,-0.031958580017089844,-0.007456779479980469,-0.042611122131347656,0.12822341918945312,0.8308839797973633,0.5413780212402344,-0.0078125
76,474064096.0,-1.6879634857177734,-1.733454704284668,9.018034934997559,-0.031958580017089844,-0.007456779479980469,-0.042611122131347656,0.12822341918945312,0.8308839797973633,0.5413780212402344,-0.0078125
77,474064128.0,-1.5203638076782227,-1.7921142578125,9.706389427185059,-0.031958580017089844,-0.007456779479980469,-0.042611122131347656,0.12744617462158203,0.8311004638671875,0.5412483215332031,-0.007380485534667969
78,474064160.0,-1.4030447006225586,-2.094989776611328,9.802160263061523,-0.03728485107421875,-0.025567054748535156,0.010652542114257812,0.12744617462158203,0.8311004638671875,0.5412483215332031,-0.007380485534667969
79,474064160.0,-1.4509296417236328,-1.9178133010864258,9.231125831604004,-0.03728485107421875,-0.025567054748535156,0.010652542114257812,0.12744617462158203,0.8311004638671875,0.5412483215332031,-0.007380485534667969
80,474064192.0,-1.573038101196289,-1.5921926498413086,7.605413436889648,-0.08415794372558594,-0.022370338439941406,-0.00852203369140625,0.12744617462158203,0.8311004638671875,0.5412483215332031,-0.007380485534667969
81,474064224.0,-1.6137409210205078,-1.729863166809082,9.019232749938965,0.010652542114257812,-0.09694194793701172,0.021305084228515625,0.12744617462158203,0.8311004638671875,0.5412483215332031,-0.007380485534667969
82,474064224.0,-1.2126998901367188,-1.7753543853759766,10.307352066040039,0.010652542114257812,-0.09694194793701172,0.021305084228515625,0.12744617462158203,0.8311004638671875,0.5412483215332031,-0.007380485534667969
83,474064256.0,-1.1277027130126953,-2.091398239135742,9.932647705078125,0.010652542114257812,-0.09694194793701172,0.021305084228515625,0.12744617462158203,0.8311004638671875,0.5412483215332031,-0.007380485534667969
84,474064256.0,-1.4030447006225586,-2.339205741882324,7.937020301818848,0.010652542114257812,-0.09694194793701172,0.021305084228515625,0.12744617462158203,0.8311004638671875,0.5412483215332031,-0.007380485534667969
85,474064288.0,-1.4102277755737305,-2.3416004180908203,9.566324234008789,0.010652542114257812,-0.09694194793701172,0.021305084228515625,0.12744617462158203,0.8311004638671875,0.5412483215332031,-0.007380485534667969
86,474064320.0,-0.8846836090087891,-1.824437141418457,10.69761848449707,0.010652542114257812,-0.09694194793701172,0.021305084228515625,0.12744617462158203,0.8311004638671875,0.5412483215332031,-0.007380485534667969
87,474064320.0,-1.230656623840332,-2.1740007400512695,9.731529235839844,0.010652542114257812,-0.09694194793701172,0.021305084228515625,0.12744617462158203,0.8311004638671875,0.5412483215332031,-0.007380485534667969
88,474064352.0,-1.6269092559814453,-2.3092775344848633,8.419466972351074,0.010652542114257812,-0.09694194793701172,0.021305084228515625,0.1267557144165039,0.830927848815918,0.5416803359985352,0.004099845886230469
89,474064384.0,-1.1708002090454102,-2.251814842224121,9.939830780029297,0.10546398162841797,-0.1214437484741211,0.021305084228515625,0.12317371368408203,0.8309707641601562,0.5425004959106445,0.004920005798339844
90,474064384.0,-0.9936237335205078,-1.9513330459594727,10.500091552734375,0.10546398162841797,-0.1214437484741211,0.021305084228515625,0.12317371368408203,0.8309707641601562,0.5425004959106445,0.004920005798339844
91,474064416.0,-1.4018478393554688,-2.1955490112304688,9.850045204162598,0.060721397399902344,-0.0809621810913086,0.05113410949707031,0.12291431427001953,0.8307113647460938,0.5429315567016602,0.0054378509521484375
92,474064416.0,-1.391073226928711,-2.193155288696289,9.908705711364746,0.060721397399902344,-0.0809621810913086,0.05113410949707031,0.12291431427001953,0.8307113647460938,0.5429315567016602,0.0054378509521484375
93,474064448.0,-1.2749509811401367,-1.9441509246826172,9.894339561462402,0.005326271057128906,-0.0745706558227539,0.031958580017089844,0.12192153930664062,0.8305387496948242,0.5434494018554688,0.0057392120361328125
94,474064480.0,-1.5251522064208984,-2.0171756744384766,9.129368782043457,0.005326271057128906,-0.0745706558227539,0.031958580017089844,0.12192153930664062,0.8305387496948242,0.5434494018554688,0.0057392120361328125
95,474064480.0,-1.3443851470947266,-2.099778175354004,9.796174049377441,0.005326271057128906,-0.0745706558227539,0.031958580017089844,0.12192153930664062,0.8305387496948242,0.5434494018554688,0.0057392120361328125
96,474064480.0,-1.5251522064208984,-2.0171756744384766,9.129368782043457,0.005326271057128906,-0.0745706558227539,0.031958580017089844,0.12192153930664062,0.8305387496948242,0.5434494018554688,0.0057392120361328125
97,474064480.0,-1.3443851470947266,-2.099778175354004,9.796174049377441,0.005326271057128906,-0.0745706558227539,0.031958580017089844,0.12192153930664062,0.8305387496948242,0.5434494018554688,0.0057392120361328125
98,474064512.0,-1.0642547607421875,-1.9309816360473633,10.14693546295166,0.005326271057128906,-0.0745706558227539,0.031958580017089844,0.12192153930664062,0.8305387496948242,0.5434494018554688,0.0057392120361328125
99,474064512.0,-1.0642547607421875,-1.9309816360473633,10.14693546295166,0.005326271057128906,-0.0745706558227539,0.031958580017089844,0.12192153930664062,0.8305387496948242,0.5434494018554688,0.0057392120361328125
100,474064544.0,-1.3036823272705078,-2.0878067016601562,9.852439880371094,0.005326271057128906,-0.0745706558227539,0.031958580017089844,0.12192153930664062,0.8305387496948242,0.5434494018554688,0.0057392120361328125
101,474064544.0,-1.2857246398925781,-1.98126220703125,9.712374687194824,0.005326271057128906,-0.0745706558227539,0.031958580017089844,0.12192153930664062,0.8305387496948242,0.5434494018554688,0.0057392120361328125
102,474064544.0,-1.3036823272705078,-2.0878067016601562,9.852439880371094,0.005326271057128906,-0.0745706558227539,0.031958580017089844,0.12192153930664062,0.8305387496948242,0.5434494018554688,0.0057392120361328125
103,474064544.0,-1.2857246398925781,-1.98126220703125,9.712374687194824,0.005326271057128906,-0.0745706558227539,0.031958580017089844,0.12192153930664062,0.8305387496948242,0.5434494018554688,0.0057392120361328125
104,474064768.0,-1.1145343780517578,-2.0638647079467773,9.64653205871582,-0.0021305084228515625,0.02769756317138672,0.022370338439941406,0.1182098388671875,0.8294601440429688,0.5459098815917969,0.0069484710693359375
105,474064800.0,-1.2258682250976562,-2.0782299041748047,9.504073143005371,0.01810932159423828,0.0010652542114257812,0.014913558959960938,0.1182098388671875,0.8294601440429688,0.5459098815917969,0.0069484710693359375
106,474064800.0,-1.1588287353515625,-2.0207672119140625,9.566324234008789,0.01810932159423828,0.0010652542114257812,0.014913558959960938,0.1182098388671875,0.8294601440429688,0.5459098815917969,0.0069484710693359375
107,474064832.0,-1.1265058517456055,-1.8627452850341797,9.653715133666992,-0.004261016845703125,0.014913558959960938,0.02982807159423828,0.1182098388671875,0.8294601440429688,0.5459098815917969,0.0069484710693359375
108,474064832.0,-1.1636171340942383,-1.952530860900879,9.551958084106445,-0.004261016845703125,0.014913558959960938,0.02982807159423828,0.1182098388671875,0.8294601440429688,0.5459098815917969,0.0069484710693359375
109,474064960.0,-1.236642837524414,-2.0207672119140625,9.511256217956543,-0.030893325805664062,0.034089088439941406,0.020239830017089844,0.11829662322998047,0.8282089233398438,0.5477657318115234,0.004962921142578125
110,474064960.0,-1.236642837524414,-2.0207672119140625,9.511256217956543,-0.030893325805664062,0.034089088439941406,0.020239830017089844,0.11829662322998047,0.8282089233398438,0.5477657318115234,0.004962921142578125
111,474064992.0,-1.262979507446289,-1.9621076583862305,9.300559997558594,-0.014913558959960938,0.0170440673828125,0.01810932159423828,0.11829662322998047,0.8282089233398438,0.5477657318115234,0.004962921142578125
112,474064992.0,-1.262979507446289,-1.9621076583862305,9.300559997558594,-0.014913558959960938,0.0170440673828125,0.01810932159423828,0.11829662322998047,0.8282089233398438,0.5477657318115234,0.004962921142578125
113,474065024.0,-1.2186851501464844,-1.8783082962036133,9.54716968536377,-0.0021305084228515625,0.020239830017089844,0.02769756317138672,0.11829662322998047,0.8282089233398438,0.5477657318115234,0.004962921142578125
114,474065024.0,-1.1648139953613281,-1.9609107971191406,9.557944297790527,-0.0021305084228515625,0.020239830017089844,0.02769756317138672,0.11829662322998047,0.8282089233398438,0.5477657318115234,0.004962921142578125
115,474065024.0,-1.2186851501464844,-1.8783082962036133,9.54716968536377,-0.0021305084228515625,0.020239830017089844,0.02769756317138672,0.11829662322998047,0.8282089233398438,0.5477657318115234,0.004962921142578125
116,474065024.0,-1.1648139953613281,-1.9609107971191406,9.557944297790527,-0.0021305084228515625,0.020239830017089844,0.02769756317138672,0.11829662322998047,0.8282089233398438,0.5477657318115234,0.004962921142578125
117,474065056.0,-1.2474164962768555,-2.0231618881225586,9.319713592529297,0.0,0.013848304748535156,0.02769756317138672,0.11829662322998047,0.8282089233398438,0.5477657318115234,0.004962921142578125
118,474065056.0,-1.2474164962768555,-2.0231618881225586,9.319713592529297,0.0,0.013848304748535156,0.02769756317138672,0.11829662322998047,0.8282089233398438,0.5477657318115234,0.004962921142578125
119,474065056.0,-1.2545995712280273,-2.000415802001953,9.415484428405762,0.0,0.013848304748535156,0.02769756317138672,0.11829662322998047,0.8282089233398438,0.5477657318115234,0.004962921142578125
120,474065088.0,-1.1648139953613281,-1.9609107971191406,9.560338020324707,0.0,0.013848304748535156,0.02769756317138672,0.11829662322998047,0.8282089233398438,0.5477657318115234,0.004962921142578125
121,474065120.0,-1.1672086715698242,-1.91302490234375,9.568717956542969,0.0,0.013848304748535156,0.02769756317138672,0.11829662322998047,0.8282089233398438,0.5477657318115234,0.004962921142578125
122,474065120.0,-1.2174882888793945,-1.7753543853759766,9.492101669311523,0.0,0.013848304748535156,0.02769756317138672,0.11829662322998047,0.8282089233398438,0.5477657318115234,0.004962921142578125
123,474065152.0,-1.3467788696289062,-1.8352108001708984,9.450201988220215,0.04474163055419922,-0.031958580017089844,0.024501800537109375,0.11829662322998047,0.8282089233398438,0.5477657318115234,0.004962921142578125
124,474065152.0,-1.2486133575439453,-1.8699283599853516,9.523226737976074,0.04474163055419922,-0.031958580017089844,0.024501800537109375,0.11829662322998047,0.8282089233398438,0.5477657318115234,0.004962921142578125
125,474065184.0,-1.2186851501464844,-1.7047233581542969,9.508861541748047,0.021305084228515625,-0.03621959686279297,0.019174575805664062,0.11829662322998047,0.8282089233398438,0.5477657318115234,0.004962921142578125
126,474065216.0,-1.1923484802246094,-1.7837343215942383,9.508861541748047,0.0021305084228515625,-0.021305084228515625,0.0063915252685546875,0.11829662322998047,0.8282089233398438,0.5477657318115234,0.004962921142578125
127,474065216.0,-1.2198820114135742,-1.8435907363891602,9.519636154174805,0.0021305084228515625,-0.021305084228515625,0.0063915252685546875,0.11829662322998047,0.8282089233398438,0.5477657318115234,0.004962921142578125
128,474065248.0,-1.2869224548339844,-1.8723220825195312,9.482524871826172,0.013848304748535156,-0.02982807159423828,0.0063915252685546875,0.11579322814941406,0.8263092041015625,0.5512180328369141,0.0039272308349609375
129,474065280.0,-1.230656623840332,-1.8364086151123047,9.468158721923828,0.013848304748535156,-0.02982807159423828,0.0063915252685546875,0.1151895523071289,0.8263530731201172,0.5512609481811523,0.004099845886230469
130,474065280.0,-1.168405532836914,-1.7717628479003906,9.54716968536377,0.013848304748535156,-0.02982807159423828,0.0063915252685546875,0.1151895523071289,0.8263530731201172,0.5512609481811523,0.004099845886230469
131,474065312.0,-1.2318534851074219,-1.8196487426757812,9.487313270568848,0.013848304748535156,-0.02982807159423828,0.0063915252685546875,0.11458492279052734,0.8264389038085938,0.5512609481811523,0.004703521728515625
132,474065312.0,-1.1205196380615234,-1.828028678894043,9.480130195617676,0.013848304748535156,-0.02982807159423828,0.0063915252685546875,0.11458492279052734,0.8264389038085938,0.5512609481811523,0.004703521728515625
133,474065344.0,-1.1217174530029297,-1.8603506088256836,9.505270004272461,0.013848304748535156,-0.02982807159423828,0.0063915252685546875,0.11428260803222656,0.8265256881713867,0.5511751174926758,0.005092620849609375
134,474065472.0,-1.1181259155273438,-1.8783082962036133,9.607027053833008,0.00852203369140625,-0.020239830017089844,-0.031958580017089844,0.11428260803222656,0.8265256881713867,0.5511751174926758,0.005092620849609375
135,474065472.0,-1.139674186706543,-1.8531684875488281,9.630970001220703,0.00852203369140625,-0.020239830017089844,-0.031958580017089844,0.11428260803222656,0.8265256881713867,0.5511751174926758,0.005092620849609375
136,474065472.0,-1.1181259155273438,-1.8783082962036133,9.607027053833008,0.00852203369140625,-0.020239830017089844,-0.031958580017089844,0.11428260803222656,0.8265256881713867,0.5511751174926758,0.005092620849609375
137,474065472.0,-1.139674186706543,-1.8531684875488281,9.630970001220703,0.00852203369140625,-0.020239830017089844,-0.031958580017089844,0.11428260803222656,0.8265256881713867,0.5511751174926758,0.005092620849609375
138,474065504.0,-1.037917137145996,-1.9261932373046875,9.69681167602539,-0.0170440673828125,-0.010652542114257812,-0.021305084228515625,0.11428260803222656,0.8265256881713867,0.5511751174926758,0.005092620849609375
139,474065504.0,-1.037917137145996,-1.9261932373046875,9.69681167602539,-0.0170440673828125,-0.010652542114257812,-0.021305084228515625,0.11428260803222656,0.8265256881713867,0.5511751174926758,0.005092620849609375
140,474065536.0,-1.075028419494629,-2.006402015686035,9.724346160888672,-0.020239830017089844,0.011717796325683594,-0.014913558959960938,0.11428260803222656,0.8265256881713867,0.5511751174926758,0.005092620849609375
141,474065536.0,-1.1001691818237305,-1.9261932373046875,9.700403213500977,-0.020239830017089844,0.011717796325683594,-0.014913558959960938,0.11428260803222656,0.8265256881713867,0.5511751174926758,0.005092620849609375
142,474065536.0,-1.075028419494629,-2.006402015686035,9.724346160888672,-0.020239830017089844,0.011717796325683594,-0.014913558959960938,0.11428260803222656,0.8265256881713867,0.5511751174926758,0.005092620849609375
143,474065536.0,-1.1001691818237305,-1.9261932373046875,9.700403213500977,-0.020239830017089844,0.011717796325683594,-0.014913558959960938,0.11428260803222656,0.8265256881713867,0.5511751174926758,0.005092620849609375
144,474065664.0,-1.0965776443481445,-1.9585161209106445,9.590267181396484,-0.020239830017089844,0.011717796325683594,-0.014913558959960938,0.11428260803222656,0.8265256881713867,0.5511751174926758,0.005092620849609375
145,474065696.0,-1.1217174530029297,-1.948939323425293,9.513649940490723,-0.020239830017089844,0.011717796325683594,-0.014913558959960938,0.11428260803222656,0.8265256881713867,0.5511751174926758,0.005092620849609375
146,474065696.0,-1.109745979309082,-1.919011116027832,9.519636154174805,-0.020239830017089844,0.011717796325683594,-0.014913558959960938,0.11428260803222656,0.8265256881713867,0.5511751174926758,0.005092620849609375
147,474065728.0,-1.1600255966186523,-1.9920358657836914,9.613012313842773,-0.020239830017089844,0.011717796325683594,-0.014913558959960938,0.11428260803222656,0.8265256881713867,0.5511751174926758,0.005092620849609375
148,474065760.0,-1.1803770065307617,-1.952530860900879,9.532804489135742,0.022370338439941406,0.013848304748535156,0.02769756317138672,0.11428260803222656,0.8265256881713867,0.5511751174926758,0.005092620849609375
149,474065856.0,-1.1492509841918945,-1.824437141418457,9.59505558013916,0.014913558959960938,-0.009587287902832031,0.005326271057128906,0.11428260803222656,0.8265256881713867,0.5511751174926758,0.005092620849609375
150,474065856.0,-1.1492509841918945,-1.824437141418457,9.59505558013916,0.014913558959960938,-0.009587287902832031,0.005326271057128906,0.11428260803222656,0.8265256881713867,0.5511751174926758,0.005092620849609375
151,474065888.0,-1.136082649230957,-1.824437141418457,9.701601028442383,0.014913558959960938,-0.009587287902832031,0.005326271057128906,0.11428260803222656,0.8265256881713867,0.5511751174926758,0.005092620849609375
152,474065888.0,-1.136082649230957,-1.824437141418457,9.701601028442383,0.014913558959960938,-0.009587287902832031,0.005326271057128906,0.11428260803222656,0.8265256881713867,0.5511751174926758,0.005092620849609375
153,474065920.0,-1.1959400177001953,-1.8124656677246094,9.683643341064453,0.014913558959960938,-0.009587287902832031,0.005326271057128906,0.11428260803222656,0.8265256881713867,0.5511751174926758,0.005092620849609375
154,474065920.0,-1.1516456604003906,-1.8076772689819336,9.61780071258545,0.014913558959960938,-0.009587287902832031,0.005326271057128906,0.11428260803222656,0.8265256881713867,0.5511751174926758,0.005092620849609375
155,474065920.0,-1.1959400177001953,-1.8124656677246094,9.683643341064453,0.014913558959960938,-0.009587287902832031,0.005326271057128906,0.11428260803222656,0.8265256881713867,0.5511751174926758,0.005092620849609375
156,474065920.0,-1.1516456604003906,-1.8076772689819336,9.61780071258545,0.014913558959960938,-0.009587287902832031,0.005326271057128906,0.11428260803222656,0.8265256881713867,0.5511751174926758,0.005092620849609375
157,474065952.0,-1.0786199569702148,-1.850773811340332,9.729134559631348,-0.019174575805664062,0.033023834228515625,-0.0031957626342773438,0.11100292205810547,0.82781982421875,0.5498800277709961,0.005005836486816406
158,474065952.0,-1.0786199569702148,-1.850773811340332,9.729134559631348,-0.019174575805664062,0.033023834228515625,-0.0031957626342773438,0.11100292205810547,0.82781982421875,0.5498800277709961,0.005005836486816406
159,474066048.0,-1.1719970703125,-1.723876953125,9.59744930267334,0.007456779479980469,0.03621959686279297,0.010652542114257812,0.11182308197021484,0.8276042938232422,0.5500097274780273,0.0037546157836914062
160,474066048.0,-1.1719970703125,-1.723876953125,9.59744930267334,0.007456779479980469,0.03621959686279297,0.010652542114257812,0.11182308197021484,0.8276042938232422,0.5500097274780273,0.0037546157836914062
161,474066080.0,-1.1887569427490234,-1.763382911682129,9.52562141418457,0.007456779479980469,0.03621959686279297,0.010652542114257812,0.11182308197021484,0.8276042938232422,0.5500097274780273,0.0037546157836914062
162,474066080.0,-1.1887569427490234,-1.763382911682129,9.52562141418457,0.007456779479980469,0.03621959686279297,0.010652542114257812,0.11182308197021484,0.8276042938232422,0.5500097274780273,0.0037546157836914062
163,474066112.0,-1.175588607788086,-1.7358484268188477,9.40351390838623,0.007456779479980469,0.03621959686279297,0.010652542114257812,0.11182308197021484,0.8276042938232422,0.5500097274780273,0.0037546157836914062
164,474066112.0,-1.1516456604003906,-1.7131032943725586,9.460975646972656,0.007456779479980469,0.03621959686279297,0.010652542114257812,0.11182308197021484,0.8276042938232422,0.5500097274780273,0.0037546157836914062
165,474066112.0,-1.175588607788086,-1.7358484268188477,9.40351390838623,0.007456779479980469,0.03621959686279297,0.010652542114257812,0.11182308197021484,0.8276042938232422,0.5500097274780273,0.0037546157836914062
166,474066112.0,-1.1516456604003906,-1.7131032943725586,9.460975646972656,0.007456779479980469,0.03621959686279297,0.010652542114257812,0.11182308197021484,0.8276042938232422,0.5500097274780273,0.0037546157836914062
167,474066144.0,-1.2390365600585938,-1.759791374206543,9.40590763092041,0.007456779479980469,0.03621959686279297,0.010652542114257812,0.11182308197021484,0.8276042938232422,0.5500097274780273,0.0037546157836914062
168,474066144.0,-1.2390365600585938,-1.759791374206543,9.40590763092041,0.007456779479980469,0.03621959686279297,0.010652542114257812,0.11182308197021484,0.8276042938232422,0.5500097274780273,0.0037546157836914062
169,474066272.0,-1.1085491180419922,-1.8304224014282227,9.620195388793945,-0.02769756317138672,0.01597881317138672,-0.02769756317138672,0.11182308197021484,0.8276042938232422,0.5500097274780273,0.0037546157836914062
170,474066272.0,-1.103759765625,-1.8268308639526367,9.50646686553955,-0.02769756317138672,0.01597881317138672,-0.02769756317138672,0.11182308197021484,0.8276042938232422,0.5500097274780273,0.0037546157836914062
171,474066304.0,-1.2330513000488281,-1.7813396453857422,9.591464042663574,-0.014913558959960938,0.01597881317138672,-0.030893325805664062,0.11182308197021484,0.8276042938232422,0.5500097274780273,0.0037546157836914062
172,474066336.0,-1.136082649230957,-1.8627452850341797,9.560338020324707,-0.019174575805664062,0.009587287902832031,-0.03835010528564453,0.11182308197021484,0.8276042938232422,0.5500097274780273,0.0037546157836914062
173,474066336.0,-1.1468572616577148,-1.7502145767211914,9.57590103149414,-0.019174575805664062,0.009587287902832031,-0.03835010528564453,0.11182308197021484,0.8276042938232422,0.5500097274780273,0.0037546157836914062
174,474066368.0,-1.1384773254394531,-1.6735973358154297,9.573507308959961,-0.019174575805664062,0.009587287902832031,-0.03835010528564453,0.11182308197021484,0.8276042938232422,0.5500097274780273,0.0037546157836914062
175,474066368.0,-1.2091083526611328,-1.727468490600586,9.468158721923828,-0.019174575805664062,0.009587287902832031,-0.03835010528564453,0.11182308197021484,0.8276042938232422,0.5500097274780273,0.0037546157836914062
176,474066400.0,-1.1708002090454102,-1.752608299255371,9.462173461914062,-0.019174575805664062,0.009587287902832031,-0.03835010528564453,0.11182308197021484,0.8276042938232422,0.5500097274780273,0.0037546157836914062
177,474066432.0,-1.1576309204101562,-1.98126220703125,9.409499168395996,-0.019174575805664062,0.009587287902832031,-0.03835010528564453,0.11182308197021484,0.8276042938232422,0.5500097274780273,0.0037546157836914062
178,474066432.0,-1.204319953918457,-1.727468490600586,9.360416412353516,-0.019174575805664062,0.009587287902832031,-0.03835010528564453,0.11182308197021484,0.8276042938232422,0.5500097274780273,0.0037546157836914062
179,474066560.0,-1.1205196380615234,-2.0937929153442383,9.475341796875,-0.022370338439941406,-0.07030868530273438,-0.08202743530273438,0.1176919937133789,0.8328266143798828,0.5408172607421875,0.007466316223144531
180,474066560.0,-1.1205196380615234,-2.0937929153442383,9.475341796875,-0.022370338439941406,-0.07030868530273438,-0.08202743530273438,0.1176919937133789,0.8328266143798828,0.5408172607421875,0.007466316223144531
181,474066592.0,-1.0905914306640625,-2.0566816329956055,9.434638977050781,-0.022370338439941406,-0.07030868530273438,-0.08202743530273438,0.1176919937133789,0.8328266143798828,0.5408172607421875,0.007466316223144531
182,474066592.0,-1.1181259155273438,-1.9573192596435547,9.447807312011719,-0.022370338439941406,-0.07030868530273438,-0.08202743530273438,0.1176919937133789,0.8328266143798828,0.5408172607421875,0.007466316223144531
183,474066592.0,-1.0905914306640625,-2.0566816329956055,9.434638977050781,-0.022370338439941406,-0.07030868530273438,-0.08202743530273438,0.1176919937133789,0.8328266143798828,0.5408172607421875,0.007466316223144531
184,474066592.0,-1.1181259155273438,-1.9573192596435547,9.447807312011719,-0.022370338439941406,-0.07030868530273438,-0.08202743530273438,0.1176919937133789,0.8328266143798828,0.5408172607421875,0.007466316223144531
185,474066624.0,-1.0606632232666016,-1.9836559295654297,9.460975646972656,-0.022370338439941406,-0.07030868530273438,-0.08202743530273438,0.1176919937133789,0.8328266143798828,0.5408172607421875,0.007466316223144531
186,474066624.0,-1.0606632232666016,-1.9836559295654297,9.460975646972656,-0.022370338439941406,-0.07030868530273438,-0.08202743530273438,0.1176919937133789,0.8328266143798828,0.5408172607421875,0.007466316223144531
187,474066656.0,-1.0259466171264648,-2.044710159301758,9.35562801361084,-0.11931324005126953,-0.13103103637695312,-0.11079025268554688,0.1176919937133789,0.8328266143798828,0.5408172607421875,0.007466316223144531
188,474066656.0,-1.0259466171264648,-2.044710159301758,9.35562801361084,-0.11931324005126953,-0.13103103637695312,-0.11079025268554688,0.1176919937133789,0.8328266143798828,0.5408172607421875,0.007466316223144531
189,474066656.0,-0.9756660461425781,-2.097384452819824,9.302953720092773,-0.11931324005126953,-0.13103103637695312,-0.11079025268554688,0.1176919937133789,0.8328266143798828,0.5408172607421875,0.007466316223144531
190,474066688.0,-0.7805328369140625,-2.2997007369995117,9.293376922607422,-0.03835010528564453,-0.17577362060546875,-0.08415794372558594,0.1176919937133789,0.8328266143798828,0.5408172607421875,0.007466316223144531
191,474066688.0,-0.6356792449951172,-2.812075614929199,8.948601722717285,-0.03835010528564453,-0.17577362060546875,-0.08415794372558594,0.1176919937133789,0.8328266143798828,0.5408172607421875,0.007466316223144531
192,474066720.0,-0.2657642364501953,-3.1963558197021484,8.7654390335083,0.0745706558227539,-0.2428874969482422,-0.04900360107421875,0.1176919937133789,0.8328266143798828,0.5408172607421875,0.007466316223144531
193,474066752.0,-0.06464481353759766,-4.027169227600098,8.351229667663574,0.12996578216552734,-0.33024120330810547,0.054329872131347656,0.11070060729980469,0.8363656997680664,0.5364151000976562,0.02326202392578125
194,474066848.0,0.924189567565918,-4.588626861572266,9.683643341064453,0.12996578216552734,-0.33024120330810547,0.054329872131347656,0.08260440826416016,0.8225975036621094,0.5614900588989258,0.03478527069091797
195,474066848.0,0.924189567565918,-4.588626861572266,9.683643341064453,0.12996578216552734,-0.33024120330810547,0.054329872131347656,0.08260440826416016,0.8225975036621094,0.5614900588989258,0.03478527069091797
196,474066880.0,0.682368278503418,-3.4441633224487305,11.200416564941406,0.12996578216552734,-0.33024120330810547,0.054329872131347656,0.08260440826416016,0.8225975036621094,0.5614900588989258,0.03478527069091797
197,474066880.0,0.682368278503418,-3.4441633224487305,11.200416564941406,0.12996578216552734,-0.33024120330810547,0.054329872131347656,0.08260440826416016,0.8225975036621094,0.5614900588989258,0.03478527069091797
198,474066912.0,0.025139808654785156,-3.70513916015625,11.819336891174316,0.12996578216552734,-0.33024120330810547,0.054329872131347656,0.08260440826416016,0.8225975036621094,0.5614900588989258,0.03478527069091797
199,474066912.0,-0.4201946258544922,-3.933793067932129,11.808562278747559,0.12996578216552734,-0.33024120330810547,0.054329872131347656,0.08260440826416016,0.8225975036621094,0.5614900588989258,0.03478527069091797
200,474066912.0,0.025139808654785156,-3.70513916015625,11.819336891174316,0.12996578216552734,-0.33024120330810547,0.054329872131347656,0.08260440826416016,0.8225975036621094,0.5614900588989258,0.03478527069091797
201,474066912.0,-0.4201946258544922,-3.933793067932129,11.808562278747559,0.12996578216552734,-0.33024120330810547,0.054329872131347656,0.08260440826416016,0.8225975036621094,0.5614900588989258,0.03478527069091797
202,474066944.0,-0.4728689193725586,-2.353571891784668,12.914717674255371,0.12996578216552734,-0.33024120330810547,0.054329872131347656,0.08260440826416016,0.8225975036621094,0.5614900588989258,0.03478527069091797
203,474066944.0,-0.4728689193725586,-2.353571891784668,12.914717674255371,0.12996578216552734,-0.33024120330810547,0.054329872131347656,0.08260440826416016,0.8225975036621094,0.5614900588989258,0.03478527069091797
204,474066976.0,-0.11971282958984375,-0.8284187316894531,13.800599098205566,0.9353303909301758,0.40587806701660156,2.7527265548706055,0.08260440826416016,0.8225975036621094,0.5614900588989258,0.03478527069091797
205,474066976.0,-0.48005199432373047,-0.1711902618408203,14.233963012695312,0.9353303909301758,0.40587806701660156,2.7527265548706055,0.08260440826416016,0.8225975036621094,0.5614900588989258,0.03478527069091797
206,474067008.0,-0.4501228332519531,0.7482099533081055,14.510501861572266,1.2346782684326172,1.139866828918457,2.5567121505737305,0.08260440826416016,0.8225975036621094,0.5614900588989258,0.03478527069091797
207,474067008.0,0.027533531188964844,1.3814964294433594,14.931893348693848,1.2346782684326172,1.139866828918457,2.5567121505737305,0.08260440826416016,0.8225975036621094,0.5614900588989258,0.03478527069091797
208,474067040.0,0.4369544982910156,2.5463104248046875,15.222798347473145,1.091928482055664,1.608597755432129,2.346848487854004,0.08260440826416016,0.8225975036621094,0.5614900588989258,0.03478527069091797
209,474067072.0,0.6715936660766602,3.061079978942871,14.570358276367188,1.091928482055664,1.608597755432129,2.346848487854004,0.08260440826416016,0.8225975036621094,0.5614900588989258,0.03478527069091797
210,474067072.0,0.4525175094604492,4.114561080932617,14.00890064239502,1.091928482055664,1.608597755432129,2.346848487854004,0.08260440826416016,0.8225975036621094,0.5614900588989258,0.03478527069091797
211,474067104.0,0.32681846618652344,4.539544105529785,13.320547103881836,1.091928482055664,1.608597755432129,2.346848487854004,0.08260440826416016,0.8225975036621094,0.5614900588989258,0.03478527069091797
212,474067136.0,0.015562057495117188,4.453350067138672,12.482550621032715,1.091928482055664,1.608597755432129,2.346848487854004,0.08260440826416016,0.8225975036621094,0.5614900588989258,0.03478527069091797
213,474067136.0,-0.19393539428710938,4.598203659057617,11.352453231811523,1.091928482055664,1.608597755432129,2.346848487854004,0.08260440826416016,0.8225975036621094,0.5614900588989258,0.03478527069091797
214,474067168.0,-0.15562725067138672,5.498451232910156,10.508471488952637,0.011717796325683594,3.2480897903442383,0.3579397201538086,0.08260440826416016,0.8225975036621094,0.5614900588989258,0.03478527069091797
215,474067168.0,-0.22984981536865234,6.468132972717285,9.464567184448242,0.011717796325683594,3.2480897903442383,0.3579397201538086,0.08260440826416016,0.8225975036621094,0.5614900588989258,0.03478527069091797
216,474067168.0,-0.15562725067138672,5.498451232910156,10.508471488952637,0.011717796325683594,3.2480897903442383,0.3579397201538086,0.08260440826416016,0.8225975036621094,0.5614900588989258,0.03478527069091797
217,474067168.0,-0.22984981536865234,6.468132972717285,9.464567184448242,0.011717796325683594,3.2480897903442383,0.3579397201538086,0.08260440826416016,0.8225975036621094,0.5614900588989258,0.03478527069091797
218,474067200.0,-0.9732723236083984,6.626154899597168,7.867586135864258,0.25673580169677734,3.2299795150756836,-0.04900360107421875,0.08260440826416016,0.8225975036621094,0.5614900588989258,0.03478527069091797
219,474067200.0,-0.9732723236083984,6.626154899597168,7.867586135864258,0.25673580169677734,3.2299795150756836,-0.04900360107421875,0.08260440826416016,0.8225975036621094,0.5614900588989258,0.03478527069091797
220,474067232.0,-1.5347299575805664,6.628548622131348,7.352817535400391,0.29082584381103516,2.9604597091674805,-1.0407943725585938,0.08260440826416016,0.8225975036621094,0.5614900588989258,0.03478527069091797
221,474067232.0,-1.8268308639526367,6.11497688293457,6.891919136047363,0.29082584381103516,2.9604597091674805,-1.0407943725585938,0.08260440826416016,0.8225975036621094,0.5614900588989258,0.03478527069091797
222,474067232.0,-1.5347299575805664,6.628548622131348,7.352817535400391,0.29082584381103516,2.9604597091674805,-1.0407943725585938,0.08260440826416016,0.8225975036621094,0.5614900588989258,0.03478527069091797
223,474067232.0,-1.8268308639526367,6.11497688293457,6.891919136047363,0.29082584381103516,2.9604597091674805,-1.0407943725585938,0.08260440826416016,0.8225975036621094,0.5614900588989258,0.03478527069091797
224,474067360.0,-3.589016914367676,0.4261808395385742,1.4629011154174805,0.14168357849121094,0.8660860061645508,-2.945545196533203,0.08260440826416016,0.8225975036621094,0.5614900588989258,0.03478527069091797
225,474067392.0,-4.006817817687988,0.0011968612670898438,1.3791017532348633,0.3270454406738281,-0.011717796325683594,-3.1937599182128906,0.08260440826416016,0.8225975036621094,0.5614900588989258,0.03478527069091797
226,474067392.0,-4.252231597900391,-0.7039165496826172,1.1085491180419922,0.3270454406738281,-0.011717796325683594,-3.1937599182128906,0.08260440826416016,0.8225975036621094,0.5614900588989258,0.03478527069091797
227,474067424.0,-4.268991470336914,-1.8615484237670898,1.0618600845336914,0.5709991455078125,-1.013096809387207,-3.234241485595703,0.08260440826416016,0.8225975036621094,0.5614900588989258,0.03478527069091797
228,474067424.0,-3.2502269744873047,-3.5411319732666016,1.6735973358154297,0.5709991455078125,-1.013096809387207,-3.234241485595703,0.08260440826416016,0.8225975036621094,0.5614900588989258,0.03478527069091797
229,474067456.0,-2.8910865783691406,-4.810097694396973,3.237058639526367,0.6924428939819336,-1.3934078216552734,-3.1628665924072266,0.08260440826416016,0.8225975036621094,0.5614900588989258,0.03478527069091797
230,474067456.0,-2.8910865783691406,-4.810097694396973,3.237058639526367,0.6924428939819336,-1.3934078216552734,-3.1628665924072266,0.08260440826416016,0.8225975036621094,0.5614900588989258,0.03478527069091797
231,474067488.0,-2.821652412414551,-5.115367889404297,3.713520050048828,0.874608039855957,-2.0048885345458984,-2.905064582824707,0.08260440826416016,0.8225975036621094,0.5614900588989258,0.03478527069091797
232,474067488.0,-2.5606765747070312,-6.01441764831543,4.197162628173828,0.874608039855957,-2.0048885345458984,-2.905064582824707,0.08260440826416016,0.8225975036621094,0.5614900588989258,0.03478527069091797
233,474067488.0,-2.821652412414551,-5.115367889404297,3.713520050048828,0.874608039855957,-2.0048885345458984,-2.905064582824707,0.08260440826416016,0.8225975036621094,0.5614900588989258,0.03478527069091797
234,474067488.0,-2.5606765747070312,-6.01441764831543,4.197162628173828,0.874608039855957,-2.0048885345458984,-2.905064582824707,0.08260440826416016,0.8225975036621094,0.5614900588989258,0.03478527069091797
235,474067520.0,-1.332413673400879,-7.649706840515137,5.44577693939209,0.9534406661987305,-2.2605600357055664,-2.63234806060791,0.08260440826416016,0.8225975036621094,0.5614900588989258,0.03478527069091797
236,474067520.0,-1.332413673400879,-7.649706840515137,5.44577693939209,0.9534406661987305,-2.2605600357055664,-2.63234806060791,0.08260440826416016,0.8225975036621094,0.5614900588989258,0.03478527069091797
237,474067552.0,-0.9624977111816406,-8.18482780456543,5.789356231689453,0.7606210708618164,-2.351109504699707,-2.3756113052368164,0.08260440826416016,0.8225975036621094,0.5614900588989258,0.03478527069091797
238,474067552.0,-0.9624977111816406,-8.18482780456543,5.789356231689453,0.7606210708618164,-2.351109504699707,-2.3756113052368164,0.08260440826416016,0.8225975036621094,0.5614900588989258,0.03478527069091797
239,474067552.0,-1.5850095748901367,-7.9442033767700195,6.103005409240723,0.7606210708618164,-2.351109504699707,-2.3756113052368164,0.08260440826416016,0.8225975036621094,0.5614900588989258,0.03478527069091797
240,474067584.0,-1.5251522064208984,-8.338061332702637,6.835654258728027,0.7606210708618164,-2.351109504699707,-2.3756113052368164,0.08260440826416016,0.8225975036621094,0.5614900588989258,0.03478527069091797
241,474067584.0,-1.262979507446289,-8.789381980895996,8.109408378601074,0.7606210708618164,-2.351109504699707,-2.3756113052368164,0.08260440826416016,0.8225975036621094,0.5614900588989258,0.03478527069091797
242,474067616.0,-0.8966550827026367,-9.59625244140625,8.608613967895508,0.7606210708618164,-2.351109504699707,-2.3756113052368164,0.08260440826416016,0.8225975036621094,0.5614900588989258,0.03478527069091797
243,474067648.0,-0.4094209671020508,-8.814521789550781,9.401119232177734,0.4719257354736328,-2.2222089767456055,0.2524747848510742,0.2289113998413086,0.8575992584228516,0.4605426788330078,-8.678436279296875e-05
244,474067744.0,-1.9848527908325195,-5.146492958068848,11.104645729064941,0.20027542114257812,-1.8291139602661133,1.7534780502319336,0.17742347717285156,0.8364944458007812,0.5159149169921875,0.051746368408203125
245,474067776.0,-1.6472606658935547,-5.742667198181152,10.984931945800781,0.20027542114257812,-1.8291139602661133,1.7534780502319336,0.17742347717285156,0.8364944458007812,0.5159149169921875,0.051746368408203125
246,474067808.0,-1.2198820114135742,-2.2697715759277344,13.751516342163086,0.20027542114257812,-1.8291139602661133,1.7534780502319336,0.17742347717285156,0.8364944458007812,0.5159149169921875,0.051746368408203125
247,474067808.0,-0.6332855224609375,0.7458162307739258,14.870840072631836,0.20027542114257812,-1.8291139602661133,1.7534780502319336,0.17742347717285156,0.8364944458007812,0.5159149169921875,0.051746368408203125
248,474067840.0,-0.6213140487670898,-0.3579435348510742,12.88838005065918,0.20027542114257812,-1.8291139602661133,1.7534780502319336,0.17742347717285156,0.8364944458007812,0.5159149169921875,0.051746368408203125
249,474067872.0,-1.3072738647460938,-0.5219516754150391,12.270657539367676,0.6935081481933594,-0.040480613708496094,0.786189079284668,0.17742347717285156,0.8364944458007812,0.5159149169921875,0.051746368408203125
250,474067872.0,-0.6835651397705078,0.6883535385131836,12.960208892822266,0.6935081481933594,-0.040480613708496094,0.786189079284668,0.17742347717285156,0.8364944458007812,0.5159149169921875,0.051746368408203125
251,474067904.0,-0.2765378952026367,0.6344823837280273,12.59627914428711,-0.1331615447998047,0.2876300811767578,0.5986967086791992,0.17742347717285156,0.8364944458007812,0.5159149169921875,0.051746368408203125
252,474067904.0,-0.4465312957763672,0.046688079833984375,11.278230667114258,-0.1331615447998047,0.2876300811767578,0.5986967086791992,0.17742347717285156,0.8364944458007812,0.5159149169921875,0.051746368408203125
253,474067936.0,-0.39505481719970703,-0.27773571014404297,10.776630401611328,0.023435592651367188,0.3217191696166992,0.45381641387939453,0.17742347717285156,0.8364944458007812,0.5159149169921875,0.051746368408203125
254,474067968.0,-0.46329212188720703,-0.6476507186889648,9.891945838928223,0.023435592651367188,0.3217191696166992,0.45381641387939453,0.17742347717285156,0.8364944458007812,0.5159149169921875,0.051746368408203125
255,474067968.0,-0.4704742431640625,-0.8798952102661133,9.845256805419922,0.023435592651367188,0.3217191696166992,0.45381641387939453,0.17742347717285156,0.8364944458007812,0.5159149169921875,0.051746368408203125
256,474068000.0,-0.2968893051147461,-0.8451786041259766,10.032010078430176,0.023435592651367188,0.3217191696166992,0.45381641387939453,0.17742347717285156,0.8364944458007812,0.5159149169921875,0.051746368408203125
257,474068032.0,-0.3256206512451172,-1.1492509841918945,9.579492568969727,0.023435592651367188,0.3217191696166992,0.45381641387939453,0.11588001251220703,0.7633848190307617,0.6341686248779297,0.040093421936035156
258,474068032.0,-0.48244571685791016,-1.7286663055419922,9.02521800994873,0.023435592651367188,0.3217191696166992,0.45381641387939453,0.11588001251220703,0.7633848190307617,0.6341686248779297,0.040093421936035156
259,474068160.0,-0.6332855224609375,-1.8878850936889648,9.59625244140625,0.0,0.10226821899414062,-0.15979385375976562,0.09468936920166016,0.7700738906860352,0.6297235488891602,0.03910064697265625
260,474068160.0,-0.8403902053833008,-2.372725486755371,9.172466278076172,0.0,0.10226821899414062,-0.15979385375976562,0.09468936920166016,0.7700738906860352,0.6297235488891602,0.03910064697265625
261,474068192.0,-0.9397525787353516,-2.2458295822143555,9.302953720092773,0.0,0.10226821899414062,-0.15979385375976562,0.09468936920166016,0.7700738906860352,0.6297235488891602,0.03910064697265625
262,474068224.0,-1.1181259155273438,-2.0866098403930664,9.384359359741211,0.0,0.10226821899414062,-0.15979385375976562,0.09468936920166016,0.7700738906860352,0.6297235488891602,0.03910064697265625
263,474068224.0,-1.109745979309082,-2.2434349060058594,9.652518272399902,0.0,0.10226821899414062,-0.15979385375976562,0.09468936920166016,0.7700738906860352,0.6297235488891602,0.03910064697265625
264,474068256.0,-1.116929054260254,-2.353571891784668,9.656109809875488,0.07137489318847656,0.09374523162841797,-0.11185550689697266,0.09468936920166016,0.7700738906860352,0.6297235488891602,0.03910064697265625
265,474068288.0,-1.0618600845336914,-2.0782299041748047,9.361613273620605,-0.0287628173828125,0.14274978637695312,-0.1448802947998047,0.09468936920166016,0.7700738906860352,0.6297235488891602,0.03910064697265625
266,474068288.0,-1.075028419494629,-2.2398433685302734,9.373584747314453,-0.0287628173828125,0.14274978637695312,-0.1448802947998047,0.09468936920166016,0.7700738906860352,0.6297235488891602,0.03910064697265625
267,474068320.0,-0.9900321960449219,-2.4613142013549805,9.514846801757812,-0.09481048583984375,0.15127182006835938,-0.12890052795410156,0.09468936920166016,0.7700738906860352,0.6297235488891602,0.03910064697265625
268,474068352.0,-1.132491111755371,-2.318854331970215,9.378373146057129,-0.08202743530273438,0.15446758270263672,-0.07883167266845703,0.10694599151611328,0.7806482315063477,0.6150064468383789,0.02934741973876953
269,474068352.0,-1.1708002090454102,-2.3679370880126953,9.37597942352295,-0.08202743530273438,0.15446758270263672,-0.07883167266845703,0.10694599151611328,0.7806482315063477,0.6150064468383789,0.02934741973876953
270,474068384.0,-1.2103052139282227,-2.5235652923583984,9.156903266906738,-0.10759449005126953,0.1033334732055664,-0.04900360107421875,0.11001014709472656,0.7807340621948242,0.6144018173217773,0.02921772003173828
271,474068384.0,-1.1743907928466797,-2.349980354309082,9.038386344909668,-0.10759449005126953,0.1033334732055664,-0.04900360107421875,0.11001014709472656,0.7807340621948242,0.6144018173217773,0.02921772003173828
272,474068416.0,-1.3779048919677734,-2.130904197692871,9.251477241516113,-0.07670116424560547,0.09694194793701172,-0.040480613708496094,0.11247062683105469,0.7811660766601562,0.6134529113769531,0.028829574584960938
273,474068448.0,-1.357553482055664,-2.138087272644043,9.313728332519531,-0.034089088439941406,0.0745706558227539,-0.05006885528564453,0.11247062683105469,0.7811660766601562,0.6134529113769531,0.028829574584960938
274,474068448.0,-1.2976961135864258,-2.097384452819824,9.09345531463623,-0.034089088439941406,0.0745706558227539,-0.05006885528564453,0.11247062683105469,0.7811660766601562,0.6134529113769531,0.028829574584960938
275,474068448.0,-1.2976961135864258,-2.097384452819824,9.09345531463623,-0.034089088439941406,0.0745706558227539,-0.05006885528564453,0.11247062683105469,0.7811660766601562,0.6134529113769531,0.028829574584960938
276,474068480.0,-1.2390365600585938,-2.212308883666992,9.162888526916504,-0.034089088439941406,0.0745706558227539,-0.05006885528564453,0.11247062683105469,0.7811660766601562,0.6134529113769531,0.028829574584960938
277,474068480.0,-1.2593879699707031,-2.162029266357422,9.30654525756836,-0.034089088439941406,0.0745706558227539,-0.05006885528564453,0.11247062683105469,0.7811660766601562,0.6134529113769531,0.028829574584960938
278,474068480.0,-1.2390365600585938,-2.212308883666992,9.162888526916504,-0.034089088439941406,0.0745706558227539,-0.05006885528564453,0.11247062683105469,0.7811660766601562,0.6134529113769531,0.028829574584960938
279,474068480.0,-1.2593879699707031,-2.162029266357422,9.30654525756836,-0.034089088439941406,0.0745706558227539,-0.05006885528564453,0.11247062683105469,0.7811660766601562,0.6134529113769531,0.028829574584960938
280,474068512.0,-1.328822135925293,-2.047104835510254,9.387950897216797,-0.034089088439941406,0.0745706558227539,-0.05006885528564453,0.11247062683105469,0.7811660766601562,0.6134529113769531,0.028829574584960938
281,474068512.0,-1.328822135925293,-2.047104835510254,9.387950897216797,-0.034089088439941406,0.0745706558227539,-0.05006885528564453,0.11247062683105469,0.7811660766601562,0.6134529113769531,0.028829574584960938
282,474068544.0,-1.1923484802246094,-2.3008975982666016,9.447807312011719,0.014913558959960938,-0.007456779479980469,-0.03728485107421875,0.11247062683105469,0.7811660766601562,0.6134529113769531,0.028829574584960938
283,474068544.0,-1.1923484802246094,-2.3008975982666016,9.447807312011719,0.014913558959960938,-0.007456779479980469,-0.03728485107421875,0.11247062683105469,0.7811660766601562,0.6134529113769531,0.028829574584960938
284,474068640.0,-1.1923484802246094,-2.194352149963379,9.419075965881348,0.031958580017089844,-0.004261016845703125,-0.025567054748535156,0.11247062683105469,0.7811660766601562,0.6134529113769531,0.028829574584960938
285,474068640.0,-1.1923484802246094,-2.194352149963379,9.419075965881348,0.031958580017089844,-0.004261016845703125,-0.025567054748535156,0.11247062683105469,0.7811660766601562,0.6134529113769531,0.028829574584960938
286,474068672.0,-1.2318534851074219,-2.438568115234375,9.445413589477539,0.031958580017089844,-0.004261016845703125,-0.025567054748535156,0.11247062683105469,0.7811660766601562,0.6134529113769531,0.028829574584960938
287,474068672.0,-1.2318534851074219,-2.438568115234375,9.445413589477539,0.031958580017089844,-0.004261016845703125,-0.025567054748535156,0.11247062683105469,0.7811660766601562,0.6134529113769531,0.028829574584960938
288,474068704.0,-1.328822135925293,-2.324840545654297,9.543578147888184,0.031958580017089844,-0.004261016845703125,-0.025567054748535156,0.11247062683105469,0.7811660766601562,0.6134529113769531,0.028829574584960938
289,474068704.0,-1.2450227737426758,-2.212308883666992,9.459778785705566,0.031958580017089844,-0.004261016845703125,-0.025567054748535156,0.11247062683105469,0.7811660766601562,0.6134529113769531,0.028829574584960938
290,474068704.0,-1.328822135925293,-2.324840545654297,9.543578147888184,0.031958580017089844,-0.004261016845703125,-0.025567054748535156,0.11247062683105469,0.7811660766601562,0.6134529113769531,0.028829574584960938
291,474068704.0,-1.2450227737426758,-2.212308883666992,9.459778785705566,0.031958580017089844,-0.004261016845703125,-0.025567054748535156,0.11247062683105469,0.7811660766601562,0.6134529113769531,0.028829574584960938
292,474068736.0,-1.1959400177001953,-2.1404809951782227,9.556747436523438,0.031958580017089844,-0.004261016845703125,-0.025567054748535156,0.11247062683105469,0.7811660766601562,0.6134529113769531,0.028829574584960938
293,474068736.0,-1.1959400177001953,-2.1404809951782227,9.556747436523438,0.031958580017089844,-0.004261016845703125,-0.025567054748535156,0.11247062683105469,0.7811660766601562,0.6134529113769531,0.028829574584960938
294,474068768.0,-1.1911516189575195,-2.005204200744629,9.599843978881836,-0.03728485107421875,-0.00852203369140625,-0.021305084228515625,0.11247062683105469,0.7811660766601562,0.6134529113769531,0.028829574584960938
295,474068768.0,-1.204319953918457,-2.0925960540771484,9.584280967712402,-0.03728485107421875,-0.00852203369140625,-0.021305084228515625,0.11247062683105469,0.7811660766601562,0.6134529113769531,0.028829574584960938
296,474068800.0,-1.204319953918457,-2.0925960540771484,9.443018913269043,0.0,-0.009587287902832031,-0.022370338439941406,0.11247062683105469,0.7811660766601562,0.6134529113769531,0.028829574584960938
297,474068800.0,-1.139674186706543,-2.2458295822143555,9.507664680480957,0.0,-0.009587287902832031,-0.022370338439941406,0.11247062683105469,0.7811660766601562,0.6134529113769531,0.028829574584960938
298,474068832.0,-1.1708002090454102,-2.175198554992676,9.514846801757812,0.033023834228515625,-0.01810932159423828,-0.026632308959960938,0.11247062683105469,0.7811660766601562,0.6134529113769531,0.028829574584960938
299,474068864.0,-1.1612224578857422,-2.1297073364257812,9.398724555969238,0.033023834228515625,-0.01810932159423828,-0.026632308959960938,0.11247062683105469,0.7811660766601562,0.6134529113769531,0.028829574584960938
300,474068864.0,-1.1265058517456055,-2.099778175354004,9.488510131835938,0.033023834228515625,-0.01810932159423828,-0.026632308959960938,0.11247062683105469,0.7811660766601562,0.6134529113769531,0.028829574584960938
301,474068896.0,-1.1408710479736328,-2.258997917175293,9.441822052001953,0.033023834228515625,-0.01810932159423828,-0.026632308959960938,0.11247062683105469,0.7811660766601562,0.6134529113769531,0.028829574584960938
302,474068928.0,-1.198333740234375,-2.254209518432617,9.463370323181152,0.033023834228515625,-0.01810932159423828,-0.026632308959960938,0.11247062683105469,0.7811660766601562,0.6134529113769531,0.028829574584960938
303,474068928.0,-1.0726346969604492,-2.1991405487060547,9.45499038696289,0.033023834228515625,-0.01810932159423828,-0.026632308959960938,0.11247062683105469,0.7811660766601562,0.6134529113769531,0.028829574584960938
304,474068960.0,-1.1492509841918945,-2.189563751220703,9.572309494018555,-0.0021305084228515625,-0.004261016845703125,-0.026632308959960938,0.11247062683105469,0.7811660766601562,0.6134529113769531,0.028829574584960938
305,474068960.0,-1.1013660430908203,-2.193155288696289,9.4968900680542,-0.0021305084228515625,-0.004261016845703125,-0.026632308959960938,0.11247062683105469,0.7811660766601562,0.6134529113769531,0.028829574584960938
306,474068992.0,-1.2091083526611328,-2.288926124572754,9.555549621582031,0.012783050537109375,0.007456779479980469,-0.010652542114257812,0.11247062683105469,0.7811660766601562,0.6134529113769531,0.028829574584960938
307,474069024.0,-1.266571044921875,-2.229069709777832,9.511256217956543,0.03835010528564453,-0.0170440673828125,-0.00852203369140625,0.11247062683105469,0.7811660766601562,0.6134529113769531,0.028829574584960938
308,474069024.0,-1.169602394104004,-2.175198554992676,9.52681827545166,0.03835010528564453,-0.0170440673828125,-0.00852203369140625,0.11247062683105469,0.7811660766601562,0.6134529113769531,0.028829574584960938
309,474069056.0,-1.2617826461791992,-2.043513298034668,9.607027053833008,0.005326271057128906,-0.009587287902832031,-0.004261016845703125,0.11247062683105469,0.7811660766601562,0.6134529113769531,0.028829574584960938
310,474069056.0,-1.2617826461791992,-2.043513298034668,9.607027053833008,0.005326271057128906,-0.009587287902832031,-0.004261016845703125,0.11247062683105469,0.7811660766601562,0.6134529113769531,0.028829574584960938
311,474069088.0,-1.1923484802246094,-2.1991405487060547,9.571112632751465,0.013848304748535156,0.00852203369140625,-0.026632308959960938,0.11247062683105469,0.7811660766601562,0.6134529113769531,0.028829574584960938
312,474069088.0,-1.2055168151855469,-2.229069709777832,9.500481605529785,0.013848304748535156,0.00852203369140625,-0.026632308959960938,0.11247062683105469,0.7811660766601562,0.6134529113769531,0.028829574584960938
313,474069088.0,-1.1923484802246094,-2.1991405487060547,9.571112632751465,0.013848304748535156,0.00852203369140625,-0.026632308959960938,0.11247062683105469,0.7811660766601562,0.6134529113769531,0.028829574584960938
314,474069088.0,-1.2055168151855469,-2.229069709777832,9.500481605529785,0.013848304748535156,0.00852203369140625,-0.026632308959960938,0.11247062683105469,0.7811660766601562,0.6134529113769531,0.028829574584960938
315,474069120.0,-1.1540403366088867,-2.2697715759277344,9.513649940490723,0.041545867919921875,0.0,-0.004261016845703125,0.11247062683105469,0.7811660766601562,0.6134529113769531,0.028829574584960938
316,474069120.0,-1.136082649230957,-2.215900421142578,9.580689430236816,0.041545867919921875,0.0,-0.004261016845703125,0.11247062683105469,0.7811660766601562,0.6134529113769531,0.028829574584960938
317,474069120.0,-1.1540403366088867,-2.2697715759277344,9.513649940490723,0.041545867919921875,0.0,-0.004261016845703125,0.11247062683105469,0.7811660766601562,0.6134529113769531,0.028829574584960938
318,474069120.0,-1.136082649230957,-2.215900421142578,9.580689430236816,0.041545867919921875,0.0,-0.004261016845703125,0.11247062683105469,0.7811660766601562,0.6134529113769531,0.028829574584960938
319,474069344.0,-1.116929054260254,-2.011190414428711,9.45618724822998,0.01597881317138672,0.007456779479980469,0.005326271057128906,0.11626815795898438,0.7847909927368164,0.6083593368530273,0.02321910858154297
320,474069344.0,-1.116929054260254,-2.011190414428711,9.45618724822998,0.01597881317138672,0.007456779479980469,0.005326271057128906,0.11626815795898438,0.7847909927368164,0.6083593368530273,0.02321910858154297
321,474069376.0,-1.200728416442871,-2.03273868560791,9.38675308227539,-0.00852203369140625,0.005326271057128906,0.0,0.11626815795898438,0.7847909927368164,0.6083593368530273,0.02321910858154297
322,474069376.0,-1.200728416442871,-2.03273868560791,9.38675308227539,-0.00852203369140625,0.005326271057128906,0.0,0.11626815795898438,0.7847909927368164,0.6083593368530273,0.02321910858154297
323,474069408.0,-1.1348857879638672,-2.121326446533203,9.423864364624023,0.030893325805664062,-0.0063915252685546875,0.0,0.11626815795898438,0.7847909927368164,0.6083593368530273,0.02321910858154297
324,474069408.0,-1.1193227767944336,-2.0758352279663086,9.451398849487305,0.030893325805664062,-0.0063915252685546875,0.0,0.11626815795898438,0.7847909927368164,0.6083593368530273,0.02321910858154297
325,474069408.0,-1.1348857879638672,-2.121326446533203,9.423864364624023,0.030893325805664062,-0.0063915252685546875,0.0,0.11626815795898438,0.7847909927368164,0.6083593368530273,0.02321910858154297
326,474069408.0,-1.1193227767944336,-2.0758352279663086,9.451398849487305,0.030893325805664062,-0.0063915252685546875,0.0,0.11626815795898438,0.7847909927368164,0.6083593368530273,0.02321910858154297
327,474069440.0,-1.136082649230957,-2.073441505432129,9.408302307128906,0.01810932159423828,-0.010652542114257812,0.00852203369140625,0.11626815795898438,0.7847909927368164,0.6083593368530273,0.02321910858154297
328,474069440.0,-1.136082649230957,-2.073441505432129,9.408302307128906,0.01810932159423828,-0.010652542114257812,0.00852203369140625,0.11626815795898438,0.7847909927368164,0.6083593368530273,0.02321910858154297
329,474069440.0,-1.1767854690551758,-2.0758352279663086,9.433442115783691,0.01810932159423828,-0.010652542114257812,0.00852203369140625,0.11626815795898438,0.7847909927368164,0.6083593368530273,0.02321910858154297
330,474069472.0,-1.1624202728271484,-2.1177358627319336,9.398724555969238,0.01810932159423828,-0.010652542114257812,0.00852203369140625,0.11626815795898438,0.7847909927368164,0.6083593368530273,0.02321910858154297
331,474069504.0,-1.1672086715698242,-2.044710159301758,9.52442455291748,0.01810932159423828,-0.010652542114257812,0.00852203369140625,0.11626815795898438,0.7847909927368164,0.6083593368530273,0.02321910858154297
332,474069504.0,-1.1887569427490234,-2.0578784942626953,9.505270004272461,0.01810932159423828,-0.010652542114257812,0.00852203369140625,0.11626815795898438,0.7847909927368164,0.6083593368530273,0.02321910858154297
333,474069536.0,-1.1815738677978516,-2.065061569213867,9.508861541748047,0.01810932159423828,-0.010652542114257812,0.00852203369140625,0.11626815795898438,0.7847909927368164,0.6083593368530273,0.02321910858154297
334,474069664.0,-1.0989713668823242,-2.0925960540771484,9.519636154174805,-0.0010652542114257812,0.0031957626342773438,0.005326271057128906,0.11626815795898438,0.7847909927368164,0.6083593368530273,0.02321910858154297
335,474069664.0,-1.142068862915039,-2.1261157989501953,9.520833015441895,-0.0010652542114257812,0.0031957626342773438,0.005326271057128906,0.11626815795898438,0.7847909927368164,0.6083593368530273,0.02321910858154297
336,474069664.0,-1.0989713668823242,-2.0925960540771484,9.519636154174805,-0.0010652542114257812,0.0031957626342773438,0.005326271057128906,0.11626815795898438,0.7847909927368164,0.6083593368530273,0.02321910858154297
337,474069664.0,-1.142068862915039,-2.1261157989501953,9.520833015441895,-0.0010652542114257812,0.0031957626342773438,0.005326271057128906,0.11626815795898438,0.7847909927368164,0.6083593368530273,0.02321910858154297
338,474069696.0,-1.1719970703125,-2.191958427429199,9.444215774536133,-0.0170440673828125,-0.0021305084228515625,0.01597881317138672,0.11626815795898438,0.7847909927368164,0.6083593368530273,0.02321910858154297
339,474069696.0,-1.1911516189575195,-2.1177358627319336,9.443018913269043,-0.0170440673828125,-0.0021305084228515625,0.01597881317138672,0.11626815795898438,0.7847909927368164,0.6083593368530273,0.02321910858154297
340,474069696.0,-1.1719970703125,-2.191958427429199,9.444215774536133,-0.0170440673828125,-0.0021305084228515625,0.01597881317138672,0.11626815795898438,0.7847909927368164,0.6083593368530273,0.02321910858154297
341,474069696.0,-1.1911516189575195,-2.1177358627319336,9.443018913269043,-0.0170440673828125,-0.0021305084228515625,0.01597881317138672,0.11626815795898438,0.7847909927368164,0.6083593368530273,0.02321910858154297
342,474069728.0,-1.1743907928466797,-2.1368894577026367,9.398724555969238,-0.0063915252685546875,-0.0021305084228515625,0.013848304748535156,0.11626815795898438,0.7847909927368164,0.6083593368530273,0.02321910858154297
343,474069728.0,-1.1743907928466797,-2.1368894577026367,9.398724555969238,-0.0063915252685546875,-0.0021305084228515625,0.013848304748535156,0.11626815795898438,0.7847909927368164,0.6083593368530273,0.02321910858154297
344,474069760.0,-1.1480541229248047,-2.10097599029541,9.519636154174805,-0.0063915252685546875,-0.0021305084228515625,0.013848304748535156,0.11626815795898438,0.7847909927368164,0.6083593368530273,0.02321910858154297
345,474069760.0,-1.0678462982177734,-2.1105527877807617,9.634560585021973,-0.0063915252685546875,-0.0021305084228515625,0.013848304748535156,0.11626815795898438,0.7847909927368164,0.6083593368530273,0.02321910858154297
346,474069792.0,-1.1815738677978516,-2.0602731704711914,9.532804489135742,-0.0063915252685546875,-0.0021305084228515625,0.013848304748535156,0.11626815795898438,0.7847909927368164,0.6083593368530273,0.02321910858154297
347,474069824.0,-1.1336889266967773,-2.033935546875,9.520833015441895,-0.0063915252685546875,-0.0021305084228515625,0.013848304748535156,0.11626815795898438,0.7847909927368164,0.6083593368530273,0.02321910858154297
348,474069824.0,-1.169602394104004,-2.0195703506469727,9.614209175109863,-0.0063915252685546875,-0.0021305084228515625,0.013848304748535156,0.11626815795898438,0.7847909927368164,0.6083593368530273,0.02321910858154297
349,474069952.0,-1.1636171340942383,-2.0483016967773438,9.578295707702637,0.033023834228515625,0.012783050537109375,0.010652542114257812,0.11488723754882812,0.7840147018432617,0.609654426574707,0.02157878875732422
350,474069952.0,-1.1636171340942383,-2.0483016967773438,9.578295707702637,0.033023834228515625,0.012783050537109375,0.010652542114257812,0.11488723754882812,0.7840147018432617,0.609654426574707,0.02157878875732422
351,474069984.0,-1.1887569427490234,-2.068653106689453,9.537592887878418,0.033023834228515625,0.012783050537109375,0.010652542114257812,0.11488723754882812,0.7840147018432617,0.609654426574707,0.02157878875732422
352,474069984.0,-1.1815738677978516,-2.0602731704711914,9.489706993103027,0.033023834228515625,0.012783050537109375,0.010652542114257812,0.11488723754882812,0.7840147018432617,0.609654426574707,0.02157878875732422
353,474069984.0,-1.1887569427490234,-2.068653106689453,9.537592887878418,0.033023834228515625,0.012783050537109375,0.010652542114257812,0.11488723754882812,0.7840147018432617,0.609654426574707,0.02157878875732422
354,474069984.0,-1.1815738677978516,-2.0602731704711914,9.489706993103027,0.033023834228515625,0.012783050537109375,0.010652542114257812,0.11488723754882812,0.7840147018432617,0.609654426574707,0.02157878875732422
355,474070016.0,-1.194742202758789,-2.080624580383301,9.47773551940918,0.033023834228515625,0.012783050537109375,0.010652542114257812,0.11488723754882812,0.7840147018432617,0.609654426574707,0.02157878875732422
356,474070016.0,-1.1300973892211914,-1.9896421432495117,9.451398849487305,0.033023834228515625,0.012783050537109375,0.010652542114257812,0.11488723754882812,0.7840147018432617,0.609654426574707,0.02157878875732422
357,474070016.0,-1.194742202758789,-2.080624580383301,9.47773551940918,0.033023834228515625,0.012783050537109375,0.010652542114257812,0.11488723754882812,0.7840147018432617,0.609654426574707,0.02157878875732422
358,474070016.0,-1.1300973892211914,-1.9896421432495117,9.451398849487305,0.033023834228515625,0.012783050537109375,0.010652542114257812,0.11488723754882812,0.7840147018432617,0.609654426574707,0.02157878875732422
359,474070048.0,-1.132491111755371,-1.9944305419921875,9.513649940490723,0.033023834228515625,0.012783050537109375,0.010652542114257812,0.11488723754882812,0.7840147018432617,0.609654426574707,0.02157878875732422
360,474070048.0,-1.132491111755371,-1.9944305419921875,9.513649940490723,0.033023834228515625,0.012783050537109375,0.010652542114257812,0.11488723754882812,0.7840147018432617,0.609654426574707,0.02157878875732422
361,474070080.0,-1.1803770065307617,-2.044710159301758,9.517241477966309,0.033023834228515625,0.012783050537109375,0.010652542114257812,0.11488723754882812,0.7840147018432617,0.609654426574707,0.02157878875732422
362,474070080.0,-1.2067136764526367,-2.0614700317382812,9.434638977050781,0.033023834228515625,0.012783050537109375,0.010652542114257812,0.11488723754882812,0.7840147018432617,0.609654426574707,0.02157878875732422
363,474070080.0,-1.1803770065307617,-2.044710159301758,9.517241477966309,0.033023834228515625,0.012783050537109375,0.010652542114257812,0.11488723754882812,0.7840147018432617,0.609654426574707,0.02157878875732422
364,474070080.0,-1.2067136764526367,-2.0614700317382812,9.434638977050781,0.033023834228515625,0.012783050537109375,0.010652542114257812,0.11488723754882812,0.7840147018432617,0.609654426574707,0.02157878875732422
365,474070112.0,-1.1336889266967773,-2.0866098403930664,9.438230514526367,0.033023834228515625,0.012783050537109375,0.010652542114257812,0.11488723754882812,0.7840147018432617,0.609654426574707,0.02157878875732422
366,474070112.0,-1.1336889266967773,-2.0866098403930664,9.438230514526367,0.033023834228515625,0.012783050537109375,0.010652542114257812,0.11488723754882812,0.7840147018432617,0.609654426574707,0.02157878875732422
367,474070144.0,-1.1277027130126953,-1.9968242645263672,9.419075965881348,0.013848304748535156,0.0,0.009587287902832031,0.1161813735961914,0.7835397720336914,0.6100425720214844,0.02054309844970703
368,474070144.0,-1.1277027130126953,-1.9968242645263672,9.419075965881348,0.013848304748535156,0.0,0.009587287902832031,0.1161813735961914,0.7835397720336914,0.6100425720214844,0.02054309844970703
369,474070240.0,-1.1408710479736328,-2.1153411865234375,9.510058403015137,-0.012783050537109375,0.0031957626342773438,-0.013848304748535156,0.11635398864746094,0.7837123870849609,0.6097841262817383,0.020456314086914062
370,474070240.0,-1.1408710479736328,-2.1153411865234375,9.510058403015137,-0.012783050537109375,0.0031957626342773438,-0.013848304748535156,0.11635398864746094,0.7837123870849609,0.6097841262817383,0.020456314086914062
371,474070272.0,-1.200728416442871,-2.133297920227051,9.522029876708984,-0.012783050537109375,0.0031957626342773438,-0.013848304748535156,0.11635398864746094,0.7837123870849609,0.6097841262817383,0.020456314086914062
372,474070272.0,-1.200728416442871,-2.133297920227051,9.522029876708984,-0.012783050537109375,0.0031957626342773438,-0.013848304748535156,0.11635398864746094,0.7837123870849609,0.6097841262817383,0.020456314086914062
373,474070304.0,-1.1971368789672852,-2.0866098403930664,9.523226737976074,-0.012783050537109375,0.0031957626342773438,-0.013848304748535156,0.11635398864746094,0.7837123870849609,0.6097841262817383,0.020456314086914062
374,474070304.0,-1.2330513000488281,-2.030344009399414,9.59744930267334,-0.012783050537109375,0.0031957626342773438,-0.013848304748535156,0.11635398864746094,0.7837123870849609,0.6097841262817383,0.020456314086914062
375,474070304.0,-1.1971368789672852,-2.0866098403930664,9.523226737976074,-0.012783050537109375,0.0031957626342773438,-0.013848304748535156,0.11635398864746094,0.7837123870849609,0.6097841262817383,0.020456314086914062
376,474070304.0,-1.2330513000488281,-2.030344009399414,9.59744930267334,-0.012783050537109375,0.0031957626342773438,-0.013848304748535156,0.11635398864746094,0.7837123870849609,0.6097841262817383,0.020456314086914062
377,474070336.0,-1.1851654052734375,-2.062666893005371,9.502876281738281,-0.012783050537109375,0.0031957626342773438,-0.013848304748535156,0.11635398864746094,0.7837123870849609,0.6097841262817383,0.020456314086914062
378,474070336.0,-1.1851654052734375,-2.062666893005371,9.502876281738281,-0.012783050537109375,0.0031957626342773438,-0.013848304748535156,0.11635398864746094,0.7837123870849609,0.6097841262817383,0.020456314086914062
379,474070336.0,-1.1791801452636719,-2.073441505432129,9.423864364624023,-0.012783050537109375,0.0031957626342773438,-0.013848304748535156,0.11635398864746094,0.7837123870849609,0.6097841262817383,0.020456314086914062
380,474070368.0,-1.1384773254394531,-2.0602731704711914,9.47653865814209,-0.012783050537109375,0.0031957626342773438,-0.013848304748535156,0.11635398864746094,0.7837123870849609,0.6097841262817383,0.020456314086914062
381,474070400.0,-1.1516456604003906,-2.002810478210449,9.505270004272461,-0.012783050537109375,0.0031957626342773438,-0.013848304748535156,0.11635398864746094,0.7837123870849609,0.6097841262817383,0.020456314086914062
382,474070400.0,-1.175588607788086,-2.009993553161621,9.498086929321289,-0.012783050537109375,0.0031957626342773438,-0.013848304748535156,0.11635398864746094,0.7837123870849609,0.6097841262817383,0.020456314086914062
383,474070432.0,-1.198333740234375,-1.9896421432495117,9.423864364624023,-0.012783050537109375,0.0031957626342773438,-0.013848304748535156,0.11648368835449219,0.7837982177734375,0.6096973419189453,0.020154953002929688
384,474070560.0,-1.1612224578857422,-2.134495735168457,9.438230514526367,-0.023435592651367188,-0.026632308959960938,-0.026632308959960938,0.11609554290771484,0.783970832824707,0.6095247268676758,0.020715713500976562
385,474070560.0,-1.1277027130126953,-2.1129465103149414,9.504073143005371,-0.023435592651367188,-0.026632308959960938,-0.026632308959960938,0.11609554290771484,0.783970832824707,0.6095247268676758,0.020715713500976562
386,474070560.0,-1.1612224578857422,-2.134495735168457,9.438230514526367,-0.023435592651367188,-0.026632308959960938,-0.026632308959960938,0.11609554290771484,0.783970832824707,0.6095247268676758,0.020715713500976562
387,474070560.0,-1.1277027130126953,-2.1129465103149414,9.504073143005371,-0.023435592651367188,-0.026632308959960938,-0.026632308959960938,0.11609554290771484,0.783970832824707,0.6095247268676758,0.020715713500976562
388,474070592.0,-1.1300973892211914,-2.059075355529785,9.554352760314941,-0.023435592651367188,-0.026632308959960938,-0.026632308959960938,0.11609554290771484,0.783970832824707,0.6095247268676758,0.020715713500976562
389,474070592.0,-1.1300973892211914,-2.059075355529785,9.554352760314941,-0.023435592651367188,-0.026632308959960938,-0.026632308959960938,0.11609554290771484,0.783970832824707,0.6095247268676758,0.020715713500976562
390,474070624.0,-1.143265724182129,-2.043513298034668,9.549564361572266,-0.023435592651367188,-0.026632308959960938,-0.026632308959960938,0.11609554290771484,0.783970832824707,0.6095247268676758,0.020715713500976562
391,474070624.0,-1.1600255966186523,-2.068653106689453,9.61780071258545,-0.023435592651367188,-0.026632308959960938,-0.026632308959960938,0.11609554290771484,0.783970832824707,0.6095247268676758,0.020715713500976562
392,474070624.0,-1.143265724182129,-2.043513298034668,9.549564361572266,-0.023435592651367188,-0.026632308959960938,-0.026632308959960938,0.11609554290771484,0.783970832824707,0.6095247268676758,0.020715713500976562
393,474070624.0,-1.1600255966186523,-2.068653106689453,9.61780071258545,-0.023435592651367188,-0.026632308959960938,-0.026632308959960938,0.11609554290771484,0.783970832824707,0.6095247268676758,0.020715713500976562
394,474070656.0,-1.0953798294067383,-2.030344009399414,9.609420776367188,-0.00852203369140625,-0.030893325805664062,-0.012783050537109375,0.11609554290771484,0.783970832824707,0.6095247268676758,0.020715713500976562
395,474070656.0,-1.0953798294067383,-2.030344009399414,9.609420776367188,-0.00852203369140625,-0.030893325805664062,-0.012783050537109375,0.11609554290771484,0.783970832824707,0.6095247268676758,0.020715713500976562
396,474070656.0,-1.0690431594848633,-2.0638647079467773,9.6956148147583,-0.00852203369140625,-0.030893325805664062,-0.012783050537109375,0.11609554290771484,0.783970832824707,0.6095247268676758,0.020715713500976562
397,474070688.0,-1.1288995742797852,-2.0207672119140625,9.61540699005127,-0.026632308959960938,-0.025567054748535156,-0.0063915252685546875,0.11609554290771484,0.783970832824707,0.6095247268676758,0.020715713500976562
398,474070720.0,-1.168405532836914,-2.130904197692871,9.520833015441895,0.033023834228515625,-0.013848304748535156,-0.01810932159423828,0.11609554290771484,0.783970832824707,0.6095247268676758,0.020715713500976562
399,474070720.0,-1.0762262344360352,-2.0243587493896484,9.731529235839844,0.033023834228515625,-0.013848304748535156,-0.01810932159423828,0.11609554290771484,0.783970832824707,0.6095247268676758,0.020715713500976562
400,474070880.0,-1.0965776443481445,-2.068653106689453,9.447807312011719,-0.00852203369140625,0.005326271057128906,-0.007456779479980469,0.11406707763671875,0.7849636077880859,0.6085319519042969,0.02343463897705078
401,474070880.0,-1.0762262344360352,-2.0902013778686523,9.4537935256958,-0.00852203369140625,0.005326271057128906,-0.007456779479980469,0.11406707763671875,0.7849636077880859,0.6085319519042969,0.02343463897705078
402,474070912.0,-1.073831558227539,-2.0746383666992188,9.604632377624512,-0.00852203369140625,0.005326271057128906,-0.007456779479980469,0.11406707763671875,0.7849636077880859,0.6085319519042969,0.02343463897705078
403,474070912.0,-1.1492509841918945,-2.0542869567871094,9.498086929321289,-0.00852203369140625,0.005326271057128906,-0.007456779479980469,0.11406707763671875,0.7849636077880859,0.6085319519042969,0.02343463897705078
404,474070944.0,-1.079817771911621,-2.0854129791259766,9.434638977050781,-0.00852203369140625,0.005326271057128906,-0.007456779479980469,0.11406707763671875,0.7849636077880859,0.6085319519042969,0.02343463897705078
405,474070976.0,-1.0786199569702148,-2.127312660217285,9.511256217956543,-0.0010652542114257812,-0.005326271057128906,-0.009587287902832031,0.11406707763671875,0.7849636077880859,0.6085319519042969,0.02343463897705078
406,474070976.0,-0.9816522598266602,-2.138087272644043,9.469355583190918,-0.0010652542114257812,-0.005326271057128906,-0.009587287902832031,0.11406707763671875,0.7849636077880859,0.6085319519042969,0.02343463897705078
407,474071008.0,-1.0702400207519531,-2.0219640731811523,9.513649940490723,-0.0010652542114257812,-0.0063915252685546875,0.0063915252685546875,0.11406707763671875,0.7849636077880859,0.6085319519042969,0.02343463897705078
408,474071040.0,-1.107351303100586,-2.041118621826172,9.447807312011719,-0.03941535949707031,-0.005326271057128906,-0.005326271057128906,0.11406707763671875,0.7849636077880859,0.6085319519042969,0.02343463897705078
409,474071040.0,-1.0953798294067383,-2.0566816329956055,9.431047439575195,-0.03941535949707031,-0.005326271057128906,-0.005326271057128906,0.11406707763671875,0.7849636077880859,0.6085319519042969,0.02343463897705078
410,474071072.0,-1.0702400207519531,-2.0794267654418945,9.49449634552002,0.012783050537109375,-0.021305084228515625,-0.01597881317138672,0.11406707763671875,0.7849636077880859,0.6085319519042969,0.02343463897705078
411,474071072.0,-1.0726346969604492,-2.062666893005371,9.566324234008789,0.012783050537109375,-0.021305084228515625,-0.01597881317138672,0.11406707763671875,0.7849636077880859,0.6085319519042969,0.02343463897705078
412,474071104.0,-1.0929861068725586,-2.139284133911133,9.586675643920898,-0.013848304748535156,-0.011717796325683594,-0.007456779479980469,0.11406707763671875,0.7849636077880859,0.6085319519042969,0.02343463897705078
413,474071136.0,-1.1288995742797852,-2.0925960540771484,9.57590103149414,-0.005326271057128906,-0.0010652542114257812,-0.010652542114257812,0.11406707763671875,0.7849636077880859,0.6085319519042969,0.02343463897705078
414,474071136.0,-1.1277027130126953,-2.1261157989501953,9.604632377624512,-0.005326271057128906,-0.0010652542114257812,-0.010652542114257812,0.11406707763671875,0.7849636077880859,0.6085319519042969,0.02343463897705078
415,474071168.0,-1.145660400390625,-2.17160701751709,9.598647117614746,-0.005326271057128906,-0.0010652542114257812,-0.010652542114257812,0.11406707763671875,0.7849636077880859,0.6085319519042969,0.02343463897705078
416,474071168.0,-1.145660400390625,-2.17160701751709,9.598647117614746,-0.005326271057128906,-0.0010652542114257812,-0.010652542114257812,0.11406707763671875,0.7849636077880859,0.6085319519042969,0.02343463897705078
417,474071200.0,-1.1217174530029297,-2.0902013778686523,9.689629554748535,-0.005326271057128906,-0.0010652542114257812,-0.010652542114257812,0.11406707763671875,0.7849636077880859,0.6085319519042969,0.02343463897705078
418,474071200.0,-1.1336889266967773,-2.1105527877807617,9.578295707702637,-0.005326271057128906,-0.0010652542114257812,-0.010652542114257812,0.11406707763671875,0.7849636077880859,0.6085319519042969,0.02343463897705078
419,474071200.0,-1.1217174530029297,-2.0902013778686523,9.689629554748535,-0.005326271057128906,-0.0010652542114257812,-0.010652542114257812,0.11406707763671875,0.7849636077880859,0.6085319519042969,0.02343463897705078
420,474071200.0,-1.1336889266967773,-2.1105527877807617,9.578295707702637,-0.005326271057128906,-0.0010652542114257812,-0.010652542114257812,0.11406707763671875,0.7849636077880859,0.6085319519042969,0.02343463897705078
421,474071232.0,-1.0834083557128906,-2.043513298034668,9.583084106445312,-0.005326271057128906,-0.0010652542114257812,-0.010652542114257812,0.11406707763671875,0.7849636077880859,0.6085319519042969,0.02343463897705078
422,474071232.0,-1.132491111755371,-2.098581314086914,9.579492568969727,-0.005326271057128906,-0.0010652542114257812,-0.010652542114257812,0.11406707763671875,0.7849636077880859,0.6085319519042969,0.02343463897705078
423,474071232.0,-1.0834083557128906,-2.043513298034668,9.583084106445312,-0.005326271057128906,-0.0010652542114257812,-0.010652542114257812,0.11406707763671875,0.7849636077880859,0.6085319519042969,0.02343463897705078
424,474071232.0,-1.132491111755371,-2.098581314086914,9.579492568969727,-0.005326271057128906,-0.0010652542114257812,-0.010652542114257812,0.11406707763671875,0.7849636077880859,0.6085319519042969,0.02343463897705078
425,474071360.0,-1.1121397018432617,-2.0518932342529297,9.465764999389648,-0.022370338439941406,0.0170440673828125,-0.01597881317138672,0.11406707763671875,0.7849636077880859,0.6085319519042969,0.02343463897705078
426,474071392.0,-1.0893945693969727,-1.9980220794677734,9.458581924438477,-0.025567054748535156,0.011717796325683594,-0.02769756317138672,0.11406707763671875,0.7849636077880859,0.6085319519042969,0.02343463897705078
427,474071392.0,-1.1013660430908203,-2.0554847717285156,9.452595710754395,-0.025567054748535156,0.011717796325683594,-0.02769756317138672,0.11406707763671875,0.7849636077880859,0.6085319519042969,0.02343463897705078
428,474071424.0,-1.0905914306640625,-2.0614700317382812,9.440624237060547,0.0063915252685546875,0.0,-0.020239830017089844,0.11406707763671875,0.7849636077880859,0.6085319519042969,0.02343463897705078
429,474071456.0,-1.0762262344360352,-2.043513298034668,9.560338020324707,-0.0010652542114257812,-0.005326271057128906,-0.023435592651367188,0.11406707763671875,0.7849636077880859,0.6085319519042969,0.02343463897705078
430,474071456.0,-1.0678462982177734,-2.0578784942626953,9.4968900680542,-0.0010652542114257812,-0.005326271057128906,-0.023435592651367188,0.11406707763671875,0.7849636077880859,0.6085319519042969,0.02343463897705078
431,474071488.0,-1.0929861068725586,-1.9860506057739258,9.548367500305176,-0.031958580017089844,0.0170440673828125,-0.04367637634277344,0.11406707763671875,0.7849636077880859,0.6085319519042969,0.02343463897705078
432,474071520.0,-1.1229143142700195,-2.0818214416503906,9.535198211669922,-0.0287628173828125,0.01810932159423828,-0.05113410949707031,0.11406707763671875,0.7849636077880859,0.6085319519042969,0.02343463897705078
433,474071520.0,-1.1229143142700195,-2.065061569213867,9.52681827545166,-0.0287628173828125,0.01810932159423828,-0.05113410949707031,0.11406707763671875,0.7849636077880859,0.6085319519042969,0.02343463897705078
434,474071552.0,-1.116929054260254,-2.0267534255981445,9.641743659973145,-0.026632308959960938,0.02769756317138672,-0.07030868530273438,0.11406707763671875,0.7849636077880859,0.6085319519042969,0.02343463897705078
435,474071552.0,-1.0534801483154297,-1.9800643920898438,9.556747436523438,-0.026632308959960938,0.02769756317138672,-0.07030868530273438,0.11406707763671875,0.7849636077880859,0.6085319519042969,0.02343463897705078
436,474071584.0,-1.145660400390625,-1.9597129821777344,9.536396026611328,-0.11824703216552734,0.057525634765625,-0.10546398162841797,0.11406707763671875,0.7849636077880859,0.6085319519042969,0.02343463897705078
437,474071616.0,-1.1779823303222656,-2.0506954193115234,9.447807312011719,-0.13103103637695312,0.053264617919921875,-0.11718177795410156,0.11406707763671875,0.7849636077880859,0.6085319519042969,0.02343463897705078
438,474071616.0,-1.1863622665405273,-2.1847753524780273,9.330488204956055,-0.13103103637695312,0.053264617919921875,-0.11718177795410156,0.11406707763671875,0.7849636077880859,0.6085319519042969,0.02343463897705078
439,474071648.0,-1.1444625854492188,-2.444554328918457,9.158100128173828,-0.12783527374267578,0.042611122131347656,-0.11824703216552734,0.11406707763671875,0.7849636077880859,0.6085319519042969,0.02343463897705078
440,474071680.0,-1.0199604034423828,-2.697150230407715,9.021626472473145,-0.12783527374267578,0.042611122131347656,-0.11824703216552734,0.11406707763671875,0.7849636077880859,0.6085319519042969,0.02343463897705078
441,474071680.0,-1.0881977081298828,-3.0706567764282227,8.898321151733398,-0.12783527374267578,0.042611122131347656,-0.11824703216552734,0.11406707763671875,0.7849636077880859,0.6085319519042969,0.02343463897705078
442,474071712.0,-1.022355079650879,-3.3807153701782227,8.68642807006836,-0.12783527374267578,0.042611122131347656,-0.11824703216552734,0.11406707763671875,0.7849636077880859,0.6085319519042969,0.02343463897705078
443,474071712.0,-1.022355079650879,-3.8440074920654297,8.548757553100586,-0.12783527374267578,0.042611122131347656,-0.11824703216552734,0.11406707763671875,0.7849636077880859,0.6085319519042969,0.02343463897705078
444,474071744.0,-0.8751068115234375,-4.3180742263793945,8.541574478149414,0.2950868606567383,-0.334503173828125,0.2993478775024414,0.11406707763671875,0.7849636077880859,0.6085319519042969,0.02343463897705078
445,474071776.0,-0.7757444381713867,-4.981287956237793,8.551151275634766,0.45381641387939453,-0.4857749938964844,0.530517578125,0.11406707763671875,0.7849636077880859,0.6085319519042969,0.02343463897705078
446,474071776.0,-0.4728689193725586,-5.56549072265625,8.40390396118164,0.45381641387939453,-0.4857749938964844,0.530517578125,0.11406707763671875,0.7849636077880859,0.6085319519042969,0.02343463897705078
447,474071808.0,-0.5016002655029297,-5.413455009460449,8.5667142868042,0.8873920440673828,-0.7659482955932617,1.1025819778442383,0.11406707763671875,0.7849636077880859,0.6085319519042969,0.02343463897705078
448,474071808.0,-0.4597005844116211,-4.567078590393066,8.517631530761719,0.8873920440673828,-0.7659482955932617,1.1025819778442383,0.11406707763671875,0.7849636077880859,0.6085319519042969,0.02343463897705078
449,474071840.0,-0.44533443450927734,-4.2594146728515625,8.472140312194824,1.182478904724121,-0.9449176788330078,1.6618623733520508,0.11406707763671875,0.7849636077880859,0.6085319519042969,0.02343463897705078
450,474071968.0,0.9780607223510742,0.26935577392578125,14.67690372467041,1.5052642822265625,0.13635730743408203,2.6248912811279297,0.11406707763671875,0.7849636077880859,0.6085319519042969,0.02343463897705078
451,474071968.0,0.9780607223510742,0.26935577392578125,14.67690372467041,1.5052642822265625,0.13635730743408203,2.6248912811279297,0.11406707763671875,0.7849636077880859,0.6085319519042969,0.02343463897705078
452,474071968.0,0.9780607223510742,0.26935577392578125,14.67690372467041,1.5052642822265625,0.13635730743408203,2.6248912811279297,0.11406707763671875,0.7849636077880859,0.6085319519042969,0.02343463897705078
453,474072000.0,0.7386331558227539,2.312869071960449,15.19765853881836,0.9598321914672852,1.263442039489746,2.4192886352539062,0.11406707763671875,0.7849636077880859,0.6085319519042969,0.02343463897705078
454,474072000.0,0.7661676406860352,2.3715286254882812,14.813377380371094,0.9598321914672852,1.263442039489746,2.4192886352539062,0.11406707763671875,0.7849636077880859,0.6085319519042969,0.02343463897705078
455,474072000.0,0.7386331558227539,2.312869071960449,15.19765853881836,0.9598321914672852,1.263442039489746,2.4192886352539062,0.11406707763671875,0.7849636077880859,0.6085319519042969,0.02343463897705078
456,474072000.0,0.7661676406860352,2.3715286254882812,14.813377380371094,0.9598321914672852,1.263442039489746,2.4192886352539062,0.11406707763671875,0.7849636077880859,0.6085319519042969,0.02343463897705078
457,474072000.0,0.7386331558227539,2.312869071960449,15.19765853881836,0.9598321914672852,1.263442039489746,2.4192886352539062,0.11406707763671875,0.7849636077880859,0.6085319519042969,0.02343463897705078
458,474072000.0,0.7661676406860352,2.3715286254882812,14.813377380371094,0.9598321914672852,1.263442039489746,2.4192886352539062,0.11406707763671875,0.7849636077880859,0.6085319519042969,0.02343463897705078
459,474072032.0,0.6368770599365234,2.812075614929199,15.34610366821289,0.8192129135131836,1.7385644912719727,2.17746639251709,0.11406707763671875,0.7849636077880859,0.6085319519042969,0.02343463897705078
460,474072032.0,0.41899776458740234,5.068678855895996,15.522082328796387,0.8192129135131836,1.7385644912719727,2.17746639251709,0.11406707763671875,0.7849636077880859,0.6085319519042969,0.02343463897705078
461,474072032.0,0.6368770599365234,2.812075614929199,15.34610366821289,0.8192129135131836,1.7385644912719727,2.17746639251709,0.11406707763671875,0.7849636077880859,0.6085319519042969,0.02343463897705078
462,474072032.0,0.41899776458740234,5.068678855895996,15.522082328796387,0.8192129135131836,1.7385644912719727,2.17746639251709,0.11406707763671875,0.7849636077880859,0.6085319519042969,0.02343463897705078
463,474072032.0,0.6368770599365234,2.812075614929199,15.34610366821289,0.8192129135131836,1.7385644912719727,2.17746639251709,0.11406707763671875,0.7849636077880859,0.6085319519042969,0.02343463897705078
464,474072032.0,0.41899776458740234,5.068678855895996,15.522082328796387,0.8192129135131836,1.7385644912719727,2.17746639251709,0.11406707763671875,0.7849636077880859,0.6085319519042969,0.02343463897705078
465,474072064.0,0.49561405181884766,5.423031806945801,14.57873821258545,0.8192129135131836,1.7385644912719727,2.17746639251709,0.11406707763671875,0.7849636077880859,0.6085319519042969,0.02343463897705078
466,474072096.0,0.25618648529052734,4.705946922302246,12.970982551574707,0.8192129135131836,1.7385644912719727,2.17746639251709,0.11406707763671875,0.7849636077880859,0.6085319519042969,0.02343463897705078
467,474072096.0,0.37230968475341797,5.2482500076293945,11.74511432647705,0.8192129135131836,1.7385644912719727,2.17746639251709,0.11406707763671875,0.7849636077880859,0.6085319519042969,0.02343463897705078
468,474072128.0,0.27414417266845703,6.1101884841918945,11.04598617553711,0.8192129135131836,1.7385644912719727,2.17746639251709,0.11406707763671875,0.7849636077880859,0.6085319519042969,0.02343463897705078
469,474072128.0,0.646453857421875,6.086245536804199,10.50727367401123,0.8192129135131836,1.7385644912719727,2.17746639251709,0.11406707763671875,0.7849636077880859,0.6085319519042969,0.02343463897705078
470,474072160.0,0.3411836624145508,6.0455427169799805,9.498086929321289,-0.3068046569824219,3.4686059951782227,-0.3749837875366211,0.11406707763671875,0.7849636077880859,0.6085319519042969,0.02343463897705078
471,474072192.0,-0.2765378952026367,5.857592582702637,8.072297096252441,-0.2716503143310547,3.3727293014526367,-0.7883195877075195,0.11406707763671875,0.7849636077880859,0.6085319519042969,0.02343463897705078
472,474072192.0,-0.6189193725585938,5.881535530090332,7.049941062927246,-0.2716503143310547,3.3727293014526367,-0.7883195877075195,0.11406707763671875,0.7849636077880859,0.6085319519042969,0.02343463897705078
473,474072224.0,-1.0786199569702148,5.44218635559082,6.768613815307617,0.03728485107421875,2.989222526550293,-1.428563117980957,0.11406707763671875,0.7849636077880859,0.6085319519042969,0.02343463897705078
474,474072256.0,-1.5036039352416992,4.96333122253418,5.974911689758301,0.07883167266845703,2.762314796447754,-1.7950248718261719,0.11406707763671875,0.7849636077880859,0.6085319519042969,0.02343463897705078
475,474072352.0,-3.8775272369384766,-0.7613792419433594,1.6783857345581055,0.1608591079711914,1.3774280548095703,-2.788947105407715,0.11406707763671875,0.7849636077880859,0.6085319519042969,0.02343463897705078
476,474072384.0,-3.489654541015625,-1.1540403366088867,2.041118621826172,0.1608591079711914,1.3774280548095703,-2.788947105407715,0.11406707763671875,0.7849636077880859,0.6085319519042969,0.02343463897705078
477,474072416.0,-3.6632394790649414,-2.5127906799316406,1.6783857345581055,0.1608591079711914,1.3774280548095703,-2.788947105407715,0.11406707763671875,0.7849636077880859,0.6085319519042969,0.02343463897705078
478,474072416.0,-3.8871049880981445,-3.9709043502807617,2.008795738220215,0.1608591079711914,1.3774280548095703,-2.788947105407715,0.11406707763671875,0.7849636077880859,0.6085319519042969,0.02343463897705078
479,474072448.0,-3.313675880432129,-4.761014938354492,2.5822248458862305,0.7126827239990234,-1.251723289489746,-3.042487144470215,0.11406707763671875,0.7849636077880859,0.6085319519042969,0.02343463897705078
480,474072448.0,-2.3930768966674805,-5.470917701721191,3.283747673034668,0.7126827239990234,-1.251723289489746,-3.042487144470215,0.11406707763671875,0.7849636077880859,0.6085319519042969,0.02343463897705078
481,474072448.0,-2.3930768966674805,-5.470917701721191,3.283747673034668,0.7126827239990234,-1.251723289489746,-3.042487144470215,0.11406707763671875,0.7849636077880859,0.6085319519042969,0.02343463897705078
482,474072480.0,-2.539128303527832,-7.052335739135742,3.405855178833008,0.5592803955078125,-1.7556085586547852,-2.7633800506591797,0.11406707763671875,0.7849636077880859,0.6085319519042969,0.02343463897705078
483,474072480.0,-2.539128303527832,-7.052335739135742,3.405855178833008,0.5592803955078125,-1.7556085586547852,-2.7633800506591797,0.11406707763671875,0.7849636077880859,0.6085319519042969,0.02343463897705078
484,474072512.0,-2.6396875381469727,-8.773818969726562,3.0754451751708984,0.5262565612792969,-2.0613489151000977,-2.5577774047851562,0.11406707763671875,0.7849636077880859,0.6085319519042969,0.02343463897705078
485,474072512.0,-1.9202079772949219,-8.321301460266113,4.247443199157715,0.5262565612792969,-2.0613489151000977,-2.5577774047851562,0.11406707763671875,0.7849636077880859,0.6085319519042969,0.02343463897705078
486,474072512.0,-2.6396875381469727,-8.773818969726562,3.0754451751708984,0.5262565612792969,-2.0613489151000977,-2.5577774047851562,0.11406707763671875,0.7849636077880859,0.6085319519042969,0.02343463897705078
487,474072512.0,-1.9202079772949219,-8.321301460266113,4.247443199157715,0.5262565612792969,-2.0613489151000977,-2.5577774047851562,0.11406707763671875,0.7849636077880859,0.6085319519042969,0.02343463897705078
488,474072544.0,-2.007598876953125,-7.433025360107422,5.648093223571777,0.5017547607421875,-2.261625289916992,-2.2584285736083984,0.11406707763671875,0.7849636077880859,0.6085319519042969,0.02343463897705078
489,474072544.0,-2.007598876953125,-7.433025360107422,5.648093223571777,0.5017547607421875,-2.261625289916992,-2.2584285736083984,0.11406707763671875,0.7849636077880859,0.6085319519042969,0.02343463897705078
490,474072672.0,-0.6979303359985352,-7.971736907958984,10.674873352050781,0.5017547607421875,-2.261625289916992,-2.2584285736083984,0.11406707763671875,0.7849636077880859,0.6085319519042969,0.02343463897705078
491,474072672.0,-1.1863622665405273,-6.674039840698242,12.396356582641602,0.5017547607421875,-2.261625289916992,-2.2584285736083984,0.11406707763671875,0.7849636077880859,0.6085319519042969,0.02343463897705078
492,474072704.0,-2.8958749771118164,-8.297358512878418,11.869616508483887,0.5017547607421875,-2.261625289916992,-2.2584285736083984,0.11406707763671875,0.7849636077880859,0.6085319519042969,0.02343463897705078
493,474072736.0,-3.3160696029663086,-5.451763153076172,13.157735824584961,0.5017547607421875,-2.261625289916992,-2.2584285736083984,0.11406707763671875,0.7849636077880859,0.6085319519042969,0.02343463897705078
494,474072736.0,-2.285334587097168,-3.4357833862304688,14.504515647888184,0.5017547607421875,-2.261625289916992,-2.2584285736083984,0.11406707763671875,0.7849636077880859,0.6085319519042969,0.02343463897705078
495,474072768.0,-2.10097599029541,-2.5534934997558594,14.364450454711914,0.39202880859375,-1.0258808135986328,2.0006275177001953,0.15381622314453125,0.7628669738769531,0.6251049041748047,0.06033515930175781
496,474072768.0,-1.9226016998291016,-1.6795835494995117,13.76827621459961,0.39202880859375,-1.0258808135986328,2.0006275177001953,0.15381622314453125,0.7628669738769531,0.6251049041748047,0.06033515930175781
497,474072800.0,-1.1911516189575195,-1.0020036697387695,13.24632453918457,0.6317205429077148,-0.39202880859375,1.560659408569336,0.13996219635009766,0.7413740158081055,0.6537628173828125,0.05839252471923828
498,474072832.0,-0.9517240524291992,0.1711902618408203,13.188861846923828,0.5443658828735352,-0.11292076110839844,1.2943353652954102,0.13517189025878906,0.7331304550170898,0.6643362045288086,0.05394744873046875
499,474072832.0,-0.5111770629882812,1.260584831237793,12.88838005065918,0.5443658828735352,-0.11292076110839844,1.2943353652954102,0.13517189025878906,0.7331304550170898,0.6643362045288086,0.05394744873046875
500,474072864.0,-0.5913858413696289,1.6592321395874023,12.449030876159668,0.5443658828735352,-0.11292076110839844,1.2943353652954102,0.13517189025878906,0.7331304550170898,0.6643362045288086,0.05394744873046875
501,474072896.0,-0.7434215545654297,0.6201162338256836,11.139362335205078,0.5443658828735352,-0.11292076110839844,1.2943353652954102,0.13517189025878906,0.7331304550170898,0.6643362045288086,0.05394744873046875
502,474072896.0,-0.9062328338623047,0.5626544952392578,10.610227584838867,0.5443658828735352,-0.11292076110839844,1.2943353652954102,0.13517189025878906,0.7331304550170898,0.6643362045288086,0.05394744873046875
503,474072928.0,-0.614130973815918,0.39505481719970703,9.95539379119873,0.5443658828735352,-0.11292076110839844,1.2943353652954102,0.13517189025878906,0.7331304550170898,0.6643362045288086,0.05394744873046875
504,474072928.0,-0.8679237365722656,-0.1759786605834961,9.410696029663086,0.5443658828735352,-0.11292076110839844,1.2943353652954102,0.13517189025878906,0.7331304550170898,0.6643362045288086,0.05394744873046875
505,474073056.0,-1.3958616256713867,-2.667222023010254,8.602628707885742,-0.03941535949707031,0.27271556854248047,-0.3046741485595703,0.1693096160888672,0.7207870483398438,0.6717596054077148,0.02308940887451172
506,474073088.0,-1.606557846069336,-2.5822248458862305,8.907898902893066,-0.03941535949707031,0.27271556854248047,-0.3046741485595703,0.17064762115478516,0.7230749130249023,0.6689538955688477,0.02356433868408203
507,474073088.0,-1.6819772720336914,-2.7103185653686523,8.8336763381958,-0.03941535949707031,0.27271556854248047,-0.3046741485595703,0.17064762115478516,0.7230749130249023,0.6689538955688477,0.02356433868408203
508,474073120.0,-1.7969026565551758,-2.7929210662841797,8.962966918945312,-0.03941535949707031,0.27271556854248047,-0.3046741485595703,0.17297840118408203,0.7276496887207031,0.6633434295654297,0.025031089782714844
509,474073152.0,-1.8411970138549805,-3.0527000427246094,9.135354995727539,-0.09694194793701172,0.057525634765625,-0.31319713592529297,0.17297840118408203,0.7276496887207031,0.6633434295654297,0.025031089782714844
510,474073152.0,-1.8495769500732422,-3.1436824798583984,9.2550687789917,-0.09694194793701172,0.057525634765625,-0.31319713592529297,0.17297840118408203,0.7276496887207031,0.6633434295654297,0.025031089782714844
511,474073184.0,-1.9058418273925781,-3.0096025466918945,9.16408634185791,-0.11718177795410156,0.0628519058227539,-0.2471485137939453,0.17297840118408203,0.7276496887207031,0.6633434295654297,0.025031089782714844
512,474073184.0,-2.071046829223633,-3.0491085052490234,8.972543716430664,-0.11718177795410156,0.0628519058227539,-0.2471485137939453,0.17297840118408203,0.7276496887207031,0.6633434295654297,0.025031089782714844
513,474073216.0,-2.091398239135742,-3.2825498580932617,8.939023971557617,-0.08415794372558594,0.060721397399902344,-0.17577362060546875,0.17297840118408203,0.7276496887207031,0.6633434295654297,0.025031089782714844
514,474073248.0,-2.130904197692871,-3.5602855682373047,8.939023971557617,-0.08415794372558594,0.060721397399902344,-0.17577362060546875,0.17297840118408203,0.7276496887207031,0.6633434295654297,0.025031089782714844
515,474073248.0,-2.165620803833008,-3.2346649169921875,9.053949356079102,-0.08415794372558594,0.060721397399902344,-0.17577362060546875,0.17297840118408203,0.7276496887207031,0.6633434295654297,0.025031089782714844
516,474073248.0,-2.165620803833008,-3.2346649169921875,9.053949356079102,-0.08415794372558594,0.060721397399902344,-0.17577362060546875,0.17297840118408203,0.7276496887207031,0.6633434295654297,0.025031089782714844
517,474073280.0,-2.1740007400512695,-3.3005075454711914,8.837267875671387,-0.08415794372558594,0.060721397399902344,-0.17577362060546875,0.17297840118408203,0.7276496887207031,0.6633434295654297,0.025031089782714844
518,474073280.0,-2.1740007400512695,-3.3005075454711914,8.837267875671387,-0.08415794372558594,0.060721397399902344,-0.17577362060546875,0.17297840118408203,0.7276496887207031,0.6633434295654297,0.025031089782714844
519,474073312.0,-2.138087272644043,-3.2538185119628906,8.830084800720215,-0.08415794372558594,0.060721397399902344,-0.17577362060546875,0.17297840118408203,0.7276496887207031,0.6633434295654297,0.025031089782714844
520,474073312.0,-2.0506954193115234,-3.064671516418457,8.809733390808105,-0.08415794372558594,0.060721397399902344,-0.17577362060546875,0.17297840118408203,0.7276496887207031,0.6633434295654297,0.025031089782714844
521,474073312.0,-2.138087272644043,-3.2538185119628906,8.830084800720215,-0.08415794372558594,0.060721397399902344,-0.17577362060546875,0.17297840118408203,0.7276496887207031,0.6633434295654297,0.025031089782714844
522,474073312.0,-2.0506954193115234,-3.064671516418457,8.809733390808105,-0.08415794372558594,0.060721397399902344,-0.17577362060546875,0.17297840118408203,0.7276496887207031,0.6633434295654297,0.025031089782714844
523,474073344.0,-2.098581314086914,-3.3579702377319336,8.791776657104492,-0.1033334732055664,-0.040480613708496094,-0.09054946899414062,0.17297840118408203,0.7276496887207031,0.6633434295654297,0.025031089782714844
524,474073344.0,-2.098581314086914,-3.3579702377319336,8.791776657104492,-0.1033334732055664,-0.040480613708496094,-0.09054946899414062,0.17297840118408203,0.7276496887207031,0.6633434295654297,0.025031089782714844
525,474073472.0,-1.737046241760254,-3.021574020385742,9.16408634185791,-0.03621959686279297,-0.08948421478271484,-0.031958580017089844,0.19309043884277344,0.7381801605224609,0.6452169418334961,0.038410186767578125
526,474073472.0,-1.7945079803466797,-2.901860237121582,9.350839614868164,-0.03621959686279297,-0.08948421478271484,-0.031958580017089844,0.19309043884277344,0.7381801605224609,0.6452169418334961,0.038410186767578125
527,474073472.0,-1.737046241760254,-3.021574020385742,9.16408634185791,-0.03621959686279297,-0.08948421478271484,-0.031958580017089844,0.19309043884277344,0.7381801605224609,0.6452169418334961,0.038410186767578125
528,474073472.0,-1.7945079803466797,-2.901860237121582,9.350839614868164,-0.03621959686279297,-0.08948421478271484,-0.031958580017089844,0.19309043884277344,0.7381801605224609,0.6452169418334961,0.038410186767578125
529,474073504.0,-1.8615484237670898,-2.871932029724121,9.381964683532715,-0.03621959686279297,-0.08948421478271484,-0.031958580017089844,0.19149303436279297,0.7383956909179688,0.6454324722290039,0.03914451599121094
530,474073504.0,-1.7825374603271484,-3.2238903045654297,9.343656539916992,-0.03621959686279297,-0.08948421478271484,-0.031958580017089844,0.19149303436279297,0.7383956909179688,0.6454324722290039,0.03914451599121094
531,474073504.0,-1.8615484237670898,-2.871932029724121,9.381964683532715,-0.03621959686279297,-0.08948421478271484,-0.031958580017089844,0.19149303436279297,0.7383956909179688,0.6454324722290039,0.03914451599121094
532,474073504.0,-1.7825374603271484,-3.2238903045654297,9.343656539916992,-0.03621959686279297,-0.08948421478271484,-0.031958580017089844,0.19149303436279297,0.7383956909179688,0.6454324722290039,0.03914451599121094
533,474073536.0,-1.8160572052001953,-3.1329078674316406,9.328093528747559,-0.03621959686279297,-0.08948421478271484,-0.031958580017089844,0.19153594970703125,0.7383956909179688,0.6453466415405273,0.039791107177734375
534,474073536.0,-1.8160572052001953,-3.1329078674316406,9.328093528747559,-0.03621959686279297,-0.08948421478271484,-0.031958580017089844,0.19153594970703125,0.7383956909179688,0.6453466415405273,0.039791107177734375
535,474073568.0,-1.7645797729492188,-3.027560234069824,9.392739295959473,-0.03621959686279297,-0.08948421478271484,-0.031958580017089844,0.19153594970703125,0.7383956909179688,0.6453466415405273,0.039791107177734375
536,474073568.0,-1.8076772689819336,-2.9916458129882812,9.316122055053711,-0.03621959686279297,-0.08948421478271484,-0.031958580017089844,0.19153594970703125,0.7383956909179688,0.6453466415405273,0.039791107177734375
537,474073600.0,-1.8328170776367188,-2.989251136779785,9.33407974243164,-0.03621959686279297,-0.08948421478271484,-0.031958580017089844,0.19153594970703125,0.7383956909179688,0.6453466415405273,0.039791107177734375
538,474073632.0,-1.822042465209961,-3.059882164001465,9.258659362792969,-0.03621959686279297,-0.08948421478271484,-0.031958580017089844,0.19153594970703125,0.7383956909179688,0.6453466415405273,0.039791107177734375
539,474073632.0,-1.847182273864746,-3.1760053634643555,9.208379745483398,-0.03621959686279297,-0.08948421478271484,-0.031958580017089844,0.19153594970703125,0.7383956909179688,0.6453466415405273,0.039791107177734375
540,474073760.0,-1.6987371444702148,-3.1915674209594727,9.087469100952148,-0.030893325805664062,0.01597881317138672,0.0010652542114257812,0.19080257415771484,0.7399930953979492,0.6436634063720703,0.04181957244873047
541,474073792.0,-1.6604290008544922,-3.184385299682617,8.948601722717285,-0.030893325805664062,0.01597881317138672,0.0010652542114257812,0.19080257415771484,0.7399930953979492,0.6436634063720703,0.04181957244873047
542,474073792.0,-1.6735973358154297,-3.057488441467285,9.051554679870605,-0.030893325805664062,0.01597881317138672,0.0010652542114257812,0.19080257415771484,0.7399930953979492,0.6436634063720703,0.04181957244873047
543,474073824.0,-1.7047233581542969,-3.095796585083008,9.086272239685059,-0.030893325805664062,0.01597881317138672,0.0010652542114257812,0.19080257415771484,0.7399930953979492,0.6436634063720703,0.04181957244873047
544,474073824.0,-1.7765512466430664,-2.964111328125,9.120988845825195,-0.030893325805664062,0.01597881317138672,0.0010652542114257812,0.19080257415771484,0.7399930953979492,0.6436634063720703,0.04181957244873047
545,474073856.0,-1.7346515655517578,-2.996434211730957,9.198802947998047,-0.030893325805664062,0.01597881317138672,0.0010652542114257812,0.19080257415771484,0.7399930953979492,0.6436634063720703,0.04181957244873047
546,474073856.0,-1.7346515655517578,-2.996434211730957,9.198802947998047,-0.030893325805664062,0.01597881317138672,0.0010652542114257812,0.19080257415771484,0.7399930953979492,0.6436634063720703,0.04181957244873047
547,474073888.0,-1.7095117568969727,-2.992842674255371,9.1868314743042,-0.030893325805664062,0.01597881317138672,0.0010652542114257812,0.19080257415771484,0.7399930953979492,0.6436634063720703,0.04181957244873047
548,474073888.0,-1.667612075805664,-2.9904489517211914,9.239505767822266,-0.030893325805664062,0.01597881317138672,0.0010652542114257812,0.19080257415771484,0.7399930953979492,0.6436634063720703,0.04181957244873047
549,474073888.0,-1.7095117568969727,-2.992842674255371,9.1868314743042,-0.030893325805664062,0.01597881317138672,0.0010652542114257812,0.19080257415771484,0.7399930953979492,0.6436634063720703,0.04181957244873047
550,474073888.0,-1.667612075805664,-2.9904489517211914,9.239505767822266,-0.030893325805664062,0.01597881317138672,0.0010652542114257812,0.19080257415771484,0.7399930953979492,0.6436634063720703,0.04181957244873047
551,474073920.0,-1.6903572082519531,-2.936577796936035,9.16767692565918,-0.030893325805664062,0.01597881317138672,0.0010652542114257812,0.19080257415771484,0.7399930953979492,0.6436634063720703,0.04181957244873047
552,474073920.0,-1.6903572082519531,-2.936577796936035,9.16767692565918,-0.030893325805664062,0.01597881317138672,0.0010652542114257812,0.19080257415771484,0.7399930953979492,0.6436634063720703,0.04181957244873047
553,474073952.0,-1.7047233581542969,-2.960519790649414,9.293376922607422,0.03728485107421875,-0.009587287902832031,-0.007456779479980469,0.19080257415771484,0.7399930953979492,0.6436634063720703,0.04181957244873047
554,474073952.0,-1.7047233581542969,-2.960519790649414,9.293376922607422,0.03728485107421875,-0.009587287902832031,-0.007456779479980469,0.19080257415771484,0.7399930953979492,0.6436634063720703,0.04181957244873047
555,474074048.0,-1.752608299255371,-3.063473701477051,9.202394485473633,-0.020239830017089844,0.00852203369140625,-0.013848304748535156,0.19080257415771484,0.7399930953979492,0.6436634063720703,0.04181957244873047
556,474074080.0,-1.7047233581542969,-3.007208824157715,9.190423011779785,0.03728485107421875,0.0021305084228515625,-0.0063915252685546875,0.19080257415771484,0.7399930953979492,0.6436634063720703,0.04181957244873047
557,474074112.0,-1.6891603469848633,-3.0155887603759766,9.176057815551758,0.01597881317138672,0.0021305084228515625,-0.0031957626342773438,0.19080257415771484,0.7399930953979492,0.6436634063720703,0.04181957244873047
558,474074112.0,-1.6556406021118164,-2.973689079284668,9.134157180786133,0.01597881317138672,0.0021305084228515625,-0.0031957626342773438,0.19080257415771484,0.7399930953979492,0.6436634063720703,0.04181957244873047
559,474074144.0,-1.6903572082519531,-3.0527000427246094,9.1437349319458,0.03941535949707031,0.0010652542114257812,-0.011717796325683594,0.19080257415771484,0.7399930953979492,0.6436634063720703,0.04181957244873047
560,474074144.0,-1.6436691284179688,-2.9856605529785156,9.156903266906738,0.03941535949707031,0.0010652542114257812,-0.011717796325683594,0.19080257415771484,0.7399930953979492,0.6436634063720703,0.04181957244873047
561,474074176.0,-1.6532459259033203,-2.9784774780273438,9.150917053222656,-0.0021305084228515625,-0.004261016845703125,0.0,0.19080257415771484,0.7399930953979492,0.6436634063720703,0.04181957244873047
562,474074208.0,-1.608952522277832,-3.0119972229003906,9.153311729431152,-0.0010652542114257812,-0.0031957626342773438,-0.0031957626342773438,0.19080257415771484,0.7399930953979492,0.6436634063720703,0.04181957244873047
