,timestamp,accel_x,accel_y,accel_z,gyro_x,gyro_y,gyro_z,ori_scalar,ori_x,ori_y,ori_z
0,50441580.0,-1.6544437408447266,-1.948939323425293,9.37597942352295,-0.04687213897705078,0.030893325805664062,0.021305084228515625,-0.08312320709228516,-0.9752931594848633,0.1763448715209961,0.10392475128173828
1,50441600.0,-1.6520490646362305,-2.0243587493896484,9.391542434692383,-0.04687213897705078,0.030893325805664062,0.021305084228515625,-0.08312320709228516,-0.9752931594848633,0.1763448715209961,0.10392475128173828
2,50441620.0,-1.6700057983398438,-1.8759136199951172,9.470553398132324,-0.04687213897705078,0.030893325805664062,0.021305084228515625,-0.08312320709228516,-0.9752931594848633,0.1763448715209961,0.10392475128173828
3,50441620.0,-1.6700057983398438,-1.8759136199951172,9.470553398132324,-0.04687213897705078,0.030893325805664062,0.021305084228515625,-0.08312320709228516,-0.9752931594848633,0.1763448715209961,0.10392475128173828
4,50441640.0,-1.6640205383300781,-1.9214048385620117,9.466961860656738,-0.04687213897705078,0.030893325805664062,0.021305084228515625,-0.08312320709228516,-0.9752931594848633,0.1763448715209961,0.10392475128173828
5,50441640.0,-1.6640205383300781,-1.9214048385620117,9.466961860656738,-0.04687213897705078,0.030893325805664062,0.021305084228515625,-0.08312320709228516,-0.9752931594848633,0.1763448715209961,0.10392475128173828
6,50441660.0,-1.693948745727539,-1.9381647109985352,9.316122055053711,-0.03941535949707031,0.030893325805664062,0.020239830017089844,-0.08312320709228516,-0.9752931594848633,0.1763448715209961,0.10392475128173828
7,50441680.0,-1.756199836730957,-1.9609107971191406,9.273025512695312,0.012783050537109375,0.026632308959960938,0.026632308959960938,-0.08312320709228516,-0.9752931594848633,0.1763448715209961,0.10392475128173828
8,50441700.0,-1.7442283630371094,-1.8783082962036133,9.362811088562012,0.026632308959960938,0.01597881317138672,0.024501800537109375,-0.08312320709228516,-0.9752931594848633,0.1763448715209961,0.10392475128173828
9,50441720.0,-1.7131032943725586,-1.945347785949707,9.340065002441406,-0.009587287902832031,0.010652542114257812,0.03835010528564453,-0.08312320709228516,-0.9752931594848633,0.1763448715209961,0.10392475128173828
10,50441860.0,-1.5886011123657227,-1.7095117568969727,9.320911407470703,0.09374523162841797,-0.0628519058227539,0.03728485107421875,-0.0810089111328125,-0.9764156341552734,0.17237377166748047,0.1016378402709961
11,50441880.0,-1.5550813674926758,-1.6508522033691406,9.379570960998535,0.024501800537109375,-0.03941535949707031,0.025567054748535156,-0.0810089111328125,-0.9764156341552734,0.17237377166748047,0.1016378402709961
12,50441900.0,-1.5969810485839844,-1.7789459228515625,9.410696029663086,-0.042611122131347656,-0.014913558959960938,0.019174575805664062,-0.0810089111328125,-0.9764156341552734,0.17237377166748047,0.1016378402709961
13,50441920.0,-1.5921926498413086,-1.978867530822754,9.4537935256958,-0.03835010528564453,0.0,0.0063915252685546875,-0.0810089111328125,-0.9764156341552734,0.17237377166748047,0.1016378402709961
14,50441936.0,-1.5826148986816406,-1.883096694946289,9.45499038696289,-0.01810932159423828,0.0010652542114257812,-0.0031957626342773438,-0.0810089111328125,-0.9764156341552734,0.17237377166748047,0.1016378402709961
15,50441960.0,-1.695145606994629,-1.886688232421875,9.40471076965332,-0.01810932159423828,0.0010652542114257812,-0.0031957626342773438,-0.08079338073730469,-0.9767169952392578,0.17120838165283203,0.10055828094482422
16,50441976.0,-1.7550029754638672,-1.8016910552978516,9.42506217956543,-0.01810932159423828,0.0010652542114257812,-0.0031957626342773438,-0.08105182647705078,-0.9767169952392578,0.1710357666015625,0.10064506530761719
17,50442000.0,-1.7035255432128906,-1.850773811340332,9.392739295959473,-0.01810932159423828,0.0010652542114257812,-0.0031957626342773438,-0.08135414123535156,-0.9767169952392578,0.17086315155029297,0.10077476501464844
18,50442016.0,-1.6077547073364258,-1.8627452850341797,9.331685066223145,-0.01810932159423828,0.0010652542114257812,-0.0031957626342773438,-0.08139705657958984,-0.9767169952392578,0.17086315155029297,0.10081768035888672
19,50442036.0,-1.6472606658935547,-1.7969026565551758,9.416682243347168,-0.01810932159423828,0.0010652542114257812,-0.0031957626342773438,-0.08139705657958984,-0.9767169952392578,0.17086315155029297,0.10081768035888672
20,50442256.0,-1.5945863723754883,-1.763382911682129,9.579492568969727,-0.0063915252685546875,-0.0010652542114257812,0.0287628173828125,-0.08165645599365234,-0.9769763946533203,0.1693096160888672,0.10124874114990234
21,50442276.0,-1.668808937072754,-1.8914766311645508,9.396330833435059,-0.04474163055419922,0.0021305084228515625,0.030893325805664062,-0.08165645599365234,-0.9769763946533203,0.1693096160888672,0.10124874114990234
22,50442296.0,-1.7214832305908203,-1.854365348815918,9.269433975219727,0.014913558959960938,-0.007456779479980469,0.033023834228515625,-0.08165645599365234,-0.9769763946533203,0.1693096160888672,0.10124874114990234
23,50442316.0,-1.6520490646362305,-1.7310600280761719,9.352036476135254,0.057525634765625,-0.01810932159423828,0.031958580017089844,-0.08165645599365234,-0.9769763946533203,0.1693096160888672,0.10124874114990234
24,50442336.0,-1.6412744522094727,-1.7693681716918945,9.445413589477539,0.0287628173828125,-0.011717796325683594,0.03728485107421875,-0.08165645599365234,-0.9769763946533203,0.1693096160888672,0.10124874114990234
25,50442356.0,-1.7681713104248047,-1.8519706726074219,9.372387886047363,0.0287628173828125,-0.011717796325683594,0.03728485107421875,-0.08057689666748047,-0.9774074554443359,0.16741085052490234,0.100860595703125
26,50442376.0,-1.7226800918579102,-1.8783082962036133,9.226337432861328,0.0287628173828125,-0.011717796325683594,0.03728485107421875,-0.07997322082519531,-0.9775371551513672,0.16710853576660156,0.1003427505493164
27,50442396.0,-1.5682497024536133,-1.8196487426757812,9.361613273620605,0.0287628173828125,-0.011717796325683594,0.03728485107421875,-0.07915306091308594,-0.977752685546875,0.16672039031982422,0.099609375
28,50442416.0,-1.5562782287597656,-1.7681713104248047,9.429850578308105,0.0287628173828125,-0.011717796325683594,0.03728485107421875,-0.0785055160522461,-0.9779691696166992,0.1662454605102539,0.09896183013916016
29,50442436.0,-1.7071170806884766,-1.8878850936889648,9.387950897216797,0.0287628173828125,-0.011717796325683594,0.03728485107421875,-0.07811737060546875,-0.9781417846679688,0.1657276153564453,0.09848690032958984
30,50442556.0,-1.547898292541504,-1.7071170806884766,9.415484428405762,0.040480613708496094,-0.05965614318847656,0.07137489318847656,-0.07505321502685547,-0.979435920715332,0.16158485412597656,0.09473228454589844
31,50442576.0,-1.638880729675293,-1.6640205383300781,9.432244300842285,0.040480613708496094,-0.05965614318847656,0.07137489318847656,-0.07466411590576172,-0.9795656204223633,0.16102313995361328,0.09425735473632812
32,50442596.0,-1.6125431060791016,-1.5502920150756836,9.49569320678711,0.040480613708496094,-0.05965614318847656,0.07137489318847656,-0.07427597045898438,-0.9797382354736328,0.16059207916259766,0.09378242492675781
33,50442616.0,-1.5514898300170898,-1.5981779098510742,9.42506217956543,0.040480613708496094,-0.05965614318847656,0.07137489318847656,-0.07440567016601562,-0.9797811508178711,0.16028976440429688,0.09348011016845703
34,50442636.0,-1.642472267150879,-1.759791374206543,9.391542434692383,0.040480613708496094,-0.05965614318847656,0.07137489318847656,-0.07466411590576172,-0.9798679351806641,0.1599445343017578,0.0933074951171875
35,50442756.0,-1.4640989303588867,-1.6628236770629883,9.57470417022705,0.034089088439941406,-0.03621959686279297,0.04900360107421875,-0.07375812530517578,-0.9804725646972656,0.15752792358398438,0.0917978286743164
36,50442776.0,-1.4102277755737305,-1.6245145797729492,9.598647117614746,0.034089088439941406,-0.03621959686279297,0.04900360107421875,-0.07336997985839844,-0.9806451797485352,0.15675067901611328,0.09158134460449219
37,50442796.0,-1.4054384231567383,-1.723876953125,9.384359359741211,0.034089088439941406,-0.03621959686279297,0.04900360107421875,-0.07311058044433594,-0.9808177947998047,0.15588760375976562,0.0913228988647461
38,50442816.0,-1.3886785507202148,-1.574234962463379,9.45499038696289,0.034089088439941406,-0.03621959686279297,0.04900360107421875,-0.07237720489501953,-0.9810333251953125,0.15515422821044922,0.09084796905517578
39,50442836.0,-1.3755102157592773,-1.4102277755737305,9.536396026611328,0.034089088439941406,-0.03621959686279297,0.04900360107421875,-0.07151412963867188,-0.9812488555908203,0.15450668334960938,0.09033012390136719
40,50442956.0,-1.4617042541503906,-1.4569158554077148,9.401119232177734,0.025567054748535156,-0.011717796325683594,0.024501800537109375,-0.06875133514404297,-0.9819393157958984,0.15226268768310547,0.0885171890258789
41,50442976.0,-1.4150161743164062,-1.479660987854004,9.373584747314453,0.025567054748535156,-0.011717796325683594,0.024501800537109375,-0.06853580474853516,-0.9820261001586914,0.15200328826904297,0.08856010437011719
42,50442996.0,-1.4880409240722656,-1.3671302795410156,9.289785385131836,0.025567054748535156,-0.011717796325683594,0.024501800537109375,-0.06832027435302734,-0.9820690155029297,0.1519603729248047,0.08834457397460938
43,50443016.0,-1.4389581680297852,-1.4724788665771484,9.428653717041016,0.025567054748535156,-0.011717796325683594,0.024501800537109375,-0.0681905746459961,-0.9820690155029297,0.1519603729248047,0.0880422592163086
44,50443032.0,-1.3431873321533203,-1.4808588027954102,9.488510131835938,0.025567054748535156,-0.011717796325683594,0.024501800537109375,-0.06801795959472656,-0.9821548461914062,0.1519603729248047,0.08761119842529297
45,50443152.0,-1.442549705505371,-1.540715217590332,9.401119232177734,0.026632308959960938,-0.005326271057128906,-0.025567054748535156,-0.06754302978515625,-0.982111930847168,0.15303897857666016,0.0865316390991211
46,50443176.0,-1.4928302764892578,-1.6173324584960938,9.366402626037598,0.026632308959960938,-0.005326271057128906,-0.025567054748535156,-0.06801795959472656,-0.9820261001586914,0.1532115936279297,0.08657550811767578
47,50443192.0,-1.5502920150756836,-1.5862064361572266,9.391542434692383,0.026632308959960938,-0.005326271057128906,-0.025567054748535156,-0.06823348999023438,-0.9819822311401367,0.1534271240234375,0.08661842346191406
48,50443216.0,-1.5455036163330078,-1.5323352813720703,9.432244300842285,0.026632308959960938,-0.005326271057128906,-0.025567054748535156,-0.06836318969726562,-0.9819393157958984,0.15372943878173828,0.08657550811767578
49,50443232.0,-1.6005725860595703,-1.476069450378418,9.471750259399414,0.026632308959960938,-0.005326271057128906,-0.025567054748535156,-0.06888103485107422,-0.9818534851074219,0.1539020538330078,0.08666133880615234
50,50443352.0,-1.4988155364990234,-1.6041631698608398,9.460975646972656,-0.024501800537109375,-0.022370338439941406,0.025567054748535156,-0.07030582427978516,-0.9818096160888672,0.1539449691772461,0.08618640899658203
51,50443352.0,-1.4988155364990234,-1.6041631698608398,9.460975646972656,-0.024501800537109375,-0.022370338439941406,0.025567054748535156,-0.07030582427978516,-0.9818096160888672,0.1539449691772461,0.08618640899658203
52,50443372.0,-1.5095901489257812,-1.4820556640625,9.478933334350586,-0.024501800537109375,-0.022370338439941406,0.025567054748535156,-0.0699167251586914,-0.9818964004516602,0.1536865234375,0.08597087860107422
53,50443372.0,-1.5095901489257812,-1.4820556640625,9.478933334350586,-0.024501800537109375,-0.022370338439941406,0.025567054748535156,-0.0699167251586914,-0.9818964004516602,0.1536865234375,0.08597087860107422
54,50443392.0,-1.5095901489257812,-1.452127456665039,9.566324234008789,-0.024501800537109375,-0.022370338439941406,0.025567054748535156,-0.06961536407470703,-0.9818964004516602,0.15359973907470703,0.08592796325683594
55,50443392.0,-1.5095901489257812,-1.452127456665039,9.566324234008789,-0.024501800537109375,-0.022370338439941406,0.025567054748535156,-0.06961536407470703,-0.9818964004516602,0.15359973907470703,0.08592796325683594
56,50443412.0,-1.4844493865966797,-1.5490951538085938,9.559141159057617,-0.024501800537109375,-0.022370338439941406,0.025567054748535156,-0.0697011947631836,-0.9818964004516602,0.15359973907470703,0.08592796325683594
57,50443412.0,-1.4844493865966797,-1.5490951538085938,9.559141159057617,-0.024501800537109375,-0.022370338439941406,0.025567054748535156,-0.0697011947631836,-0.9818964004516602,0.15359973907470703,0.08592796325683594
58,50443432.0,-1.4341697692871094,-1.540715217590332,9.508861541748047,-0.024501800537109375,-0.022370338439941406,0.025567054748535156,-0.0699605941772461,-0.9818964004516602,0.15359973907470703,0.0860137939453125
59,50443432.0,-1.4341697692871094,-1.540715217590332,9.508861541748047,-0.024501800537109375,-0.022370338439941406,0.025567054748535156,-0.0699605941772461,-0.9818964004516602,0.15359973907470703,0.0860137939453125
60,50443552.0,-1.4700841903686523,-1.6903572082519531,9.443018913269043,-0.05113410949707031,0.042611122131347656,-0.020239830017089844,-0.0699605941772461,-0.9818964004516602,0.15359973907470703,0.0860137939453125
61,50443552.0,-1.4700841903686523,-1.6903572082519531,9.443018913269043,-0.05113410949707031,0.042611122131347656,-0.020239830017089844,-0.0699605941772461,-0.9818964004516602,0.15359973907470703,0.0860137939453125
62,50443572.0,-1.416213035583496,-1.5622634887695312,9.441822052001953,-0.05113410949707031,0.042611122131347656,-0.020239830017089844,-0.0699605941772461,-0.9818964004516602,0.15359973907470703,0.0860137939453125
63,50443572.0,-1.416213035583496,-1.5622634887695312,9.441822052001953,-0.05113410949707031,0.042611122131347656,-0.020239830017089844,-0.0699605941772461,-0.9818964004516602,0.15359973907470703,0.0860137939453125
64,50443592.0,-1.4114246368408203,-1.67120361328125,9.45618724822998,-0.05113410949707031,0.042611122131347656,-0.020239830017089844,-0.0699605941772461,-0.9818964004516602,0.15359973907470703,0.0860137939453125
65,50443592.0,-1.4114246368408203,-1.67120361328125,9.45618724822998,-0.05113410949707031,0.042611122131347656,-0.020239830017089844,-0.0699605941772461,-0.9818964004516602,0.15359973907470703,0.0860137939453125
66,50443612.0,-1.4629011154174805,-1.7119054794311523,9.423864364624023,-0.05113410949707031,0.042611122131347656,-0.020239830017089844,-0.0699605941772461,-0.9818964004516602,0.15359973907470703,0.0860137939453125
67,50443612.0,-1.4629011154174805,-1.7119054794311523,9.423864364624023,-0.05113410949707031,0.042611122131347656,-0.020239830017089844,-0.0699605941772461,-0.9818964004516602,0.15359973907470703,0.0860137939453125
68,50443632.0,-1.5287437438964844,-1.6340923309326172,9.37478256225586,-0.05113410949707031,0.042611122131347656,-0.020239830017089844,-0.0699605941772461,-0.9818964004516602,0.15359973907470703,0.0860137939453125
69,50443632.0,-1.5287437438964844,-1.6340923309326172,9.37478256225586,-0.05113410949707031,0.042611122131347656,-0.020239830017089844,-0.0699605941772461,-0.9818964004516602,0.15359973907470703,0.0860137939453125
70,50443652.0,-1.5131807327270508,-1.4006500244140625,9.42625904083252,0.05646038055419922,-0.025567054748535156,0.01810932159423828,-0.0699605941772461,-0.9818964004516602,0.15359973907470703,0.0860137939453125
71,50443672.0,-1.446141242980957,-1.3946647644042969,9.408302307128906,0.0010652542114257812,-0.021305084228515625,0.012783050537109375,-0.0699605941772461,-0.9818964004516602,0.15359973907470703,0.0860137939453125
72,50443692.0,-1.4652957916259766,-1.5622634887695312,9.411893844604492,0.007456779479980469,-0.020239830017089844,0.0,-0.0699605941772461,-0.9818964004516602,0.15359973907470703,0.0860137939453125
73,50443712.0,-1.5287437438964844,-1.5299406051635742,9.411893844604492,0.042611122131347656,-0.022370338439941406,-0.0063915252685546875,-0.0699605941772461,-0.9818964004516602,0.15359973907470703,0.0860137939453125
74,50443732.0,-1.5191669464111328,-1.419804573059082,9.536396026611328,0.02769756317138672,-0.0287628173828125,-0.00852203369140625,-0.0699605941772461,-0.9818964004516602,0.15359973907470703,0.0860137939453125
75,50443752.0,-1.4664926528930664,-1.4581127166748047,9.510058403015137,-0.021305084228515625,-0.01597881317138672,-0.0063915252685546875,-0.07039165496826172,-0.9815940856933594,0.1544198989868164,0.08748149871826172
76,50443772.0,-1.4712810516357422,-1.5969810485839844,9.47653865814209,-0.025567054748535156,-0.0031957626342773438,-0.011717796325683594,-0.07065105438232422,-0.9815940856933594,0.15450668334960938,0.08748149871826172
77,50443792.0,-1.510787010192871,-1.7059202194213867,9.398724555969238,0.031958580017089844,-0.012783050537109375,-0.022370338439941406,-0.07052135467529297,-0.9815511703491211,0.1547222137451172,0.08735179901123047
78,50443812.0,-1.4449443817138672,-1.5227584838867188,9.611815452575684,0.05539512634277344,-0.005326271057128906,-0.014913558959960938,-0.0699605941772461,-0.9815940856933594,0.154937744140625,0.08722209930419922
79,50443832.0,-1.4150161743164062,-1.5431098937988281,9.5651273727417,-0.033023834228515625,0.020239830017089844,-0.009587287902832031,-0.07000350952148438,-0.9815511703491211,0.1549816131591797,0.08735179901123047
80,50443952.0,-1.5526866912841797,-1.6364860534667969,9.443018913269043,-0.03515434265136719,0.009587287902832031,-0.0021305084228515625,-0.07000350952148438,-0.9815511703491211,0.1549816131591797,0.08735179901123047
81,50443952.0,-1.5526866912841797,-1.6364860534667969,9.443018913269043,-0.03515434265136719,0.009587287902832031,-0.0021305084228515625,-0.07000350952148438,-0.9815511703491211,0.1549816131591797,0.08735179901123047
82,50443972.0,-1.5071954727172852,-1.608952522277832,9.493298530578613,0.0287628173828125,-0.0010652542114257812,-0.0021305084228515625,-0.07000350952148438,-0.9815511703491211,0.1549816131591797,0.08735179901123047
83,50443972.0,-1.5071954727172852,-1.608952522277832,9.493298530578613,0.0287628173828125,-0.0010652542114257812,-0.0021305084228515625,-0.07000350952148438,-0.9815511703491211,0.1549816131591797,0.08735179901123047
84,50443992.0,-1.4473390579223633,-1.4485359191894531,9.516044616699219,0.033023834228515625,0.0,0.0,-0.07000350952148438,-0.9815511703491211,0.1549816131591797,0.08735179901123047
85,50443992.0,-1.4473390579223633,-1.4485359191894531,9.516044616699219,0.033023834228515625,0.0,0.0,-0.07000350952148438,-0.9815511703491211,0.1549816131591797,0.08735179901123047
86,50444012.0,-1.442549705505371,-1.4150161743164062,9.502876281738281,-0.023435592651367188,0.013848304748535156,0.004261016845703125,-0.07000350952148438,-0.9815511703491211,0.1549816131591797,0.08735179901123047
87,50444012.0,-1.442549705505371,-1.4150161743164062,9.502876281738281,-0.023435592651367188,0.013848304748535156,0.004261016845703125,-0.07000350952148438,-0.9815511703491211,0.1549816131591797,0.08735179901123047
88,50444032.0,-1.4652957916259766,-1.6568374633789062,9.517241477966309,-0.040480613708496094,0.026632308959960938,0.011717796325683594,-0.07000350952148438,-0.9815511703491211,0.1549816131591797,0.08735179901123047
89,50444032.0,-1.4652957916259766,-1.6568374633789062,9.517241477966309,-0.040480613708496094,0.026632308959960938,0.011717796325683594,-0.07000350952148438,-0.9815511703491211,0.1549816131591797,0.08735179901123047
90,50444052.0,-1.3994531631469727,-1.6161346435546875,9.488510131835938,-0.040480613708496094,0.026632308959960938,0.011717796325683594,-0.07000350952148438,-0.9815511703491211,0.1549816131591797,0.08735179901123047
91,50444072.0,-1.3970584869384766,-1.442549705505371,9.47653865814209,-0.040480613708496094,0.026632308959960938,0.011717796325683594,-0.07000350952148438,-0.9815511703491211,0.1549816131591797,0.08735179901123047
92,50444092.0,-1.423396110534668,-1.387481689453125,9.420273780822754,-0.040480613708496094,0.026632308959960938,0.011717796325683594,-0.07000350952148438,-0.9815511703491211,0.1549816131591797,0.08735179901123047
93,50444112.0,-1.4964208602905273,-1.4377613067626953,9.320911407470703,-0.040480613708496094,0.026632308959960938,0.011717796325683594,-0.07000350952148438,-0.9815511703491211,0.1549816131591797,0.08735179901123047
94,50444128.0,-1.4581127166748047,-1.4629011154174805,9.299362182617188,-0.040480613708496094,0.026632308959960938,0.011717796325683594,-0.07000350952148438,-0.9815511703491211,0.1549816131591797,0.08735179901123047
95,50444152.0,-1.4820556640625,-1.5251522064208984,9.347248077392578,-0.040480613708496094,0.026632308959960938,0.011717796325683594,-0.07000350952148438,-0.9815511703491211,0.1549816131591797,0.08735179901123047
96,50444168.0,-1.4437475204467773,-1.537123680114746,9.37478256225586,-0.040480613708496094,0.026632308959960938,0.011717796325683594,-0.07000350952148438,-0.9815511703491211,0.1549816131591797,0.08735179901123047
97,50444192.0,-1.547898292541504,-1.4030447006225586,9.256265640258789,-0.040480613708496094,0.026632308959960938,0.011717796325683594,-0.07000350952148438,-0.9815511703491211,0.1549816131591797,0.08735179901123047
98,50444208.0,-1.824437141418457,-1.6005725860595703,9.171268463134766,-0.040480613708496094,0.026632308959960938,0.011717796325683594,-0.07000350952148438,-0.9815511703491211,0.1549816131591797,0.08735179901123047
99,50444232.0,-1.9357709884643555,-1.7406368255615234,9.21556282043457,-0.040480613708496094,0.026632308959960938,0.011717796325683594,-0.07000350952148438,-0.9815511703491211,0.1549816131591797,0.08735179901123047
100,50444348.0,-1.262979507446289,-1.6448659896850586,9.642940521240234,0.023435592651367188,-0.03835010528564453,0.020239830017089844,-0.06724166870117188,-0.9820261001586914,0.1551971435546875,0.08415794372558594
101,50444348.0,-1.262979507446289,-1.6448659896850586,9.642940521240234,0.023435592651367188,-0.03835010528564453,0.020239830017089844,-0.06724166870117188,-0.9820261001586914,0.1551971435546875,0.08415794372558594
102,50444368.0,-1.3156538009643555,-1.8914766311645508,9.433442115783691,0.023435592651367188,-0.03835010528564453,0.020239830017089844,-0.06724166870117188,-0.9820261001586914,0.1551971435546875,0.08415794372558594
103,50444368.0,-1.3156538009643555,-1.8914766311645508,9.433442115783691,0.023435592651367188,-0.03835010528564453,0.020239830017089844,-0.06724166870117188,-0.9820261001586914,0.1551971435546875,0.08415794372558594
104,50444388.0,-1.266571044921875,-1.7825374603271484,9.465764999389648,0.023435592651367188,-0.03835010528564453,0.020239830017089844,-0.06724166870117188,-0.9820261001586914,0.1551971435546875,0.08415794372558594
105,50444388.0,-1.266571044921875,-1.7825374603271484,9.465764999389648,0.023435592651367188,-0.03835010528564453,0.020239830017089844,-0.06724166870117188,-0.9820261001586914,0.1551971435546875,0.08415794372558594
106,50444408.0,-1.1743907928466797,-1.6879634857177734,9.605829238891602,0.023435592651367188,-0.03835010528564453,0.020239830017089844,-0.06724166870117188,-0.9820261001586914,0.1551971435546875,0.08415794372558594
107,50444408.0,-1.1743907928466797,-1.6879634857177734,9.605829238891602,0.023435592651367188,-0.03835010528564453,0.020239830017089844,-0.06724166870117188,-0.9820261001586914,0.1551971435546875,0.08415794372558594
108,50444428.0,-1.198333740234375,-1.7992973327636719,9.492101669311523,0.023435592651367188,-0.03835010528564453,0.020239830017089844,-0.06724166870117188,-0.9820261001586914,0.1551971435546875,0.08415794372558594
109,50444428.0,-1.198333740234375,-1.7992973327636719,9.492101669311523,0.023435592651367188,-0.03835010528564453,0.020239830017089844,-0.06724166870117188,-0.9820261001586914,0.1551971435546875,0.08415794372558594
110,50444448.0,-1.3264274597167969,-1.7131032943725586,9.446610450744629,-0.09587669372558594,0.023435592651367188,0.007456779479980469,-0.06724166870117188,-0.9820261001586914,0.1551971435546875,0.08415794372558594
111,50444468.0,-1.2761478424072266,-1.5586719512939453,9.489706993103027,-0.08415794372558594,-0.009587287902832031,0.0287628173828125,-0.06724166870117188,-0.9820261001586914,0.1551971435546875,0.08415794372558594
112,50444488.0,-1.237839698791504,-1.5359268188476562,9.499284744262695,-0.09054946899414062,-0.01597881317138672,0.04474163055419922,-0.06724166870117188,-0.9820261001586914,0.1551971435546875,0.08415794372558594
113,50444508.0,-1.3240337371826172,-1.6364860534667969,9.414287567138672,-0.04793834686279297,-0.03728485107421875,0.0692434310913086,-0.06724166870117188,-0.9820261001586914,0.1551971435546875,0.08415794372558594
114,50444528.0,-1.4150161743164062,-1.5347299575805664,9.462173461914062,0.012783050537109375,-0.0628519058227539,0.0809621810913086,-0.06724166870117188,-0.9820261001586914,0.1551971435546875,0.08415794372558594
115,50444552.0,-1.5694465637207031,-1.4221982955932617,9.54716968536377,0.0,-0.07350540161132812,0.08735370635986328,-0.06724166870117188,-0.9820261001586914,0.1551971435546875,0.08415794372558594
116,50444568.0,-1.453324317932129,-1.4257898330688477,9.591464042663574,0.0,-0.08948421478271484,0.07989692687988281,-0.06724166870117188,-0.9820261001586914,0.1551971435546875,0.08415794372558594
117,50444588.0,-1.419804573059082,-1.5251522064208984,9.54716968536377,0.022370338439941406,-0.06391716003417969,0.07883167266845703,-0.06724166870117188,-0.9820261001586914,0.1551971435546875,0.08415794372558594
118,50444608.0,-1.4772672653198242,-1.4844493865966797,9.49569320678711,0.020239830017089844,-0.04367637634277344,0.06391716003417969,-0.06724166870117188,-0.9820261001586914,0.1551971435546875,0.08415794372558594
119,50444628.0,-1.416213035583496,-1.4772672653198242,9.64533519744873,-0.023435592651367188,-0.02769756317138672,0.060721397399902344,-0.06724166870117188,-0.9820261001586914,0.1551971435546875,0.08415794372558594
120,50444748.0,-1.3180475234985352,-1.6077547073364258,9.471750259399414,0.025567054748535156,0.026632308959960938,0.07244014739990234,-0.07336997985839844,-0.9833641052246094,0.1441049575805664,0.08243179321289062
121,50444768.0,-1.476069450378418,-1.423396110534668,9.452595710754395,-0.04687213897705078,0.04793834686279297,0.0170440673828125,-0.07336997985839844,-0.9833641052246094,0.1441049575805664,0.08243179321289062
122,50444788.0,-1.417409896850586,-1.544306755065918,9.30534839630127,-0.11718177795410156,0.07137489318847656,0.05113410949707031,-0.07336997985839844,-0.9833641052246094,0.1441049575805664,0.08243179321289062
123,50444808.0,-1.391073226928711,-1.6269092559814453,9.380767822265625,-0.0628519058227539,0.057525634765625,0.02982807159423828,-0.07336997985839844,-0.9833641052246094,0.1441049575805664,0.08243179321289062
124,50444828.0,-1.357553482055664,-1.605360984802246,9.222745895385742,-0.06817817687988281,0.07563591003417969,0.02982807159423828,-0.07336997985839844,-0.9833641052246094,0.1441049575805664,0.08243179321289062
125,50444848.0,-1.3802986145019531,-1.5311384201049805,9.352036476135254,-0.06817817687988281,0.07563591003417969,0.02982807159423828,-0.07535457611083984,-0.9832773208618164,0.14168834686279297,0.08605766296386719
126,50444868.0,-1.3240337371826172,-1.4569158554077148,9.475341796875,-0.06817817687988281,0.07563591003417969,0.02982807159423828,-0.07557106018066406,-0.9832773208618164,0.1413431167602539,0.08644580841064453
127,50444888.0,-1.3826932907104492,-1.514378547668457,9.33527660369873,-0.06817817687988281,0.07563591003417969,0.02982807159423828,-0.0762186050415039,-0.9832773208618164,0.14091110229492188,0.08683395385742188
128,50444908.0,-1.4018478393554688,-1.4700841903686523,9.324501991271973,-0.06817817687988281,0.07563591003417969,0.02982807159423828,-0.07682228088378906,-0.9832773208618164,0.14048004150390625,0.0870065689086914
129,50444928.0,-1.4365644454956055,-1.544306755065918,9.395133018493652,-0.06817817687988281,0.07563591003417969,0.02982807159423828,-0.07690906524658203,-0.9833202362060547,0.1400918960571289,0.08692073822021484
130,50444948.0,-1.3527650833129883,-1.4664926528930664,9.549564361572266,-0.06817817687988281,0.07563591003417969,0.02982807159423828,-0.07690906524658203,-0.9833202362060547,0.1400918960571289,0.08692073822021484
131,50444968.0,-1.200728416442871,-1.355158805847168,9.651320457458496,-0.06817817687988281,0.07563591003417969,0.02982807159423828,-0.07690906524658203,-0.9833202362060547,0.1400918960571289,0.08692073822021484
132,50444988.0,-1.2881193161010742,-1.3144559860229492,9.538789749145508,-0.06817817687988281,0.07563591003417969,0.02982807159423828,-0.07690906524658203,-0.9833202362060547,0.1400918960571289,0.08692073822021484
133,50445008.0,-1.5335321426391602,-1.5431098937988281,9.367599487304688,-0.06817817687988281,0.07563591003417969,0.02982807159423828,-0.07690906524658203,-0.9833202362060547,0.1400918960571289,0.08692073822021484
134,50445028.0,-1.391073226928711,-1.5682497024536133,9.468158721923828,-0.06817817687988281,0.07563591003417969,0.02982807159423828,-0.07690906524658203,-0.9833202362060547,0.1400918960571289,0.08692073822021484
135,50445048.0,-1.5024070739746094,-1.5335321426391602,9.398724555969238,-0.05539512634277344,0.060721397399902344,-0.023435592651367188,-0.07690906524658203,-0.9833202362060547,0.1400918960571289,0.08692073822021484
136,50445068.0,-1.605360984802246,-1.789719581604004,9.30534839630127,-0.0916147232055664,0.0628519058227539,-0.0287628173828125,-0.07690906524658203,-0.9833202362060547,0.1400918960571289,0.08692073822021484
137,50445088.0,-1.570643424987793,-1.9441509246826172,9.162888526916504,-0.07989692687988281,0.03515434265136719,-0.031958580017089844,-0.07690906524658203,-0.9833202362060547,0.1400918960571289,0.08692073822021484
138,50445108.0,-1.5024070739746094,-1.8962650299072266,9.250279426574707,-0.04900360107421875,-0.0010652542114257812,-0.014913558959960938,-0.07690906524658203,-0.9833202362060547,0.1400918960571289,0.08692073822021484
139,50445128.0,-1.4892387390136719,-2.0315418243408203,9.366402626037598,-0.03835010528564453,-0.024501800537109375,0.0031957626342773438,-0.07690906524658203,-0.9833202362060547,0.1400918960571289,0.08692073822021484
140,50445144.0,-1.6125431060791016,-1.9237995147705078,9.549564361572266,-0.0031957626342773438,-0.057525634765625,0.031958580017089844,-0.07690906524658203,-0.9833202362060547,0.1400918960571289,0.08692073822021484
141,50445168.0,-1.5933895111083984,-1.916616439819336,9.580689430236816,0.022370338439941406,-0.08522319793701172,0.061786651611328125,-0.07690906524658203,-0.9833202362060547,0.1400918960571289,0.08692073822021484
142,50445184.0,-1.5610666275024414,-1.7190885543823242,9.584280967712402,0.033023834228515625,-0.1033334732055664,0.08309268951416016,-0.07690906524658203,-0.9833202362060547,0.1400918960571289,0.08692073822021484
143,50445208.0,-1.453324317932129,-1.7825374603271484,9.747092247009277,0.05113410949707031,-0.07883167266845703,0.09054946899414062,-0.07690906524658203,-0.9833202362060547,0.1400918960571289,0.08692073822021484
144,50445224.0,-1.4006500244140625,-1.5886011123657227,9.859622955322266,0.07776641845703125,-0.053264617919921875,0.07350540161132812,-0.07690906524658203,-0.9833202362060547,0.1400918960571289,0.08692073822021484
145,50445248.0,-1.4257898330688477,-1.5694465637207031,9.793780326843262,0.07776641845703125,-0.053264617919921875,0.07350540161132812,-0.07768535614013672,-0.9840545654296875,0.1363363265991211,0.08407211303710938
146,50445264.0,-1.413818359375,-1.5814180374145508,9.57470417022705,0.07776641845703125,-0.053264617919921875,0.07350540161132812,-0.07755565643310547,-0.9840545654296875,0.1358184814453125,0.08437442779541016
147,50445288.0,-1.4341697692871094,-1.5790233612060547,9.47414493560791,0.07776641845703125,-0.053264617919921875,0.07350540161132812,-0.07742691040039062,-0.9840974807739258,0.13543033599853516,0.08484840393066406
148,50445304.0,-1.3683271408081055,-1.6724004745483398,9.439427375793457,0.07776641845703125,-0.053264617919921875,0.07350540161132812,-0.07734012603759766,-0.9840545654296875,0.1353006362915039,0.08536720275878906
149,50445328.0,-1.3096675872802734,-1.4880409240722656,9.452595710754395,0.07776641845703125,-0.053264617919921875,0.07350540161132812,-0.07729721069335938,-0.9840545654296875,0.1353006362915039,0.0857553482055664
150,50445344.0,-1.3934669494628906,-1.266571044921875,9.504073143005371,-0.05859088897705078,0.05646038055419922,-0.025567054748535156,-0.07729721069335938,-0.9840545654296875,0.1353006362915039,0.0857553482055664
151,50445344.0,-1.3934669494628906,-1.266571044921875,9.504073143005371,-0.05859088897705078,0.05646038055419922,-0.025567054748535156,-0.07729721069335938,-0.9840545654296875,0.1353006362915039,0.0857553482055664
152,50445368.0,-1.4341697692871094,-1.4808588027954102,9.431047439575195,-0.09694194793701172,0.07989692687988281,-0.040480613708496094,-0.07729721069335938,-0.9840545654296875,0.1353006362915039,0.0857553482055664
153,50445368.0,-1.4341697692871094,-1.4808588027954102,9.431047439575195,-0.09694194793701172,0.07989692687988281,-0.040480613708496094,-0.07729721069335938,-0.9840545654296875,0.1353006362915039,0.0857553482055664
154,50445384.0,-1.4449443817138672,-1.7538061141967773,9.247885704040527,-0.045806884765625,0.08202743530273438,-0.07989692687988281,-0.07729721069335938,-0.9840545654296875,0.1353006362915039,0.0857553482055664
155,50445384.0,-1.4449443817138672,-1.7538061141967773,9.247885704040527,-0.045806884765625,0.08202743530273438,-0.07989692687988281,-0.07729721069335938,-0.9840545654296875,0.1353006362915039,0.0857553482055664
156,50445408.0,-1.638880729675293,-1.4712810516357422,9.217957496643066,0.0021305084228515625,0.06604766845703125,-0.10865974426269531,-0.07729721069335938,-0.9840545654296875,0.1353006362915039,0.0857553482055664
157,50445408.0,-1.638880729675293,-1.4712810516357422,9.217957496643066,0.0021305084228515625,0.06604766845703125,-0.10865974426269531,-0.07729721069335938,-0.9840545654296875,0.1353006362915039,0.0857553482055664
158,50445424.0,-1.635289192199707,-1.442549705505371,9.440624237060547,-0.0862884521484375,0.052199363708496094,-0.05859088897705078,-0.07729721069335938,-0.9840545654296875,0.1353006362915039,0.0857553482055664
159,50445424.0,-1.635289192199707,-1.442549705505371,9.440624237060547,-0.0862884521484375,0.052199363708496094,-0.05859088897705078,-0.07729721069335938,-0.9840545654296875,0.1353006362915039,0.0857553482055664
160,50445448.0,-1.7047233581542969,-1.8435907363891602,9.560338020324707,-0.14807605743408203,0.03515434265136719,-0.033023834228515625,-0.07729721069335938,-0.9840545654296875,0.1353006362915039,0.0857553482055664
161,50445464.0,-2.0219640731811523,-2.2578001022338867,9.413090705871582,0.009587287902832031,0.0,-0.04793834686279297,-0.07729721069335938,-0.9840545654296875,0.1353006362915039,0.0857553482055664
162,50445488.0,-1.9800643920898438,-2.0506954193115234,9.4071044921875,0.20986270904541016,-0.02769756317138672,-0.06604766845703125,-0.07729721069335938,-0.9840545654296875,0.1353006362915039,0.0857553482055664
163,50445504.0,-1.7478199005126953,-1.5203638076782227,9.71476936340332,0.22584247589111328,-0.042611122131347656,-0.033023834228515625,-0.07729721069335938,-0.9840545654296875,0.1353006362915039,0.0857553482055664
164,50445528.0,-1.3862848281860352,-1.546701431274414,9.936239242553711,-0.06711292266845703,0.03728485107421875,0.0,-0.07729721069335938,-0.9840545654296875,0.1353006362915039,0.0857553482055664
165,50445544.0,-1.3671302795410156,-2.287729263305664,9.398724555969238,-0.21092796325683594,0.10546398162841797,-0.0063915252685546875,-0.07729721069335938,-0.9840545654296875,0.1353006362915039,0.0857553482055664
166,50445564.0,-1.4281845092773438,-2.2170982360839844,9.148523330688477,-0.21092796325683594,0.10546398162841797,-0.0063915252685546875,-0.07729721069335938,-0.9840545654296875,0.1353006362915039,0.0857553482055664
167,50445584.0,-1.4042415618896484,-1.8687305450439453,9.11739730834961,-0.21092796325683594,0.10546398162841797,-0.0063915252685546875,-0.07729721069335938,-0.9840545654296875,0.1353006362915039,0.0857553482055664
168,50445604.0,-1.322835922241211,-1.5562782287597656,9.240702629089355,-0.21092796325683594,0.10546398162841797,-0.0063915252685546875,-0.07729721069335938,-0.9840545654296875,0.1353006362915039,0.0857553482055664
169,50445624.0,-1.36114501953125,-1.4449443817138672,9.343656539916992,-0.21092796325683594,0.10546398162841797,-0.0063915252685546875,-0.07729721069335938,-0.9840545654296875,0.1353006362915039,0.0857553482055664
170,50445644.0,-1.3455820083618164,-1.7250747680664062,9.087469100952148,-0.21092796325683594,0.10546398162841797,-0.0063915252685546875,-0.07729721069335938,-0.9840545654296875,0.1353006362915039,0.0857553482055664
171,50445664.0,-1.4605073928833008,-1.5969810485839844,8.966558456420898,0.01597881317138672,0.0170440673828125,0.01810932159423828,-0.07729721069335938,-0.9840545654296875,0.1353006362915039,0.0857553482055664
172,50445684.0,-1.540715217590332,-1.478464126586914,9.043174743652344,0.040480613708496094,0.0063915252685546875,0.009587287902832031,-0.07729721069335938,-0.9840545654296875,0.1353006362915039,0.0857553482055664
173,50445704.0,-1.511983871459961,-1.5395183563232422,9.279010772705078,-0.012783050537109375,-0.020239830017089844,0.004261016845703125,-0.07729721069335938,-0.9840545654296875,0.1353006362915039,0.0857553482055664
174,50445724.0,-1.4449443817138672,-1.632894515991211,9.33407974243164,-0.05646038055419922,-0.03941535949707031,-0.019174575805664062,-0.07729721069335938,-0.9840545654296875,0.1353006362915039,0.0857553482055664
175,50445744.0,-1.5203638076782227,-1.7777481079101562,9.18563461303711,-0.042611122131347656,-0.04367637634277344,-0.041545867919921875,-0.07729721069335938,-0.9840545654296875,0.1353006362915039,0.0857553482055664
176,50445764.0,-1.599374771118164,-1.7394399642944336,9.246688842773438,-0.042611122131347656,-0.04367637634277344,-0.041545867919921875,-0.07729721069335938,-0.9840545654296875,0.1353006362915039,0.0857553482055664
177,50445784.0,-1.6376838684082031,-1.729863166809082,9.647729873657227,-0.042611122131347656,-0.04367637634277344,-0.041545867919921875,-0.07729721069335938,-0.9840545654296875,0.1353006362915039,0.0857553482055664
178,50445804.0,-1.4772672653198242,-1.7322568893432617,9.810540199279785,-0.042611122131347656,-0.04367637634277344,-0.041545867919921875,-0.07729721069335938,-0.9840545654296875,0.1353006362915039,0.0857553482055664
179,50445824.0,-1.4473390579223633,-1.7442283630371094,9.76504898071289,-0.042611122131347656,-0.04367637634277344,-0.041545867919921875,-0.07729721069335938,-0.9840545654296875,0.1353006362915039,0.0857553482055664
180,50445844.0,-1.6281061172485352,-1.7969026565551758,9.682446479797363,-0.042611122131347656,-0.04367637634277344,-0.041545867919921875,-0.07729721069335938,-0.9840545654296875,0.1353006362915039,0.0857553482055664
181,50445864.0,-1.631697654724121,-1.6173324584960938,9.6956148147583,0.005326271057128906,0.011717796325683594,-0.021305084228515625,-0.07729721069335938,-0.9840545654296875,0.1353006362915039,0.0857553482055664
182,50445884.0,-1.455718994140625,-1.6664142608642578,9.705191612243652,-0.01810932159423828,0.040480613708496094,-0.01810932159423828,-0.07729721069335938,-0.9840545654296875,0.1353006362915039,0.0857553482055664
183,50445904.0,-1.419804573059082,-1.7059202194213867,9.571112632751465,-0.01810932159423828,0.07350540161132812,-0.009587287902832031,-0.07729721069335938,-0.9840545654296875,0.1353006362915039,0.0857553482055664
184,50445924.0,-1.635289192199707,-1.6664142608642578,9.428653717041016,-0.025567054748535156,0.08415794372558594,-0.004261016845703125,-0.07729721069335938,-0.9840545654296875,0.1353006362915039,0.0857553482055664
185,50445944.0,-1.6963434219360352,-1.7789459228515625,9.319713592529297,-0.026632308959960938,0.06604766845703125,0.005326271057128906,-0.07729721069335938,-0.9840545654296875,0.1353006362915039,0.0857553482055664
186,50445964.0,-1.7154970169067383,-1.7095117568969727,9.289785385131836,0.009587287902832031,0.03941535949707031,-0.0063915252685546875,-0.07729721069335938,-0.9840545654296875,0.1353006362915039,0.0857553482055664
187,50445984.0,-1.7178916931152344,-1.6927518844604492,9.28619384765625,0.020239830017089844,0.034089088439941406,-0.00852203369140625,-0.07729721069335938,-0.9840545654296875,0.1353006362915039,0.0857553482055664
188,50446004.0,-1.7382431030273438,-1.8591537475585938,9.324501991271973,0.01810932159423828,0.0170440673828125,0.005326271057128906,-0.07729721069335938,-0.9840545654296875,0.1353006362915039,0.0857553482055664
189,50446024.0,-1.6484575271606445,-1.820845603942871,9.331685066223145,0.024501800537109375,-0.0010652542114257812,0.005326271057128906,-0.07729721069335938,-0.9840545654296875,0.1353006362915039,0.0857553482055664
190,50446044.0,-1.60296630859375,-1.848379135131836,9.328093528747559,0.04474163055419922,-0.004261016845703125,0.0170440673828125,-0.07729721069335938,-0.9840545654296875,0.1353006362915039,0.0857553482055664
191,50446164.0,-1.6412744522094727,-1.6771888732910156,9.342459678649902,-0.019174575805664062,-0.00852203369140625,0.03941535949707031,-0.07729721069335938,-0.9840545654296875,0.1353006362915039,0.0857553482055664
192,50446184.0,-1.6137409210205078,-1.8124656677246094,9.319713592529297,-0.00852203369140625,-0.010652542114257812,0.04367637634277344,-0.07729721069335938,-0.9840545654296875,0.1353006362915039,0.0857553482055664
193,50446204.0,-1.6149377822875977,-1.752608299255371,9.296968460083008,0.00852203369140625,-0.020239830017089844,0.04367637634277344,-0.07729721069335938,-0.9840545654296875,0.1353006362915039,0.0857553482055664
194,50446224.0,-1.6795835494995117,-1.638880729675293,9.35443115234375,-0.012783050537109375,-0.023435592651367188,0.04474163055419922,-0.07729721069335938,-0.9840545654296875,0.1353006362915039,0.0857553482055664
195,50446240.0,-1.606557846069336,-1.854365348815918,9.353233337402344,-0.01597881317138672,-0.02769756317138672,0.05539512634277344,-0.07729721069335938,-0.9840545654296875,0.1353006362915039,0.0857553482055664
196,50446264.0,-1.6544437408447266,-1.8064794540405273,9.42625904083252,-0.01597881317138672,-0.02769756317138672,0.05539512634277344,-0.07729721069335938,-0.9840545654296875,0.1353006362915039,0.0857553482055664
197,50446284.0,-1.5754318237304688,-1.7478199005126953,9.443018913269043,-0.01597881317138672,-0.02769756317138672,0.05539512634277344,-0.07816028594970703,-0.9835367202758789,0.13400650024414062,0.0928335189819336
198,50446304.0,-1.5215606689453125,-1.6724004745483398,9.451398849487305,-0.01597881317138672,-0.02769756317138672,0.05539512634277344,-0.07807350158691406,-0.9836654663085938,0.1335315704345703,0.09240150451660156
199,50446324.0,-1.5550813674926758,-1.608952522277832,9.537592887878418,-0.01597881317138672,-0.02769756317138672,0.05539512634277344,-0.07816028594970703,-0.9837093353271484,0.133056640625,0.0920562744140625
200,50446344.0,-1.6077547073364258,-1.7035255432128906,9.500481605529785,-0.01597881317138672,-0.02769756317138672,0.05539512634277344,-0.07841968536376953,-0.9837522506713867,0.1325817108154297,0.09188365936279297
201,50446464.0,-1.4449443817138672,-1.5826148986816406,9.493298530578613,-0.007456779479980469,-0.010652542114257812,0.034089088439941406,-0.07833290100097656,-0.9841403961181641,0.13064002990722656,0.09093379974365234
202,50446480.0,-1.4365644454956055,-1.478464126586914,9.571112632751465,-0.007456779479980469,-0.010652542114257812,0.034089088439941406,-0.07833290100097656,-0.9841403961181641,0.13064002990722656,0.09093379974365234
203,50446504.0,-1.5347299575805664,-1.5263500213623047,9.510058403015137,-0.007456779479980469,-0.010652542114257812,0.034089088439941406,-0.07833290100097656,-0.9841403961181641,0.13064002990722656,0.09093379974365234
204,50446520.0,-1.5682497024536133,-1.6137409210205078,9.45618724822998,-0.007456779479980469,-0.010652542114257812,0.034089088439941406,-0.07833290100097656,-0.9841403961181641,0.13064002990722656,0.09093379974365234
205,50446544.0,-1.4545211791992188,-1.726271629333496,9.428653717041016,-0.007456779479980469,-0.010652542114257812,0.034089088439941406,-0.07833290100097656,-0.9841403961181641,0.13064002990722656,0.09093379974365234
206,50446664.0,-1.5814180374145508,-1.544306755065918,9.419075965881348,0.02769756317138672,0.021305084228515625,-0.012783050537109375,-0.07833290100097656,-0.9841403961181641,0.13064002990722656,0.09093379974365234
207,50446664.0,-1.5814180374145508,-1.544306755065918,9.419075965881348,0.02769756317138672,0.021305084228515625,-0.012783050537109375,-0.07833290100097656,-0.9841403961181641,0.13064002990722656,0.09093379974365234
208,50446680.0,-1.4892387390136719,-1.5191669464111328,9.389147758483887,0.02769756317138672,0.021305084228515625,-0.012783050537109375,-0.07833290100097656,-0.9841403961181641,0.13064002990722656,0.09093379974365234
209,50446680.0,-1.4892387390136719,-1.5191669464111328,9.389147758483887,0.02769756317138672,0.021305084228515625,-0.012783050537109375,-0.07833290100097656,-0.9841403961181641,0.13064002990722656,0.09093379974365234
210,50446700.0,-1.504800796508789,-1.4473390579223633,9.40590763092041,0.02769756317138672,0.021305084228515625,-0.012783050537109375,-0.07833290100097656,-0.9841403961181641,0.13064002990722656,0.09093379974365234
211,50446700.0,-1.504800796508789,-1.4473390579223633,9.40590763092041,0.02769756317138672,0.021305084228515625,-0.012783050537109375,-0.07833290100097656,-0.9841403961181641,0.13064002990722656,0.09093379974365234
212,50446720.0,-1.5239553451538086,-1.5658550262451172,9.396330833435059,0.02769756317138672,0.021305084228515625,-0.012783050537109375,-0.07833290100097656,-0.9841403961181641,0.13064002990722656,0.09093379974365234
213,50446720.0,-1.5239553451538086,-1.5658550262451172,9.396330833435059,0.02769756317138672,0.021305084228515625,-0.012783050537109375,-0.07833290100097656,-0.9841403961181641,0.13064002990722656,0.09093379974365234
214,50446740.0,-1.5012102127075195,-1.4221982955932617,9.367599487304688,0.02769756317138672,0.021305084228515625,-0.012783050537109375,-0.07833290100097656,-0.9841403961181641,0.13064002990722656,0.09093379974365234
215,50446740.0,-1.5012102127075195,-1.4221982955932617,9.367599487304688,0.02769756317138672,0.021305084228515625,-0.012783050537109375,-0.07833290100097656,-0.9841403961181641,0.13064002990722656,0.09093379974365234
216,50446760.0,-1.5311384201049805,-1.3623418807983398,9.362811088562012,0.02982807159423828,0.0,-0.04367637634277344,-0.07833290100097656,-0.9841403961181641,0.13064002990722656,0.09093379974365234
217,50446784.0,-1.5862064361572266,-1.4736757278442383,9.380767822265625,-0.0021305084228515625,0.0,-0.05646038055419922,-0.07833290100097656,-0.9841403961181641,0.13064002990722656,0.09093379974365234
218,50446800.0,-1.5538835525512695,-1.6532459259033203,9.342459678649902,0.025567054748535156,-0.0063915252685546875,-0.06711292266845703,-0.07833290100097656,-0.9841403961181641,0.13064002990722656,0.09093379974365234
219,50446820.0,-1.4940271377563477,-1.6640205383300781,9.279010772705078,0.08202743530273438,-0.022370338439941406,-0.061786651611328125,-0.07833290100097656,-0.9841403961181641,0.13064002990722656,0.09093379974365234
220,50446840.0,-1.4820556640625,-1.416213035583496,9.42506217956543,0.06498241424560547,-0.02769756317138672,-0.061786651611328125,-0.07833290100097656,-0.9841403961181641,0.13064002990722656,0.09093379974365234
221,50446860.0,-1.5000123977661133,-1.608952522277832,9.431047439575195,-0.022370338439941406,-0.013848304748535156,-0.054329872131347656,-0.07833290100097656,-0.9841403961181641,0.13064002990722656,0.09093379974365234
222,50446880.0,-1.4904356002807617,-1.7322568893432617,9.292180061340332,-0.0063915252685546875,-0.010652542114257812,-0.04793834686279297,-0.07833290100097656,-0.9841403961181641,0.13064002990722656,0.09093379974365234
223,50446900.0,-1.4880409240722656,-1.7502145767211914,9.393936157226562,0.054329872131347656,-0.020239830017089844,-0.04367637634277344,-0.07833290100097656,-0.9841403961181641,0.13064002990722656,0.09093379974365234
224,50446920.0,-1.476069450378418,-1.60296630859375,9.502876281738281,0.061786651611328125,-0.033023834228515625,-0.02982807159423828,-0.07833290100097656,-0.9841403961181641,0.13064002990722656,0.09093379974365234
225,50446940.0,-1.5754318237304688,-1.573038101196289,9.54477596282959,0.0021305084228515625,-0.021305084228515625,-0.023435592651367188,-0.07833290100097656,-0.9841403961181641,0.13064002990722656,0.09093379974365234
226,50446960.0,-1.4545211791992188,-1.7490167617797852,9.40590763092041,0.0021305084228515625,-0.021305084228515625,-0.023435592651367188,-0.07833290100097656,-0.9841403961181641,0.13064002990722656,0.09093379974365234
227,50446980.0,-1.4868440628051758,-1.6412744522094727,9.419075965881348,0.0021305084228515625,-0.021305084228515625,-0.023435592651367188,-0.07833290100097656,-0.9841403961181641,0.13064002990722656,0.09093379974365234
228,50447000.0,-1.508392333984375,-1.5131807327270508,9.488510131835938,0.0021305084228515625,-0.021305084228515625,-0.023435592651367188,-0.07833290100097656,-0.9841403961181641,0.13064002990722656,0.09093379974365234
229,50447020.0,-1.5502920150756836,-1.5359268188476562,9.537592887878418,0.0021305084228515625,-0.021305084228515625,-0.023435592651367188,-0.07833290100097656,-0.9841403961181641,0.13064002990722656,0.09093379974365234
230,50447040.0,-1.511983871459961,-1.5909948348999023,9.460975646972656,0.0021305084228515625,-0.021305084228515625,-0.023435592651367188,-0.07833290100097656,-0.9841403961181641,0.13064002990722656,0.09093379974365234
231,50447160.0,-1.4593095779418945,-1.5059986114501953,9.49449634552002,0.024501800537109375,-0.0021305084228515625,-0.02769756317138672,-0.07833290100097656,-0.9841403961181641,0.13064002990722656,0.09093379974365234
232,50447180.0,-1.511983871459961,-1.4928302764892578,9.460975646972656,0.025567054748535156,-0.0031957626342773438,-0.026632308959960938,-0.07833290100097656,-0.9841403961181641,0.13064002990722656,0.09093379974365234
233,50447200.0,-1.4712810516357422,-1.453324317932129,9.514846801757812,0.007456779479980469,-0.005326271057128906,-0.0170440673828125,-0.07833290100097656,-0.9841403961181641,0.13064002990722656,0.09093379974365234
234,50447220.0,-1.3779048919677734,-1.5502920150756836,9.42625904083252,-0.01597881317138672,-0.004261016845703125,-0.01810932159423828,-0.07833290100097656,-0.9841403961181641,0.13064002990722656,0.09093379974365234
235,50447240.0,-1.413818359375,-1.5682497024536133,9.42745590209961,0.01810932159423828,-0.004261016845703125,-0.023435592651367188,-0.07833290100097656,-0.9841403961181641,0.13064002990722656,0.09093379974365234
236,50447260.0,-1.5299406051635742,-1.4449443817138672,9.5651273727417,0.03621959686279297,-0.00852203369140625,-0.019174575805664062,-0.07833290100097656,-0.9841403961181641,0.13064002990722656,0.09093379974365234
237,50447260.0,-1.5299406051635742,-1.4449443817138672,9.5651273727417,0.03621959686279297,-0.00852203369140625,-0.019174575805664062,-0.07833290100097656,-0.9841403961181641,0.13064002990722656,0.09093379974365234
238,50447280.0,-1.517970085144043,-1.4210014343261719,9.447807312011719,-0.009587287902832031,-0.007456779479980469,-0.021305084228515625,-0.07833290100097656,-0.9841403961181641,0.13064002990722656,0.09093379974365234
239,50447280.0,-1.517970085144043,-1.4210014343261719,9.447807312011719,-0.009587287902832031,-0.007456779479980469,-0.021305084228515625,-0.07833290100097656,-0.9841403961181641,0.13064002990722656,0.09093379974365234
240,50447300.0,-1.4413528442382812,-1.5550813674926758,9.413090705871582,-0.009587287902832031,-0.0031957626342773438,-0.023435592651367188,-0.07833290100097656,-0.9841403961181641,0.13064002990722656,0.09093379974365234
241,50447300.0,-1.4413528442382812,-1.5550813674926758,9.413090705871582,-0.009587287902832031,-0.0031957626342773438,-0.023435592651367188,-0.07833290100097656,-0.9841403961181641,0.13064002990722656,0.09093379974365234
242,50447320.0,-1.4090299606323242,-1.5131807327270508,9.505270004272461,0.021305084228515625,0.0,-0.024501800537109375,-0.07833290100097656,-0.9841403961181641,0.13064002990722656,0.09093379974365234
243,50447320.0,-1.4090299606323242,-1.5131807327270508,9.505270004272461,0.021305084228515625,0.0,-0.024501800537109375,-0.07833290100097656,-0.9841403961181641,0.13064002990722656,0.09093379974365234
244,50447340.0,-1.452127456665039,-1.5502920150756836,9.511256217956543,0.031958580017089844,-0.005326271057128906,-0.013848304748535156,-0.07833290100097656,-0.9841403961181641,0.13064002990722656,0.09093379974365234
245,50447340.0,-1.452127456665039,-1.5502920150756836,9.511256217956543,0.031958580017089844,-0.005326271057128906,-0.013848304748535156,-0.07833290100097656,-0.9841403961181641,0.13064002990722656,0.09093379974365234
246,50447460.0,-1.3767070770263672,-1.5790233612060547,9.535198211669922,0.031958580017089844,-0.005326271057128906,-0.013848304748535156,-0.07833290100097656,-0.9841403961181641,0.13064002990722656,0.09093379974365234
247,50447480.0,-1.3264274597167969,-1.5646581649780273,9.49449634552002,0.031958580017089844,-0.005326271057128906,-0.013848304748535156,-0.07833290100097656,-0.9841403961181641,0.13064002990722656,0.09093379974365234
248,50447500.0,-1.351567268371582,-1.6376838684082031,9.551958084106445,0.031958580017089844,-0.005326271057128906,-0.013848304748535156,-0.07833290100097656,-0.9841403961181641,0.13064002990722656,0.09093379974365234
249,50447520.0,-1.479660987854004,-1.5299406051635742,9.59744930267334,0.031958580017089844,-0.005326271057128906,-0.013848304748535156,-0.07833290100097656,-0.9841403961181641,0.13064002990722656,0.09093379974365234
250,50447540.0,-1.413818359375,-1.4245929718017578,9.59744930267334,0.031958580017089844,-0.005326271057128906,-0.013848304748535156,-0.07833290100097656,-0.9841403961181641,0.13064002990722656,0.09093379974365234
251,50447560.0,-1.3779048919677734,-1.446141242980957,9.602238655090332,-0.05113410949707031,0.031958580017089844,0.025567054748535156,-0.07833290100097656,-0.9841403961181641,0.13064002990722656,0.09093379974365234
252,50447576.0,-1.4126214981079102,-1.479660987854004,9.452595710754395,-0.0021305084228515625,0.040480613708496094,0.012783050537109375,-0.07833290100097656,-0.9841403961181641,0.13064002990722656,0.09093379974365234
253,50447600.0,-1.4688873291015625,-1.2857246398925781,9.57590103149414,0.04900360107421875,0.026632308959960938,0.0031957626342773438,-0.07833290100097656,-0.9841403961181641,0.13064002990722656,0.09093379974365234
254,50447616.0,-1.478464126586914,-1.0403118133544922,9.608223915100098,-0.005326271057128906,0.03515434265136719,-0.007456779479980469,-0.07833290100097656,-0.9841403961181641,0.13064002990722656,0.09093379974365234
255,50447640.0,-1.4832525253295898,-1.266571044921875,9.59385871887207,-0.04900360107421875,0.04900360107421875,-0.02769756317138672,-0.07833290100097656,-0.9841403961181641,0.13064002990722656,0.09093379974365234
256,50447660.0,-1.4569158554077148,-1.4593095779418945,9.49569320678711,0.01810932159423828,0.03621959686279297,-0.045806884765625,-0.07833290100097656,-0.9841403961181641,0.13064002990722656,0.09093379974365234
257,50447660.0,-1.4569158554077148,-1.4593095779418945,9.49569320678711,0.01810932159423828,0.03621959686279297,-0.045806884765625,-0.07833290100097656,-0.9841403961181641,0.13064002990722656,0.09093379974365234
258,50447680.0,-1.417409896850586,-1.0678462982177734,9.632166862487793,0.11185550689697266,0.0,-0.07350540161132812,-0.07833290100097656,-0.9841403961181641,0.13064002990722656,0.09093379974365234
259,50447680.0,-1.417409896850586,-1.0678462982177734,9.632166862487793,0.11185550689697266,0.0,-0.07350540161132812,-0.07833290100097656,-0.9841403961181641,0.13064002990722656,0.09093379974365234
260,50447696.0,-1.3802986145019531,-0.7529993057250977,9.749485969543457,0.06391716003417969,0.0063915252685546875,-0.1033334732055664,-0.07833290100097656,-0.9841403961181641,0.13064002990722656,0.09093379974365234
261,50447696.0,-1.3802986145019531,-0.7529993057250977,9.749485969543457,0.06391716003417969,0.0063915252685546875,-0.1033334732055664,-0.07833290100097656,-0.9841403961181641,0.13064002990722656,0.09093379974365234
262,50447720.0,-1.3922700881958008,-0.9780607223510742,9.917085647583008,0.01810932159423828,0.05859088897705078,-0.1608591079711914,-0.07833290100097656,-0.9841403961181641,0.13064002990722656,0.09093379974365234
263,50447720.0,-1.3922700881958008,-0.9780607223510742,9.917085647583008,0.01810932159423828,0.05859088897705078,-0.1608591079711914,-0.07833290100097656,-0.9841403961181641,0.13064002990722656,0.09093379974365234
264,50447736.0,-1.5059986114501953,-1.2713594436645508,9.670475006103516,0.057525634765625,0.07350540161132812,-0.2546052932739258,-0.07833290100097656,-0.9841403961181641,0.13064002990722656,0.09093379974365234
265,50447736.0,-1.5059986114501953,-1.2713594436645508,9.670475006103516,0.057525634765625,0.07350540161132812,-0.2546052932739258,-0.07833290100097656,-0.9841403961181641,0.13064002990722656,0.09093379974365234
266,50447760.0,-1.5526866912841797,-1.1576309204101562,9.511256217956543,0.11505126953125,0.09694194793701172,-0.3504819869995117,-0.07833290100097656,-0.9841403961181641,0.13064002990722656,0.09093379974365234
267,50447760.0,-1.5526866912841797,-1.1576309204101562,9.511256217956543,0.11505126953125,0.09694194793701172,-0.3504819869995117,-0.07833290100097656,-0.9841403961181641,0.13064002990722656,0.09093379974365234
268,50447776.0,-1.5945863723754883,-0.7709560394287109,9.555549621582031,0.11398601531982422,0.1320962905883789,-0.4548816680908203,-0.07833290100097656,-0.9841403961181641,0.13064002990722656,0.09093379974365234
269,50447776.0,-1.5945863723754883,-0.7709560394287109,9.555549621582031,0.11398601531982422,0.1320962905883789,-0.4548816680908203,-0.07833290100097656,-0.9841403961181641,0.13064002990722656,0.09093379974365234
270,50447796.0,-1.5694465637207031,-1.2486133575439453,9.383162498474121,0.12783527374267578,0.1374225616455078,-0.5358438491821289,-0.07833290100097656,-0.9841403961181641,0.13064002990722656,0.09093379974365234
271,50447796.0,-1.5694465637207031,-1.2486133575439453,9.383162498474121,0.12783527374267578,0.1374225616455078,-0.5358438491821289,-0.07833290100097656,-0.9841403961181641,0.13064002990722656,0.09093379974365234
272,50447816.0,-1.4940271377563477,-1.765777587890625,9.170071601867676,0.22797298431396484,0.12250900268554688,-0.5891084671020508,-0.07833290100097656,-0.9841403961181641,0.13064002990722656,0.09093379974365234
273,50447816.0,-1.4940271377563477,-1.765777587890625,9.170071601867676,0.22797298431396484,0.12250900268554688,-0.5891084671020508,-0.07833290100097656,-0.9841403961181641,0.13064002990722656,0.09093379974365234
274,50447836.0,-1.6771888732910156,-1.9513330459594727,9.431047439575195,0.3696575164794922,0.0980072021484375,-0.6146755218505859,-0.07833290100097656,-0.9841403961181641,0.13064002990722656,0.09093379974365234
275,50447836.0,-1.6771888732910156,-1.9513330459594727,9.431047439575195,0.3696575164794922,0.0980072021484375,-0.6146755218505859,-0.07833290100097656,-0.9841403961181641,0.13064002990722656,0.09093379974365234
276,50447960.0,-0.6392707824707031,-6.670449256896973,8.02560806274414,0.3696575164794922,0.0980072021484375,-0.6146755218505859,-0.07833290100097656,-0.9841403961181641,0.13064002990722656,0.09093379974365234
277,50447976.0,-1.0008068084716797,-6.559115409851074,8.017228126525879,0.3696575164794922,0.0980072021484375,-0.6146755218505859,-0.07833290100097656,-0.9841403961181641,0.13064002990722656,0.09093379974365234
278,50448000.0,-1.0055952072143555,-6.51362419128418,8.107013702392578,0.3696575164794922,0.0980072021484375,-0.6146755218505859,-0.07833290100097656,-0.9841403961181641,0.13064002990722656,0.09093379974365234
279,50448016.0,-0.5016002655029297,-5.2422637939453125,9.253870964050293,0.3696575164794922,0.0980072021484375,-0.6146755218505859,-0.07833290100097656,-0.9841403961181641,0.13064002990722656,0.09093379974365234
280,50448036.0,-0.5219516754150391,-3.27297306060791,11.001691818237305,0.3696575164794922,0.0980072021484375,-0.6146755218505859,-0.07833290100097656,-0.9841403961181641,0.13064002990722656,0.09093379974365234
281,50448056.0,-0.956512451171875,-1.7095117568969727,11.6242036819458,1.1494550704956055,-0.8831310272216797,3.972492218017578,-0.07833290100097656,-0.9841403961181641,0.13064002990722656,0.09093379974365234
282,50448076.0,-0.4513206481933594,-2.931788444519043,9.487313270568848,0.6924428939819336,-0.9598321914672852,4.386892318725586,-0.07833290100097656,-0.9841403961181641,0.13064002990722656,0.09093379974365234
283,50448096.0,1.6400775909423828,-2.0423154830932617,9.49449634552002,0.4282493591308594,-0.9939212799072266,4.460397720336914,-0.07833290100097656,-0.9841403961181641,0.13064002990722656,0.09093379974365234
284,50448116.0,3.496837615966797,-0.515965461730957,10.672478675842285,0.8458452224731445,-0.6125450134277344,4.175963401794434,-0.07833290100097656,-0.9841403961181641,0.13064002990722656,0.09093379974365234
285,50448136.0,3.630917549133301,3.1652307510375977,12.167703628540039,1.6330995559692383,-0.07030868530273438,3.870223045349121,-0.07833290100097656,-0.9841403961181641,0.13064002990722656,0.09093379974365234
286,50448256.0,2.569056510925293,8.95578384399414,12.031229972839355,0.8192129135131836,2.7750978469848633,0.3813762664794922,-0.07833290100097656,-0.9841403961181641,0.13064002990722656,0.09093379974365234
287,50448256.0,2.569056510925293,8.95578384399414,12.031229972839355,0.8192129135131836,2.7750978469848633,0.3813762664794922,-0.07833290100097656,-0.9841403961181641,0.13064002990722656,0.09093379974365234
288,50448276.0,2.909043312072754,8.180039405822754,11.175276756286621,0.8192129135131836,2.7750978469848633,0.3813762664794922,0.09762382507324219,-0.9569511413574219,-0.24898147583007812,0.11264324188232422
289,50448276.0,2.909043312072754,8.180039405822754,11.175276756286621,0.8192129135131836,2.7750978469848633,0.3813762664794922,0.09762382507324219,-0.9569511413574219,-0.24898147583007812,0.11264324188232422
290,50448296.0,2.7953147888183594,6.719531059265137,10.601847648620605,0.8192129135131836,2.7750978469848633,0.3813762664794922,0.08480548858642578,-0.9557428359985352,-0.2419891357421875,0.14427757263183594
291,50448296.0,2.7953147888183594,6.719531059265137,10.601847648620605,0.8192129135131836,2.7750978469848633,0.3813762664794922,0.08480548858642578,-0.9557428359985352,-0.2419891357421875,0.14427757263183594
292,50448316.0,2.29251766204834,7.527599334716797,9.587872505187988,0.8192129135131836,2.7750978469848633,0.3813762664794922,0.07138347625732422,-0.9542322158813477,-0.2299480438232422,0.1775531768798828
293,50448316.0,2.29251766204834,7.527599334716797,9.587872505187988,0.8192129135131836,2.7750978469848633,0.3813762664794922,0.07138347625732422,-0.9542322158813477,-0.2299480438232422,0.1775531768798828
294,50448336.0,1.9980220794677734,7.263031959533691,7.365985870361328,0.8192129135131836,2.7750978469848633,0.3813762664794922,0.060248374938964844,-0.9522466659545898,-0.21225357055664062,0.21095752716064453
295,50448336.0,1.9980220794677734,7.263031959533691,7.365985870361328,0.8192129135131836,2.7750978469848633,0.3813762664794922,0.060248374938964844,-0.9522466659545898,-0.21225357055664062,0.21095752716064453
296,50448356.0,1.504800796508789,5.968926429748535,6.836851119995117,0.8192129135131836,2.7750978469848633,0.3813762664794922,0.047301292419433594,-0.9500026702880859,-0.1909332275390625,0.24263572692871094
297,50448376.0,1.132491111755371,5.664853096008301,6.499258041381836,0.8192129135131836,2.7750978469848633,0.3813762664794922,0.047301292419433594,-0.9500026702880859,-0.1909332275390625,0.24263572692871094
298,50448396.0,0.4908256530761719,4.817279815673828,6.2310991287231445,0.8192129135131836,2.7750978469848633,0.3813762664794922,0.047301292419433594,-0.9500026702880859,-0.1909332275390625,0.24263572692871094
299,50448416.0,0.09337615966796875,3.0718536376953125,5.638516426086426,0.8192129135131836,2.7750978469848633,0.3813762664794922,0.047301292419433594,-0.9500026702880859,-0.1909332275390625,0.24263572692871094
300,50448432.0,-0.7422246932983398,1.7166948318481445,4.488067626953125,0.8192129135131836,2.7750978469848633,0.3813762664794922,0.047301292419433594,-0.9500026702880859,-0.1909332275390625,0.24263572692871094
301,50448552.0,-4.336030960083008,-6.931425094604492,2.0842161178588867,1.3092498779296875,-0.886326789855957,-3.266200065612793,0.047301292419433594,-0.9500026702880859,-0.1909332275390625,0.24263572692871094
302,50448576.0,-3.3005075454711914,-6.199974060058594,3.426206588745117,1.4392156600952148,-1.5084600448608398,-2.9071950912475586,0.047301292419433594,-0.9500026702880859,-0.1909332275390625,0.24263572692871094
303,50448592.0,-2.6959524154663086,-6.702771186828613,3.4501495361328125,1.495676040649414,-1.8450937271118164,-2.5087738037109375,0.047301292419433594,-0.9500026702880859,-0.1909332275390625,0.24263572692871094
304,50448616.0,-3.84161376953125,-7.929837226867676,3.2358617782592773,1.3721017837524414,-2.1316585540771484,-2.1007652282714844,0.047301292419433594,-0.9500026702880859,-0.1909332275390625,0.24263572692871094
305,50448632.0,-3.987664222717285,-8.466155052185059,3.927806854248047,1.380624771118164,-2.515165328979492,-1.5787696838378906,0.047301292419433594,-0.9500026702880859,-0.1909332275390625,0.24263572692871094
306,50448656.0,-3.1412878036499023,-8.411087036132812,5.967729568481445,1.380624771118164,-2.8262319564819336,-0.93426513671875,0.047301292419433594,-0.9500026702880859,-0.1909332275390625,0.24263572692871094
307,50448672.0,-2.306882858276367,-8.13454818725586,7.625764846801758,1.1888704299926758,-2.9210433959960938,-0.2716503143310547,0.047301292419433594,-0.9500026702880859,-0.1909332275390625,0.24263572692871094
308,50448696.0,-2.000415802001953,-8.06750774383545,7.962160110473633,0.8415842056274414,-2.930631637573242,0.47618770599365234,0.047301292419433594,-0.9500026702880859,-0.1909332275390625,0.24263572692871094
309,50448712.0,-1.7765512466430664,-8.333272933959961,7.431828498840332,0.5901737213134766,-2.9253053665161133,1.1366710662841797,0.047301292419433594,-0.9500026702880859,-0.1909332275390625,0.24263572692871094
310,50448736.0,-1.9273910522460938,-6.788965225219727,7.859206199645996,0.4090738296508789,-3.0254430770874023,1.7374992370605469,0.047301292419433594,-0.9500026702880859,-0.1909332275390625,0.24263572692871094
311,50448856.0,-1.2653741836547852,0.47646045684814453,16.582746505737305,0.4090738296508789,-3.0254430770874023,1.7374992370605469,-0.07065105438232422,-0.9892330169677734,0.1252880096435547,0.026369094848632812
312,50448856.0,-1.2653741836547852,0.47646045684814453,16.582746505737305,0.4090738296508789,-3.0254430770874023,1.7374992370605469,-0.07065105438232422,-0.9892330169677734,0.1252880096435547,0.026369094848632812
313,50448872.0,-0.5937795639038086,1.6927518844604492,16.725204467773438,0.4090738296508789,-3.0254430770874023,1.7374992370605469,-0.07065105438232422,-0.9892330169677734,0.1252880096435547,0.026369094848632812
314,50448872.0,-0.5937795639038086,1.6927518844604492,16.725204467773438,0.4090738296508789,-3.0254430770874023,1.7374992370605469,-0.07065105438232422,-0.9892330169677734,0.1252880096435547,0.026369094848632812
315,50448896.0,0.09577083587646484,0.2130899429321289,15.31737232208252,0.4090738296508789,-3.0254430770874023,1.7374992370605469,-0.07065105438232422,-0.9892330169677734,0.1252880096435547,0.026369094848632812
316,50448896.0,0.09577083587646484,0.2130899429321289,15.31737232208252,0.4090738296508789,-3.0254430770874023,1.7374992370605469,-0.07065105438232422,-0.9892330169677734,0.1252880096435547,0.026369094848632812
317,50448912.0,-0.04908180236816406,0.004788398742675781,14.072349548339844,0.4090738296508789,-3.0254430770874023,1.7374992370605469,-0.07065105438232422,-0.9892330169677734,0.1252880096435547,0.026369094848632812
318,50448912.0,-0.04908180236816406,0.004788398742675781,14.072349548339844,0.4090738296508789,-3.0254430770874023,1.7374992370605469,-0.07065105438232422,-0.9892330169677734,0.1252880096435547,0.026369094848632812
319,50448936.0,0.1915416717529297,1.971684455871582,13.88679313659668,0.4090738296508789,-3.0254430770874023,1.7374992370605469,-0.07065105438232422,-0.9892330169677734,0.1252880096435547,0.026369094848632812
320,50448936.0,0.1915416717529297,1.971684455871582,13.88679313659668,0.4090738296508789,-3.0254430770874023,1.7374992370605469,-0.07065105438232422,-0.9892330169677734,0.1252880096435547,0.026369094848632812
321,50448952.0,0.6416654586791992,2.8515806198120117,13.130202293395996,-0.1491413116455078,0.7659482955932617,0.6743326187133789,-0.07065105438232422,-0.9892330169677734,0.1252880096435547,0.026369094848632812
322,50448972.0,0.8810930252075195,1.9585161209106445,12.047989845275879,-0.5731296539306641,0.9726152420043945,0.5550193786621094,-0.07065105438232422,-0.9892330169677734,0.1252880096435547,0.026369094848632812
323,50448992.0,0.5985679626464844,-0.30407238006591797,10.368406295776367,-0.6849851608276367,1.099386215209961,0.4484891891479492,-0.07065105438232422,-0.9892330169677734,0.1252880096435547,0.026369094848632812
324,50449012.0,-0.1496419906616211,-0.8858814239501953,9.338868141174316,-0.33663368225097656,0.9875297546386719,0.24927902221679688,-0.07065105438232422,-0.9892330169677734,0.1252880096435547,0.026369094848632812
325,50449032.0,-0.9194011688232422,-0.5243453979492188,9.171268463134766,-0.17683887481689453,0.8991098403930664,0.009587287902832031,-0.07065105438232422,-0.9892330169677734,0.1252880096435547,0.026369094848632812
326,50449056.0,-1.2522048950195312,-1.1935453414916992,8.80494499206543,-0.17683887481689453,0.8991098403930664,0.009587287902832031,-0.07065105438232422,-0.9892330169677734,0.1252880096435547,0.026369094848632812
327,50449072.0,-1.103759765625,-1.8028879165649414,8.819310188293457,-0.17683887481689453,0.8991098403930664,0.009587287902832031,-0.07065105438232422,-0.9892330169677734,0.1252880096435547,0.026369094848632812
328,50449092.0,-1.1384773254394531,-1.6269092559814453,8.725934028625488,-0.17683887481689453,0.8991098403930664,0.009587287902832031,-0.07065105438232422,-0.9892330169677734,0.1252880096435547,0.026369094848632812
329,50449112.0,-1.1767854690551758,-1.537123680114746,8.931840896606445,-0.17683887481689453,0.8991098403930664,0.009587287902832031,-0.07065105438232422,-0.9892330169677734,0.1252880096435547,0.026369094848632812
330,50449132.0,-1.5754318237304688,-1.1372804641723633,9.367599487304688,-0.17683887481689453,0.8991098403930664,0.009587287902832031,-0.07065105438232422,-0.9892330169677734,0.1252880096435547,0.026369094848632812
331,50449252.0,-1.9046449661254883,-1.8723220825195312,9.027612686157227,0.16298961639404297,0.1097249984741211,-0.1608591079711914,-0.10142230987548828,-0.986729621887207,0.04328727722167969,0.11885738372802734
332,50449272.0,-2.007598876953125,-1.7969026565551758,8.943812370300293,0.16298961639404297,0.1097249984741211,-0.1608591079711914,-0.10142230987548828,-0.986729621887207,0.04328727722167969,0.11885738372802734
333,50449292.0,-2.187169075012207,-2.1225242614746094,8.769030570983887,0.16298961639404297,0.1097249984741211,-0.1608591079711914,-0.10142230987548828,-0.986729621887207,0.04328727722167969,0.11885738372802734
334,50449312.0,-2.1775922775268555,-2.3667402267456055,8.602628707885742,0.16298961639404297,0.1097249984741211,-0.1608591079711914,-0.10142230987548828,-0.986729621887207,0.04328727722167969,0.11885738372802734
335,50449332.0,-2.29132080078125,-1.9405593872070312,8.851633071899414,0.16298961639404297,0.1097249984741211,-0.1608591079711914,-0.10142230987548828,-0.986729621887207,0.04328727722167969,0.11885738372802734
336,50449352.0,-2.314065933227539,-1.4473390579223633,9.201197624206543,0.16298961639404297,0.1097249984741211,-0.1608591079711914,-0.10142230987548828,-0.986729621887207,0.04328727722167969,0.11885738372802734
337,50449352.0,-2.314065933227539,-1.4473390579223633,9.201197624206543,0.16298961639404297,0.1097249984741211,-0.1608591079711914,-0.10142230987548828,-0.986729621887207,0.04328727722167969,0.11885738372802734
338,50449372.0,-2.0530900955200195,-2.0279502868652344,8.865999221801758,0.16298961639404297,0.1097249984741211,-0.1608591079711914,-0.10142230987548828,-0.986729621887207,0.04328727722167969,0.11885738372802734
339,50449372.0,-2.0530900955200195,-2.0279502868652344,8.865999221801758,0.16298961639404297,0.1097249984741211,-0.1608591079711914,-0.10142230987548828,-0.986729621887207,0.04328727722167969,0.11885738372802734
340,50449392.0,-1.9872474670410156,-2.2757577896118164,8.697202682495117,0.16298961639404297,0.1097249984741211,-0.1608591079711914,-0.10142230987548828,-0.986729621887207,0.04328727722167969,0.11885738372802734
341,50449392.0,-1.9872474670410156,-2.2757577896118164,8.697202682495117,0.16298961639404297,0.1097249984741211,-0.1608591079711914,-0.10142230987548828,-0.986729621887207,0.04328727722167969,0.11885738372802734
342,50449412.0,-1.9800643920898438,-1.824437141418457,8.838464736938477,0.16298961639404297,0.1097249984741211,-0.1608591079711914,-0.10142230987548828,-0.986729621887207,0.04328727722167969,0.11885738372802734
343,50449412.0,-1.9800643920898438,-1.824437141418457,8.838464736938477,0.16298961639404297,0.1097249984741211,-0.1608591079711914,-0.10142230987548828,-0.986729621887207,0.04328727722167969,0.11885738372802734
344,50449432.0,-2.121326446533203,-1.476069450378418,9.281405448913574,0.16298961639404297,0.1097249984741211,-0.1608591079711914,-0.10142230987548828,-0.986729621887207,0.04328727722167969,0.11885738372802734
345,50449432.0,-2.121326446533203,-1.476069450378418,9.281405448913574,0.16298961639404297,0.1097249984741211,-0.1608591079711914,-0.10142230987548828,-0.986729621887207,0.04328727722167969,0.11885738372802734
346,50449552.0,-1.9764728546142578,-1.9992189407348633,9.487313270568848,-0.04367637634277344,-0.11505126953125,-0.08841896057128906,-0.10258769989013672,-0.9866008758544922,0.06145668029785156,0.11121845245361328
347,50449572.0,-1.9070396423339844,-2.041118621826172,9.459778785705566,-0.04367637634277344,-0.11505126953125,-0.08841896057128906,-0.10258769989013672,-0.9866008758544922,0.06145668029785156,0.11121845245361328
348,50449592.0,-1.8555622100830078,-1.6005725860595703,9.572309494018555,-0.04367637634277344,-0.11505126953125,-0.08841896057128906,-0.10258769989013672,-0.9866008758544922,0.06145668029785156,0.11121845245361328
349,50449612.0,-1.9226016998291016,-1.2390365600585938,9.73631763458252,-0.04367637634277344,-0.11505126953125,-0.08841896057128906,-0.10258769989013672,-0.9866008758544922,0.06145668029785156,0.11121845245361328
350,50449632.0,-1.9046449661254883,-1.7945079803466797,9.560338020324707,-0.04367637634277344,-0.11505126953125,-0.08841896057128906,-0.10258769989013672,-0.9866008758544922,0.06145668029785156,0.11121845245361328
351,50449652.0,-1.939361572265625,-2.077033042907715,9.628575325012207,-0.04367637634277344,-0.11505126953125,-0.08841896057128906,-0.10258769989013672,-0.9866008758544922,0.06145668029785156,0.11121845245361328
352,50449652.0,-1.939361572265625,-2.077033042907715,9.628575325012207,-0.04367637634277344,-0.11505126953125,-0.08841896057128906,-0.10258769989013672,-0.9866008758544922,0.06145668029785156,0.11121845245361328
353,50449672.0,-2.047104835510254,-1.8938703536987305,9.219154357910156,-0.04367637634277344,-0.11505126953125,-0.08841896057128906,-0.10258769989013672,-0.9866008758544922,0.06145668029785156,0.11121845245361328
354,50449672.0,-2.047104835510254,-1.8938703536987305,9.219154357910156,-0.04367637634277344,-0.11505126953125,-0.08841896057128906,-0.10258769989013672,-0.9866008758544922,0.06145668029785156,0.11121845245361328
355,50449692.0,-2.1165380477905273,-1.6556406021118164,9.347248077392578,-0.04367637634277344,-0.11505126953125,-0.08841896057128906,-0.10258769989013672,-0.9866008758544922,0.06145668029785156,0.11121845245361328
356,50449692.0,-2.1165380477905273,-1.6556406021118164,9.347248077392578,-0.04367637634277344,-0.11505126953125,-0.08841896057128906,-0.10258769989013672,-0.9866008758544922,0.06145668029785156,0.11121845245361328
357,50449712.0,-2.009993553161621,-2.0135841369628906,9.390344619750977,-0.04367637634277344,-0.11505126953125,-0.08841896057128906,-0.10258769989013672,-0.9866008758544922,0.06145668029785156,0.11121845245361328
358,50449712.0,-2.009993553161621,-2.0135841369628906,9.390344619750977,-0.04367637634277344,-0.11505126953125,-0.08841896057128906,-0.10258769989013672,-0.9866008758544922,0.06145668029785156,0.11121845245361328
359,50449732.0,-1.9609107971191406,-2.7019386291503906,8.844449996948242,-0.04367637634277344,-0.11505126953125,-0.08841896057128906,-0.10258769989013672,-0.9866008758544922,0.06145668029785156,0.11121845245361328
360,50449732.0,-1.9609107971191406,-2.7019386291503906,8.844449996948242,-0.04367637634277344,-0.11505126953125,-0.08841896057128906,-0.10258769989013672,-0.9866008758544922,0.06145668029785156,0.11121845245361328
361,50449848.0,-1.9082365036010742,-1.820845603942871,9.280208587646484,-0.009587287902832031,-0.019174575805664062,-0.061786651611328125,-0.10258769989013672,-0.9866008758544922,0.06145668029785156,0.11121845245361328
362,50449848.0,-1.9082365036010742,-1.820845603942871,9.280208587646484,-0.009587287902832031,-0.019174575805664062,-0.061786651611328125,-0.10258769989013672,-0.9866008758544922,0.06145668029785156,0.11121845245361328
363,50449872.0,-1.8603506088256836,-1.7909173965454102,9.435835838317871,-0.041545867919921875,-0.012783050537109375,-0.06498241424560547,-0.10258769989013672,-0.9866008758544922,0.06145668029785156,0.11121845245361328
364,50449872.0,-1.8603506088256836,-1.7909173965454102,9.435835838317871,-0.041545867919921875,-0.012783050537109375,-0.06498241424560547,-0.10258769989013672,-0.9866008758544922,0.06145668029785156,0.11121845245361328
365,50449888.0,-1.883096694946289,-2.0854129791259766,9.52562141418457,-0.04793834686279297,0.00852203369140625,-0.04687213897705078,-0.10258769989013672,-0.9866008758544922,0.06145668029785156,0.11121845245361328
366,50449888.0,-1.883096694946289,-2.0854129791259766,9.52562141418457,-0.04793834686279297,0.00852203369140625,-0.04687213897705078,-0.10258769989013672,-0.9866008758544922,0.06145668029785156,0.11121845245361328
367,50449912.0,-2.0267534255981445,-2.059075355529785,9.311333656311035,0.01810932159423828,-0.005326271057128906,-0.05539512634277344,-0.10258769989013672,-0.9866008758544922,0.06145668029785156,0.11121845245361328
368,50449912.0,-2.0267534255981445,-2.059075355529785,9.311333656311035,0.01810932159423828,-0.005326271057128906,-0.05539512634277344,-0.10258769989013672,-0.9866008758544922,0.06145668029785156,0.11121845245361328
369,50449928.0,-2.0016136169433594,-1.8328170776367188,9.267040252685547,0.040480613708496094,-0.02769756317138672,-0.061786651611328125,-0.10258769989013672,-0.9866008758544922,0.06145668029785156,0.11121845245361328
370,50449928.0,-2.0016136169433594,-1.8328170776367188,9.267040252685547,0.040480613708496094,-0.02769756317138672,-0.061786651611328125,-0.10258769989013672,-0.9866008758544922,0.06145668029785156,0.11121845245361328
371,50449952.0,-1.850773811340332,-1.786128044128418,9.439427375793457,-0.009587287902832031,-0.024501800537109375,-0.06391716003417969,-0.10258769989013672,-0.9866008758544922,0.06145668029785156,0.11121845245361328
372,50449968.0,-1.8603506088256836,-2.158437728881836,9.487313270568848,-0.05539512634277344,0.0063915252685546875,-0.061786651611328125,-0.10258769989013672,-0.9866008758544922,0.06145668029785156,0.11121845245361328
373,50449988.0,-1.9920358657836914,-2.288926124572754,9.3855562210083,0.0031957626342773438,0.0,-0.05113410949707031,-0.10258769989013672,-0.9866008758544922,0.06145668029785156,0.11121845245361328
374,50450008.0,-1.848379135131836,-2.2135066986083984,9.290982246398926,0.08735370635986328,-0.0287628173828125,-0.04367637634277344,-0.10258769989013672,-0.9866008758544922,0.06145668029785156,0.11121845245361328
375,50450028.0,-1.7466230392456055,-1.9884443283081055,9.380767822265625,0.07563591003417969,-0.024501800537109375,-0.022370338439941406,-0.10258769989013672,-0.9866008758544922,0.06145668029785156,0.11121845245361328
376,50450048.0,-1.7178916931152344,-2.073441505432129,9.348444938659668,0.07563591003417969,-0.024501800537109375,-0.022370338439941406,-0.10258769989013672,-0.9866008758544922,0.06145668029785156,0.11121845245361328
377,50450068.0,-1.8495769500732422,-2.160832405090332,9.246688842773438,0.07563591003417969,-0.024501800537109375,-0.022370338439941406,-0.10258769989013672,-0.9866008758544922,0.06145668029785156,0.11121845245361328
378,50450088.0,-1.8495769500732422,-2.2051267623901367,9.09584903717041,0.07563591003417969,-0.024501800537109375,-0.022370338439941406,-0.10258769989013672,-0.9866008758544922,0.06145668029785156,0.11121845245361328
379,50450108.0,-1.8376054763793945,-2.099778175354004,9.063526153564453,0.07563591003417969,-0.024501800537109375,-0.022370338439941406,-0.10258769989013672,-0.9866008758544922,0.06145668029785156,0.11121845245361328
380,50450128.0,-1.9022512435913086,-1.8423938751220703,9.253870964050293,0.07563591003417969,-0.024501800537109375,-0.022370338439941406,-0.10258769989013672,-0.9866008758544922,0.06145668029785156,0.11121845245361328
381,50450152.0,-1.919011116027832,-1.9956274032592773,9.253870964050293,0.07563591003417969,-0.024501800537109375,-0.022370338439941406,-0.10258769989013672,-0.9866008758544922,0.06145668029785156,0.11121845245361328
382,50450168.0,-1.9106311798095703,-2.0890045166015625,9.050357818603516,0.07563591003417969,-0.024501800537109375,-0.022370338439941406,-0.10258769989013672,-0.9866008758544922,0.06145668029785156,0.11121845245361328
383,50450188.0,-1.8651399612426758,-1.8878850936889648,9.122185707092285,0.07563591003417969,-0.024501800537109375,-0.022370338439941406,-0.10258769989013672,-0.9866008758544922,0.06145668029785156,0.11121845245361328
384,50450208.0,-1.8172540664672852,-1.916616439819336,9.301756858825684,0.07563591003417969,-0.024501800537109375,-0.022370338439941406,-0.10258769989013672,-0.9866008758544922,0.06145668029785156,0.11121845245361328
385,50450228.0,-1.877110481262207,-1.9465446472167969,9.420273780822754,0.07563591003417969,-0.024501800537109375,-0.022370338439941406,-0.10258769989013672,-0.9866008758544922,0.06145668029785156,0.11121845245361328
386,50450240.0,-1.8591537475585938,-2.037527084350586,9.365204811096191,-0.03835010528564453,-0.026632308959960938,0.0,-0.10258769989013672,-0.9866008758544922,0.06145668029785156,0.11121845245361328
387,50450248.0,-1.828028678894043,-2.0554847717285156,9.302953720092773,-0.020239830017089844,-0.03515434265136719,-0.0010652542114257812,-0.10258769989013672,-0.9866008758544922,0.06145668029785156,0.11121845245361328
388,50450260.0,-1.877110481262207,-1.9764728546142578,9.292180061340332,0.010652542114257812,-0.041545867919921875,-0.005326271057128906,-0.10258769989013672,-0.9866008758544922,0.06145668029785156,0.11121845245361328
389,50450272.0,-1.9142217636108398,-1.952530860900879,9.33407974243164,0.02769756317138672,-0.03941535949707031,-0.004261016845703125,-0.10258769989013672,-0.9866008758544922,0.06145668029785156,0.11121845245361328
390,50450280.0,-1.8938703536987305,-2.002810478210449,9.326896667480469,0.031958580017089844,-0.034089088439941406,0.0031957626342773438,-0.10258769989013672,-0.9866008758544922,0.06145668029785156,0.11121845245361328
391,50450288.0,-1.8723220825195312,-2.0016136169433594,9.295770645141602,0.023435592651367188,-0.03728485107421875,0.005326271057128906,-0.10258769989013672,-0.9866008758544922,0.06145668029785156,0.11121845245361328
392,50450300.0,-1.8352108001708984,-1.968092918395996,9.361613273620605,0.014913558959960938,-0.034089088439941406,0.0010652542114257812,-0.10258769989013672,-0.9866008758544922,0.06145668029785156,0.11121845245361328
393,50450308.0,-1.818450927734375,-1.9070396423339844,9.487313270568848,0.0010652542114257812,-0.024501800537109375,0.0063915252685546875,-0.10258769989013672,-0.9866008758544922,0.06145668029785156,0.11121845245361328
394,50450320.0,-1.8591537475585938,-1.9237995147705078,9.465764999389648,-0.020239830017089844,-0.01597881317138672,0.009587287902832031,-0.10258769989013672,-0.9866008758544922,0.06145668029785156,0.11121845245361328
395,50450328.0,-1.8699283599853516,-1.9992189407348633,9.390344619750977,-0.03728485107421875,-0.00852203369140625,0.010652542114257812,-0.10258769989013672,-0.9866008758544922,0.06145668029785156,0.11121845245361328
396,50450340.0,-1.8795051574707031,-2.036330223083496,9.402316093444824,-0.03515434265136719,-0.00852203369140625,0.014913558959960938,-0.10258769989013672,-0.9866008758544922,0.06145668029785156,0.11121845245361328
397,50450548.0,-1.7514114379882812,-2.0207672119140625,9.247885704040527,-0.052199363708496094,0.03728485107421875,-0.03728485107421875,-0.10258769989013672,-0.9866008758544922,0.06145668029785156,0.11121845245361328
398,50450560.0,-1.7825374603271484,-2.033935546875,9.259857177734375,-0.052199363708496094,0.03728485107421875,-0.03728485107421875,-0.10258769989013672,-0.9866008758544922,0.06145668029785156,0.11121845245361328
399,50450568.0,-1.7825374603271484,-1.9692907333374023,9.332881927490234,-0.052199363708496094,0.03728485107421875,-0.03728485107421875,-0.10258769989013672,-0.9866008758544922,0.06145668029785156,0.11121845245361328
400,50450576.0,-1.7394399642944336,-1.8974618911743164,9.293376922607422,-0.052199363708496094,0.03728485107421875,-0.03728485107421875,-0.10258769989013672,-0.9866008758544922,0.06145668029785156,0.11121845245361328
401,50450588.0,-1.7226800918579102,-1.8615484237670898,9.2550687789917,-0.052199363708496094,0.03728485107421875,-0.03728485107421875,-0.10258769989013672,-0.9866008758544922,0.06145668029785156,0.11121845245361328
402,50450600.0,-1.7322568893432617,-1.884293556213379,9.26464557647705,-0.052199363708496094,0.03728485107421875,-0.03728485107421875,-0.10258769989013672,-0.9866008758544922,0.06145668029785156,0.11121845245361328
403,50450608.0,-1.7514114379882812,-1.9537277221679688,9.252674102783203,-0.052199363708496094,0.03728485107421875,-0.03728485107421875,-0.10258769989013672,-0.9866008758544922,0.06145668029785156,0.11121845245361328
404,50450616.0,-1.737046241760254,-2.002810478210449,9.280208587646484,-0.052199363708496094,0.03728485107421875,-0.03728485107421875,-0.10258769989013672,-0.9866008758544922,0.06145668029785156,0.11121845245361328
405,50450628.0,-1.7166948318481445,-1.9549245834350586,9.33647346496582,-0.052199363708496094,0.03728485107421875,-0.03728485107421875,-0.10258769989013672,-0.9866008758544922,0.06145668029785156,0.11121845245361328
406,50450648.0,-1.6508522033691406,-1.854365348815918,9.437033653259277,-0.00852203369140625,-0.025567054748535156,-0.0287628173828125,-0.10258769989013672,-0.9866008758544922,0.06145668029785156,0.11121845245361328
407,50450668.0,-1.5574750900268555,-1.9920358657836914,9.419075965881348,-0.022370338439941406,-0.010652542114257812,-0.041545867919921875,-0.10258769989013672,-0.9866008758544922,0.06145668029785156,0.11121845245361328
408,50450688.0,-1.5359268188476562,-1.98126220703125,9.40590763092041,0.0010652542114257812,0.0010652542114257812,-0.060721397399902344,-0.10258769989013672,-0.9866008758544922,0.06145668029785156,0.11121845245361328
409,50450708.0,-1.6077547073364258,-1.9381647109985352,9.332881927490234,0.0,0.0021305084228515625,-0.06604766845703125,-0.10258769989013672,-0.9866008758544922,0.06145668029785156,0.11121845245361328
410,50450728.0,-1.5131807327270508,-2.0016136169433594,9.302953720092773,-0.019174575805664062,0.004261016845703125,-0.05646038055419922,-0.10258769989013672,-0.9866008758544922,0.06145668029785156,0.11121845245361328
411,50450848.0,-1.8136625289916992,-1.9405593872070312,9.414287567138672,-0.019174575805664062,0.004261016845703125,-0.05646038055419922,-0.10297679901123047,-0.9860830307006836,0.08562564849853516,0.09831428527832031
412,50450868.0,-1.8136625289916992,-1.9237995147705078,9.338868141174316,-0.019174575805664062,0.004261016845703125,-0.05646038055419922,-0.10297679901123047,-0.9860830307006836,0.08562564849853516,0.09831428527832031
413,50450888.0,-1.8878850936889648,-1.9980220794677734,9.28739070892334,-0.019174575805664062,0.004261016845703125,-0.05646038055419922,-0.10297679901123047,-0.9860830307006836,0.08562564849853516,0.09831428527832031
414,50450908.0,-1.8735198974609375,-2.030344009399414,9.365204811096191,-0.019174575805664062,0.004261016845703125,-0.05646038055419922,-0.10297679901123047,-0.9860830307006836,0.08562564849853516,0.09831428527832031
415,50450928.0,-1.8160572052001953,-1.9764728546142578,9.470553398132324,-0.019174575805664062,0.004261016845703125,-0.05646038055419922,-0.10297679901123047,-0.9860830307006836,0.08562564849853516,0.09831428527832031
416,50450948.0,-1.763382911682129,-2.109355926513672,9.338868141174316,-0.019174575805664062,0.004261016845703125,-0.05646038055419922,-0.10297679901123047,-0.9860830307006836,0.08562564849853516,0.09831428527832031
417,50450968.0,-1.7047233581542969,-2.1045665740966797,9.30534839630127,-0.019174575805664062,0.0021305084228515625,-0.042611122131347656,-0.10297679901123047,-0.9860830307006836,0.08562564849853516,0.09831428527832031
418,50450988.0,-1.6340923309326172,-2.0818214416503906,9.323305130004883,0.00852203369140625,0.004261016845703125,-0.03728485107421875,-0.10297679901123047,-0.9860830307006836,0.08562564849853516,0.09831428527832031
419,50451008.0,-1.6221208572387695,-2.0542869567871094,9.381964683532715,-0.012783050537109375,0.007456779479980469,-0.03728485107421875,-0.10297679901123047,-0.9860830307006836,0.08562564849853516,0.09831428527832031
420,50451028.0,-1.668808937072754,-2.1416778564453125,9.296968460083008,-0.06817817687988281,0.01597881317138672,-0.02769756317138672,-0.10297679901123047,-0.9860830307006836,0.08562564849853516,0.09831428527832031
421,50451048.0,-1.6963434219360352,-2.3655433654785156,9.16648006439209,-0.08948421478271484,0.01810932159423828,-0.024501800537109375,-0.10297679901123047,-0.9860830307006836,0.08562564849853516,0.09831428527832031
422,50451064.0,-1.7645797729492188,-2.3631486892700195,9.142537117004395,-0.08948421478271484,0.01810932159423828,-0.024501800537109375,-0.10297679901123047,-0.9860830307006836,0.08562564849853516,0.09831428527832031
423,50451088.0,-1.7873258590698242,-1.8435907363891602,9.361613273620605,-0.08948421478271484,0.01810932159423828,-0.024501800537109375,-0.10297679901123047,-0.9860830307006836,0.08562564849853516,0.09831428527832031
424,50451104.0,-1.8399991989135742,-1.9381647109985352,9.393936157226562,-0.08948421478271484,0.01810932159423828,-0.024501800537109375,-0.10297679901123047,-0.9860830307006836,0.08562564849853516,0.09831428527832031
425,50451128.0,-1.9070396423339844,-2.197943687438965,9.293376922607422,-0.08948421478271484,0.01810932159423828,-0.024501800537109375,-0.10297679901123047,-0.9860830307006836,0.08562564849853516,0.09831428527832031
426,50451144.0,-1.9046449661254883,-2.322445869445801,9.247885704040527,-0.08948421478271484,0.01810932159423828,-0.024501800537109375,-0.10297679901123047,-0.9860830307006836,0.08562564849853516,0.09831428527832031
427,50451168.0,-1.818450927734375,-2.073441505432129,9.347248077392578,0.04474163055419922,-0.0021305084228515625,-0.021305084228515625,-0.10297679901123047,-0.9860830307006836,0.08562564849853516,0.09831428527832031
428,50451184.0,-1.7849311828613281,-1.9561223983764648,9.481327056884766,0.045806884765625,0.0021305084228515625,-0.011717796325683594,-0.10297679901123047,-0.9860830307006836,0.08562564849853516,0.09831428527832031
429,50451204.0,-1.7705659866333008,-2.0459070205688477,9.344853401184082,-0.0628519058227539,0.031958580017089844,-0.00852203369140625,-0.10297679901123047,-0.9860830307006836,0.08562564849853516,0.09831428527832031
430,50451224.0,-1.8663368225097656,-2.3619518280029297,9.191619873046875,-0.1374225616455078,0.052199363708496094,-0.0021305084228515625,-0.10297679901123047,-0.9860830307006836,0.08562564849853516,0.09831428527832031
431,50451344.0,-1.7418346405029297,-2.002810478210449,9.28739070892334,0.07244014739990234,-0.03621959686279297,0.0010652542114257812,-0.10686016082763672,-0.9850902557373047,0.08989810943603516,0.10029983520507812
432,50451344.0,-1.7418346405029297,-2.002810478210449,9.28739070892334,0.07244014739990234,-0.03621959686279297,0.0010652542114257812,-0.10686016082763672,-0.9850902557373047,0.08989810943603516,0.10029983520507812
433,50451344.0,-1.7418346405029297,-2.002810478210449,9.28739070892334,0.07244014739990234,-0.03621959686279297,0.0010652542114257812,-0.10686016082763672,-0.9850902557373047,0.08989810943603516,0.10029983520507812
434,50451368.0,-1.7980995178222656,-1.8519706726074219,9.275420188903809,0.03621959686279297,-0.03515434265136719,0.014913558959960938,-0.10686016082763672,-0.9850902557373047,0.08989810943603516,0.10029983520507812
435,50451368.0,-1.7980995178222656,-1.8519706726074219,9.275420188903809,0.03621959686279297,-0.03515434265136719,0.014913558959960938,-0.10686016082763672,-0.9850902557373047,0.08989810943603516,0.10029983520507812
436,50451368.0,-1.7980995178222656,-1.8519706726074219,9.275420188903809,0.03621959686279297,-0.03515434265136719,0.014913558959960938,-0.10686016082763672,-0.9850902557373047,0.08989810943603516,0.10029983520507812
437,50451384.0,-1.857956886291504,-2.004007339477539,9.342459678649902,-0.05965614318847656,-0.011717796325683594,0.01597881317138672,-0.10686016082763672,-0.9850902557373047,0.08989810943603516,0.10029983520507812
438,50451384.0,-1.857956886291504,-2.004007339477539,9.342459678649902,-0.05965614318847656,-0.011717796325683594,0.01597881317138672,-0.10686016082763672,-0.9850902557373047,0.08989810943603516,0.10029983520507812
439,50451384.0,-1.857956886291504,-2.004007339477539,9.342459678649902,-0.05965614318847656,-0.011717796325683594,0.01597881317138672,-0.10686016082763672,-0.9850902557373047,0.08989810943603516,0.10029983520507812
440,50451404.0,-1.8639421463012695,-2.1261157989501953,9.37597942352295,-0.09694194793701172,-0.0021305084228515625,0.004261016845703125,-0.10686016082763672,-0.9850902557373047,0.08989810943603516,0.10029983520507812
441,50451404.0,-1.8639421463012695,-2.1261157989501953,9.37597942352295,-0.09694194793701172,-0.0021305084228515625,0.004261016845703125,-0.10686016082763672,-0.9850902557373047,0.08989810943603516,0.10029983520507812
442,50451404.0,-1.8639421463012695,-2.1261157989501953,9.37597942352295,-0.09694194793701172,-0.0021305084228515625,0.004261016845703125,-0.10686016082763672,-0.9850902557373047,0.08989810943603516,0.10029983520507812
443,50451424.0,-1.762186050415039,-2.1201295852661133,9.279010772705078,-0.0745706558227539,-0.024501800537109375,-0.013848304748535156,-0.10686016082763672,-0.9850902557373047,0.08989810943603516,0.10029983520507812
444,50451424.0,-1.762186050415039,-2.1201295852661133,9.279010772705078,-0.0745706558227539,-0.024501800537109375,-0.013848304748535156,-0.10686016082763672,-0.9850902557373047,0.08989810943603516,0.10029983520507812
445,50451424.0,-1.762186050415039,-2.1201295852661133,9.279010772705078,-0.0745706558227539,-0.024501800537109375,-0.013848304748535156,-0.10686016082763672,-0.9850902557373047,0.08989810943603516,0.10029983520507812
446,50451544.0,-1.699934959411621,-1.7825374603271484,9.42506217956543,0.20879745483398438,-0.05965614318847656,-0.012783050537109375,-0.11273002624511719,-0.9845724105834961,0.09007072448730469,0.0988321304321289
447,50451564.0,-1.701131820678711,-1.9573192596435547,9.411893844604492,-0.01810932159423828,-0.023435592651367188,-0.012783050537109375,-0.11273002624511719,-0.9845724105834961,0.09007072448730469,0.0988321304321289
448,50451584.0,-1.7430315017700195,-2.324840545654297,9.304150581359863,-0.2066669464111328,0.009587287902832031,-0.007456779479980469,-0.11273002624511719,-0.9845724105834961,0.09007072448730469,0.0988321304321289
449,50451604.0,-1.6963434219360352,-2.7342615127563477,9.06472396850586,-0.15766334533691406,0.0170440673828125,-0.00852203369140625,-0.11273002624511719,-0.9845724105834961,0.09007072448730469,0.0988321304321289
450,50451624.0,-1.7095117568969727,-2.4122314453125,9.155706405639648,0.06498241424560547,-0.007456779479980469,-0.005326271057128906,-0.11273002624511719,-0.9845724105834961,0.09007072448730469,0.0988321304321289
451,50451732.0,-1.7418346405029297,-1.9333763122558594,9.466961860656738,0.06498241424560547,-0.007456779479980469,-0.005326271057128906,-0.11273002624511719,-0.9845724105834961,0.09007072448730469,0.0988321304321289
452,50451744.0,-1.7454261779785156,-1.9345731735229492,9.475341796875,0.06498241424560547,-0.007456779479980469,-0.005326271057128906,-0.11273002624511719,-0.9845724105834961,0.09007072448730469,0.0988321304321289
453,50451744.0,-1.7454261779785156,-1.9345731735229492,9.475341796875,0.06498241424560547,-0.007456779479980469,-0.005326271057128906,-0.11273002624511719,-0.9845724105834961,0.09007072448730469,0.0988321304321289
454,50451752.0,-1.7729597091674805,-1.9237995147705078,9.419075965881348,0.06498241424560547,-0.007456779479980469,-0.005326271057128906,-0.11273002624511719,-0.9845724105834961,0.09007072448730469,0.0988321304321289
455,50451764.0,-1.7717628479003906,-2.0459070205688477,9.331685066223145,0.06498241424560547,-0.007456779479980469,-0.005326271057128906,-0.11273002624511719,-0.9845724105834961,0.09007072448730469,0.0988321304321289
456,50451764.0,-1.7717628479003906,-2.0459070205688477,9.331685066223145,0.06498241424560547,-0.007456779479980469,-0.005326271057128906,-0.11273002624511719,-0.9845724105834961,0.09007072448730469,0.0988321304321289
457,50451772.0,-1.7849311828613281,-2.3044891357421875,9.172466278076172,0.06498241424560547,-0.007456779479980469,-0.005326271057128906,-0.11273002624511719,-0.9845724105834961,0.09007072448730469,0.0988321304321289
458,50451784.0,-1.786128044128418,-2.497227668762207,9.09465217590332,0.06498241424560547,-0.007456779479980469,-0.005326271057128906,-0.11273002624511719,-0.9845724105834961,0.09007072448730469,0.0988321304321289
459,50451784.0,-1.786128044128418,-2.497227668762207,9.09465217590332,0.06498241424560547,-0.007456779479980469,-0.005326271057128906,-0.11273002624511719,-0.9845724105834961,0.09007072448730469,0.0988321304321289
460,50451792.0,-1.7921142578125,-2.4002599716186523,9.148523330688477,0.06498241424560547,-0.007456779479980469,-0.005326271057128906,-0.11273002624511719,-0.9845724105834961,0.09007072448730469,0.0988321304321289
461,50451804.0,-1.7190885543823242,-2.2434349060058594,9.324501991271973,0.06498241424560547,-0.007456779479980469,-0.005326271057128906,-0.11273002624511719,-0.9845724105834961,0.09007072448730469,0.0988321304321289
462,50451804.0,-1.7190885543823242,-2.2434349060058594,9.324501991271973,0.06498241424560547,-0.007456779479980469,-0.005326271057128906,-0.11273002624511719,-0.9845724105834961,0.09007072448730469,0.0988321304321289
463,50451812.0,-1.697540283203125,-2.0925960540771484,9.411893844604492,0.06498241424560547,-0.007456779479980469,-0.005326271057128906,-0.11273002624511719,-0.9845724105834961,0.09007072448730469,0.0988321304321289
464,50451824.0,-1.7131032943725586,-1.9692907333374023,9.440624237060547,0.06498241424560547,-0.007456779479980469,-0.005326271057128906,-0.11273002624511719,-0.9845724105834961,0.09007072448730469,0.0988321304321289
465,50451824.0,-1.7131032943725586,-1.9692907333374023,9.440624237060547,0.06498241424560547,-0.007456779479980469,-0.005326271057128906,-0.11273002624511719,-0.9845724105834961,0.09007072448730469,0.0988321304321289
466,50451832.0,-1.7035255432128906,-2.047104835510254,9.393936157226562,0.06498241424560547,-0.007456779479980469,-0.005326271057128906,-0.11273002624511719,-0.9845724105834961,0.09007072448730469,0.0988321304321289
467,50451840.0,-1.7131032943725586,-2.2901229858398438,9.273025512695312,0.06498241424560547,-0.007456779479980469,-0.005326271057128906,-0.11273002624511719,-0.9845724105834961,0.09007072448730469,0.0988321304321289
468,50451840.0,-1.7131032943725586,-2.2901229858398438,9.273025512695312,0.06498241424560547,-0.007456779479980469,-0.005326271057128906,-0.11273002624511719,-0.9845724105834961,0.09007072448730469,0.0988321304321289
469,50451852.0,-1.733454704284668,-2.3918800354003906,9.205986022949219,0.06498241424560547,-0.007456779479980469,-0.005326271057128906,-0.11273002624511719,-0.9845724105834961,0.09007072448730469,0.0988321304321289
470,50451944.0,-1.756199836730957,-2.0890045166015625,9.318516731262207,-0.004261016845703125,0.013848304748535156,-0.009587287902832031,-0.11273002624511719,-0.9845724105834961,0.09007072448730469,0.0988321304321289
471,50451944.0,-1.756199836730957,-2.0890045166015625,9.318516731262207,-0.004261016845703125,0.013848304748535156,-0.009587287902832031,-0.11273002624511719,-0.9845724105834961,0.09007072448730469,0.0988321304321289
472,50451964.0,-1.6771888732910156,-2.1117496490478516,9.391542434692383,-0.004261016845703125,0.013848304748535156,-0.009587287902832031,-0.11273002624511719,-0.9845724105834961,0.09007072448730469,0.0988321304321289
473,50451964.0,-1.6771888732910156,-2.1117496490478516,9.391542434692383,-0.004261016845703125,0.013848304748535156,-0.009587287902832031,-0.11273002624511719,-0.9845724105834961,0.09007072448730469,0.0988321304321289
474,50451984.0,-1.7154970169067383,-2.2673778533935547,9.228731155395508,-0.004261016845703125,0.013848304748535156,-0.009587287902832031,-0.11273002624511719,-0.9845724105834961,0.09007072448730469,0.0988321304321289
475,50451984.0,-1.7154970169067383,-2.2673778533935547,9.228731155395508,-0.004261016845703125,0.013848304748535156,-0.009587287902832031,-0.11273002624511719,-0.9845724105834961,0.09007072448730469,0.0988321304321289
476,50452004.0,-1.6891603469848633,-2.1740007400512695,9.240702629089355,-0.004261016845703125,0.013848304748535156,-0.009587287902832031,-0.11273002624511719,-0.9845724105834961,0.09007072448730469,0.0988321304321289
477,50452004.0,-1.6891603469848633,-2.1740007400512695,9.240702629089355,-0.004261016845703125,0.013848304748535156,-0.009587287902832031,-0.11273002624511719,-0.9845724105834961,0.09007072448730469,0.0988321304321289
478,50452024.0,-1.6807804107666016,-1.9656991958618164,9.365204811096191,-0.004261016845703125,0.013848304748535156,-0.009587287902832031,-0.11273002624511719,-0.9845724105834961,0.09007072448730469,0.0988321304321289
479,50452024.0,-1.6807804107666016,-1.9656991958618164,9.365204811096191,-0.004261016845703125,0.013848304748535156,-0.009587287902832031,-0.11273002624511719,-0.9845724105834961,0.09007072448730469,0.0988321304321289
480,50452044.0,-1.7418346405029297,-2.1165380477905273,9.281405448913574,-0.004261016845703125,0.013848304748535156,-0.009587287902832031,-0.11273002624511719,-0.9845724105834961,0.09007072448730469,0.0988321304321289
481,50452044.0,-1.7418346405029297,-2.1165380477905273,9.281405448913574,-0.004261016845703125,0.013848304748535156,-0.009587287902832031,-0.11273002624511719,-0.9845724105834961,0.09007072448730469,0.0988321304321289
482,50452160.0,-1.6724004745483398,-2.29132080078125,9.320911407470703,0.09374523162841797,-0.04367637634277344,-0.02982807159423828,-0.11273002624511719,-0.9845724105834961,0.09007072448730469,0.0988321304321289
483,50452160.0,-1.6724004745483398,-2.29132080078125,9.320911407470703,0.09374523162841797,-0.04367637634277344,-0.02982807159423828,-0.11273002624511719,-0.9845724105834961,0.09007072448730469,0.0988321304321289
484,50452180.0,-1.6759920120239258,-1.975275993347168,9.393936157226562,0.11718177795410156,-0.030893325805664062,-0.03728485107421875,-0.11273002624511719,-0.9845724105834961,0.09007072448730469,0.0988321304321289
485,50452180.0,-1.6759920120239258,-1.975275993347168,9.393936157226562,0.11718177795410156,-0.030893325805664062,-0.03728485107421875,-0.11273002624511719,-0.9845724105834961,0.09007072448730469,0.0988321304321289
486,50452200.0,-1.6759920120239258,-1.9058418273925781,9.445413589477539,0.005326271057128906,-0.009587287902832031,-0.026632308959960938,-0.11273002624511719,-0.9845724105834961,0.09007072448730469,0.0988321304321289
487,50452200.0,-1.6759920120239258,-1.9058418273925781,9.445413589477539,0.005326271057128906,-0.009587287902832031,-0.026632308959960938,-0.11273002624511719,-0.9845724105834961,0.09007072448730469,0.0988321304321289
488,50452220.0,-1.576629638671875,-2.164423942565918,9.381964683532715,-0.09267997741699219,0.02982807159423828,-0.0287628173828125,-0.11273002624511719,-0.9845724105834961,0.09007072448730469,0.0988321304321289
489,50452220.0,-1.576629638671875,-2.164423942565918,9.381964683532715,-0.09267997741699219,0.02982807159423828,-0.0287628173828125,-0.11273002624511719,-0.9845724105834961,0.09007072448730469,0.0988321304321289
490,50452240.0,-1.6963434219360352,-2.48166561126709,9.290982246398926,-0.012783050537109375,0.031958580017089844,-0.0287628173828125,-0.11273002624511719,-0.9845724105834961,0.09007072448730469,0.0988321304321289
491,50452240.0,-1.6963434219360352,-2.48166561126709,9.290982246398926,-0.012783050537109375,0.031958580017089844,-0.0287628173828125,-0.11273002624511719,-0.9845724105834961,0.09007072448730469,0.0988321304321289
492,50452360.0,-1.7154970169067383,-1.945347785949707,9.276617050170898,-0.012783050537109375,0.031958580017089844,-0.0287628173828125,-0.11273002624511719,-0.9845724105834961,0.09007072448730469,0.0988321304321289
493,50452384.0,-1.6448659896850586,-1.795705795288086,9.30654525756836,-0.012783050537109375,0.031958580017089844,-0.0287628173828125,-0.10310554504394531,-0.9850902557373047,0.09792613983154297,0.09714889526367188
494,50452400.0,-1.6293039321899414,-2.067455291748047,9.192817687988281,-0.012783050537109375,0.031958580017089844,-0.0287628173828125,-0.10142230987548828,-0.9852199554443359,0.09857368469238281,0.09693336486816406
495,50452420.0,-1.6735973358154297,-2.077033042907715,9.107820510864258,-0.012783050537109375,0.031958580017089844,-0.0287628173828125,-0.09965324401855469,-0.9853057861328125,0.09917736053466797,0.09663105010986328
496,50452440.0,-1.7095117568969727,-2.415822982788086,8.862407684326172,-0.012783050537109375,0.031958580017089844,-0.0287628173828125,-0.09740924835205078,-0.985565185546875,0.0998678207397461,0.09594058990478516
497,50452464.0,-1.733454704284668,-2.296109199523926,9.035992622375488,0.461273193359375,-0.14594554901123047,-0.03621959686279297,-0.09412860870361328,-0.9859533309936523,0.10042858123779297,0.0945596694946289
498,50452480.0,-1.7166948318481445,-2.626519203186035,9.055146217346191,0.6317205429077148,-0.16831684112548828,0.0,-0.09412860870361328,-0.9859533309936523,0.10042858123779297,0.0945596694946289
499,50452504.0,-2.039921760559082,-3.03115177154541,9.256265640258789,0.7851238250732422,-0.22797298431396484,0.12037849426269531,-0.09412860870361328,-0.9859533309936523,0.10042858123779297,0.0945596694946289
500,50452520.0,-2.2757577896118164,-3.255016326904297,9.698009490966797,0.7435770034790039,-0.3568744659423828,0.2578010559082031,-0.09412860870361328,-0.9859533309936523,0.10042858123779297,0.0945596694946289
501,50452540.0,-2.127312660217285,-4.3803253173828125,9.320911407470703,0.6913776397705078,-0.44635868072509766,0.4847097396850586,-0.09412860870361328,-0.9859533309936523,0.10042858123779297,0.0945596694946289
502,50452560.0,-2.1117496490478516,-4.51560115814209,8.632556915283203,0.6913776397705078,-0.44635868072509766,0.4847097396850586,-0.09412860870361328,-0.9859533309936523,0.10042858123779297,0.0945596694946289
503,50452580.0,-2.128509521484375,-4.881925582885742,8.66487979888916,0.6913776397705078,-0.44635868072509766,0.4847097396850586,-0.09412860870361328,-0.9859533309936523,0.10042858123779297,0.0945596694946289
504,50452600.0,-1.8711252212524414,-5.285361289978027,8.457775115966797,0.6913776397705078,-0.44635868072509766,0.4847097396850586,-0.09412860870361328,-0.9859533309936523,0.10042858123779297,0.0945596694946289
505,50452620.0,-1.207911491394043,-3.2633962631225586,9.897931098937988,0.6913776397705078,-0.44635868072509766,0.4847097396850586,-0.09412860870361328,-0.9859533309936523,0.10042858123779297,0.0945596694946289
506,50452640.0,-0.5363168716430664,-2.8839035034179688,11.259076118469238,0.6913776397705078,-0.44635868072509766,0.4847097396850586,-0.09412860870361328,-0.9859533309936523,0.10042858123779297,0.0945596694946289
507,50452760.0,0.9780607223510742,3.5052175521850586,12.719583511352539,1.1760873794555664,-0.05539512634277344,3.4494314193725586,-0.09412860870361328,-0.9859533309936523,0.10042858123779297,0.0945596694946289
508,50452760.0,0.9780607223510742,3.5052175521850586,12.719583511352539,1.1760873794555664,-0.05539512634277344,3.4494314193725586,-0.09412860870361328,-0.9859533309936523,0.10042858123779297,0.0945596694946289
509,50452780.0,1.4605073928833008,3.6931686401367188,13.05837345123291,1.1760873794555664,-0.05539512634277344,3.4494314193725586,-0.09412860870361328,-0.9859533309936523,0.10042858123779297,0.0945596694946289
510,50452780.0,1.4605073928833008,3.6931686401367188,13.05837345123291,1.1760873794555664,-0.05539512634277344,3.4494314193725586,-0.09412860870361328,-0.9859533309936523,0.10042858123779297,0.0945596694946289
511,50452800.0,1.9668960571289062,5.072270393371582,13.191255569458008,1.1760873794555664,-0.05539512634277344,3.4494314193725586,-0.09412860870361328,-0.9859533309936523,0.10042858123779297,0.0945596694946289
512,50452800.0,1.9668960571289062,5.072270393371582,13.191255569458008,1.1760873794555664,-0.05539512634277344,3.4494314193725586,-0.09412860870361328,-0.9859533309936523,0.10042858123779297,0.0945596694946289
513,50452820.0,1.6592321395874023,6.4465837478637695,12.711203575134277,1.1760873794555664,-0.05539512634277344,3.4494314193725586,-0.09412860870361328,-0.9859533309936523,0.10042858123779297,0.0945596694946289
514,50452820.0,1.6592321395874023,6.4465837478637695,12.711203575134277,1.1760873794555664,-0.05539512634277344,3.4494314193725586,-0.09412860870361328,-0.9859533309936523,0.10042858123779297,0.0945596694946289
515,50452840.0,1.2318534851074219,8.1453218460083,13.052388191223145,1.1760873794555664,-0.05539512634277344,3.4494314193725586,-0.09412860870361328,-0.9859533309936523,0.10042858123779297,0.0945596694946289
516,50452840.0,1.2318534851074219,8.1453218460083,13.052388191223145,1.1760873794555664,-0.05539512634277344,3.4494314193725586,-0.09412860870361328,-0.9859533309936523,0.10042858123779297,0.0945596694946289
517,50452960.0,2.992842674255371,4.959739685058594,8.4769287109375,-0.5049505233764648,3.3066816329956055,-2.140181541442871,-0.09412860870361328,-0.9859533309936523,0.10042858123779297,0.0945596694946289
518,50452960.0,2.992842674255371,4.959739685058594,8.4769287109375,-0.5049505233764648,3.3066816329956055,-2.140181541442871,-0.09412860870361328,-0.9859533309936523,0.10042858123779297,0.0945596694946289
519,50452980.0,2.10097599029541,4.908262252807617,8.016031265258789,-0.5049505233764648,3.3066816329956055,-2.140181541442871,-0.09412860870361328,-0.9859533309936523,0.10042858123779297,0.0945596694946289
520,50452980.0,2.10097599029541,4.908262252807617,8.016031265258789,-0.5049505233764648,3.3066816329956055,-2.140181541442871,-0.09412860870361328,-0.9859533309936523,0.10042858123779297,0.0945596694946289
521,50453000.0,1.5550813674926758,4.877137184143066,6.263422012329102,-0.5049505233764648,3.3066816329956055,-2.140181541442871,-0.09412860870361328,-0.9859533309936523,0.10042858123779297,0.0945596694946289
522,50453000.0,1.5550813674926758,4.877137184143066,6.263422012329102,-0.5049505233764648,3.3066816329956055,-2.140181541442871,-0.09412860870361328,-0.9859533309936523,0.10042858123779297,0.0945596694946289
523,50453020.0,0.8667268753051758,4.049915313720703,3.5686655044555664,-0.5049505233764648,3.3066816329956055,-2.140181541442871,-0.09412860870361328,-0.9859533309936523,0.10042858123779297,0.0945596694946289
524,50453020.0,0.8667268753051758,4.049915313720703,3.5686655044555664,-0.5049505233764648,3.3066816329956055,-2.140181541442871,-0.09412860870361328,-0.9859533309936523,0.10042858123779297,0.0945596694946289
525,50453040.0,-0.19273853302001953,3.3232526779174805,3.423811912536621,-0.5049505233764648,3.3066816329956055,-2.140181541442871,-0.09412860870361328,-0.9859533309936523,0.10042858123779297,0.0945596694946289
526,50453040.0,-0.19273853302001953,3.3232526779174805,3.423811912536621,-0.5049505233764648,3.3066816329956055,-2.140181541442871,-0.09412860870361328,-0.9859533309936523,0.10042858123779297,0.0945596694946289
527,50453160.0,-2.996434211730957,-5.487677574157715,3.245438575744629,0.9843339920043945,-0.3504819869995117,-3.57833194732666,-0.09412860870361328,-0.9859533309936523,0.10042858123779297,0.0945596694946289
528,50453180.0,-3.897878646850586,-6.553129196166992,2.9880542755126953,0.970484733581543,-0.8277349472045898,-3.2789831161499023,-0.07734012603759766,-0.9177627563476562,0.11251354217529297,0.37288761138916016
529,50453200.0,-3.4441633224487305,-7.959765434265137,4.2235002517700195,1.2336130142211914,-1.343338966369629,-2.8166446685791016,-0.08087921142578125,-0.9180221557617188,0.14453697204589844,0.360198974609375
530,50453216.0,-2.5139875411987305,-7.243877410888672,4.617358207702637,1.687429428100586,-1.8003511428833008,-2.3393917083740234,-0.08010196685791016,-0.9200077056884766,0.17276287078857422,0.34250450134277344
531,50453240.0,-2.1560440063476562,-6.94459342956543,4.543135643005371,1.6639928817749023,-2.166813850402832,-1.8461589813232422,-0.07513904571533203,-0.9235897064208984,0.19731998443603516,0.3200187683105469
532,50453260.0,-3.547117233276367,-7.16606330871582,5.074665069580078,1.4935455322265625,-2.351109504699707,-1.3997993469238281,-0.07004642486572266,-0.9279918670654297,0.216827392578125,0.29490089416503906
533,50453280.0,-3.214313507080078,-8.132153511047363,5.955758094787598,1.422170639038086,-2.6472625732421875,-0.8000373840332031,-0.07004642486572266,-0.9279918670654297,0.216827392578125,0.29490089416503906
534,50453296.0,-2.1189327239990234,-8.712764739990234,7.215146064758301,1.359318733215332,-2.8049259185791016,-0.1896219253540039,-0.07004642486572266,-0.9279918670654297,0.216827392578125,0.29490089416503906
535,50453320.0,-2.193155288696289,-7.646116256713867,8.243487358093262,1.1558465957641602,-2.8922805786132812,0.41120433807373047,-0.07004642486572266,-0.9279918670654297,0.216827392578125,0.29490089416503906
536,50453468.0,-2.5846195220947266,-0.3579435348510742,13.060768127441406,1.1558465957641602,-2.8922805786132812,0.41120433807373047,-0.06081104278564453,-0.9904413223266602,0.11803722381591797,0.03741741180419922
537,50453488.0,-0.7434215545654297,-2.6396875381469727,13.739544868469238,1.1558465957641602,-2.8922805786132812,0.41120433807373047,-0.06081104278564453,-0.9904413223266602,0.11803722381591797,0.03741741180419922
538,50453508.0,-0.8703184127807617,-0.7039165496826172,15.481379508972168,1.1558465957641602,-2.8922805786132812,0.41120433807373047,-0.06081104278564453,-0.9904413223266602,0.11803722381591797,0.03741741180419922
539,50453528.0,-0.03112506866455078,-1.048691749572754,16.163747787475586,1.1558465957641602,-2.8922805786132812,0.41120433807373047,-0.06081104278564453,-0.9904413223266602,0.11803722381591797,0.03741741180419922
540,50453548.0,-0.16161346435546875,-1.504800796508789,15.122238159179688,1.1558465957641602,-2.8922805786132812,0.41120433807373047,-0.06081104278564453,-0.9904413223266602,0.11803722381591797,0.03741741180419922
541,50453568.0,-0.10415077209472656,1.1336889266967773,14.41832160949707,-0.4783182144165039,0.3068046569824219,1.7886333465576172,-0.06081104278564453,-0.9904413223266602,0.11803722381591797,0.03741741180419922
542,50453588.0,0.5399084091186523,3.3807153701782227,13.805387496948242,0.15127182006835938,0.5166683197021484,1.3241634368896484,-0.06081104278564453,-0.9904413223266602,0.11803722381591797,0.03741741180419922
543,50453608.0,1.0091867446899414,3.4094467163085938,12.984150886535645,0.10546398162841797,0.7457075119018555,1.108973503112793,-0.06081104278564453,-0.9904413223266602,0.11803722381591797,0.03741741180419922
544,50453624.0,0.6440591812133789,1.7873258590698242,11.498503684997559,-0.26312828063964844,0.9790077209472656,1.018423080444336,-0.06081104278564453,-0.9904413223266602,0.11803722381591797,0.03741741180419922
545,50453648.0,0.38787174224853516,0.6153278350830078,9.960182189941406,-0.2471485137939453,1.0280113220214844,0.8234739303588867,-0.06081104278564453,-0.9904413223266602,0.11803722381591797,0.03741741180419922
546,50453668.0,0.046688079833984375,0.1867532730102539,9.26464557647705,0.023435592651367188,0.9598321914672852,0.5986967086791992,-0.06081104278564453,-0.9904413223266602,0.11803722381591797,0.03741741180419922
547,50453668.0,0.046688079833984375,0.1867532730102539,9.26464557647705,0.023435592651367188,0.9598321914672852,0.5986967086791992,-0.06081104278564453,-0.9904413223266602,0.11803722381591797,0.03741741180419922
548,50453688.0,-0.5530767440795898,0.2897071838378906,8.967755317687988,0.1661853790283203,0.9747457504272461,0.3462209701538086,-0.06081104278564453,-0.9904413223266602,0.11803722381591797,0.03741741180419922
549,50453688.0,-0.5530767440795898,0.2897071838378906,8.967755317687988,0.1661853790283203,0.9747457504272461,0.3462209701538086,-0.06081104278564453,-0.9904413223266602,0.11803722381591797,0.03741741180419922
550,50453708.0,-0.8020811080932617,0.24780654907226562,8.80733871459961,0.25673580169677734,0.9459829330444336,0.08948421478271484,-0.06081104278564453,-0.9904413223266602,0.11803722381591797,0.03741741180419922
551,50453708.0,-0.8020811080932617,0.24780654907226562,8.80733871459961,0.25673580169677734,0.9459829330444336,0.08948421478271484,-0.06081104278564453,-0.9904413223266602,0.11803722381591797,0.03741741180419922
552,50453728.0,-0.6512422561645508,-0.4860372543334961,8.432635307312012,0.12996578216552734,0.8501062393188477,-0.10546398162841797,-0.06081104278564453,-0.9904413223266602,0.11803722381591797,0.03741741180419922
553,50453728.0,-0.6512422561645508,-0.4860372543334961,8.432635307312012,0.12996578216552734,0.8501062393188477,-0.10546398162841797,-0.06081104278564453,-0.9904413223266602,0.11803722381591797,0.03741741180419922
554,50453744.0,-0.9074296951293945,-1.7705659866333008,7.871177673339844,-0.04367637634277344,0.8490409851074219,-0.24501800537109375,-0.06081104278564453,-0.9904413223266602,0.11803722381591797,0.03741741180419922
555,50453744.0,-0.9074296951293945,-1.7705659866333008,7.871177673339844,-0.04367637634277344,0.8490409851074219,-0.24501800537109375,-0.06081104278564453,-0.9904413223266602,0.11803722381591797,0.03741741180419922
556,50453768.0,-1.4724788665771484,-1.5969810485839844,7.810123443603516,-0.04367637634277344,0.8490409851074219,-0.24501800537109375,-0.06081104278564453,-0.9904413223266602,0.11803722381591797,0.03741741180419922
557,50453788.0,-1.455718994140625,-0.9038381576538086,8.197996139526367,-0.04367637634277344,0.8490409851074219,-0.24501800537109375,-0.06081104278564453,-0.9904413223266602,0.11803722381591797,0.03741741180419922
558,50453808.0,-1.4832525253295898,-1.2354450225830078,8.271021842956543,-0.04367637634277344,0.8490409851074219,-0.24501800537109375,-0.06081104278564453,-0.9904413223266602,0.11803722381591797,0.03741741180419922
559,50453828.0,-1.4724788665771484,-2.2039289474487305,8.117788314819336,-0.04367637634277344,0.8490409851074219,-0.24501800537109375,-0.06081104278564453,-0.9904413223266602,0.11803722381591797,0.03741741180419922
560,50453848.0,-1.6759920120239258,-2.48166561126709,8.128561973571777,-0.04367637634277344,0.8490409851074219,-0.24501800537109375,-0.06081104278564453,-0.9904413223266602,0.11803722381591797,0.03741741180419922
