,timestamp,accel_x,accel_y,accel_z,gyro_x,gyro_y,gyro_z,ori_scalar,ori_x,ori_y,ori_z
0,476233088.0,0.040701866149902344,-0.23224449157714844,9.4537935256958,-0.44209766387939453,0.1896219253540039,-0.3100013732910156,0.0130767822265625,-0.4387054443359375,0.8979959487915039,0.031548500061035156
1,476233088.0,-0.02154827117919922,-1.0953798294067383,9.353233337402344,-0.44209766387939453,0.1896219253540039,-0.3100013732910156,0.0130767822265625,-0.4387054443359375,0.8979959487915039,0.031548500061035156
2,476233120.0,-0.7146902084350586,-0.920598030090332,9.128171920776367,-0.44209766387939453,0.1896219253540039,-0.3100013732910156,0.0130767822265625,-0.4387054443359375,0.8979959487915039,0.031548500061035156
3,476233152.0,-0.8607416152954102,-0.5135717391967773,9.40351390838623,-0.44209766387939453,0.1896219253540039,-0.3100013732910156,0.0130767822265625,-0.4387054443359375,0.8979959487915039,0.031548500061035156
4,476233152.0,-0.7613792419433594,-0.7398300170898438,9.601040840148926,-0.44209766387939453,0.1896219253540039,-0.3100013732910156,0.0130767822265625,-0.4387054443359375,0.8979959487915039,0.031548500061035156
5,476233184.0,-1.0175666809082031,-1.0439033508300781,9.622589111328125,-0.44209766387939453,0.1896219253540039,-0.3100013732910156,0.0130767822265625,-0.4387054443359375,0.8979959487915039,0.031548500061035156
6,476233184.0,-1.4377613067626953,-0.6955366134643555,9.636955261230469,-0.44209766387939453,0.1896219253540039,-0.3100013732910156,0.0130767822265625,-0.4387054443359375,0.8979959487915039,0.031548500061035156
7,476233216.0,-1.5514898300170898,-0.8128557205200195,9.654911994934082,-0.37817955017089844,0.14594554901123047,-0.2535400390625,0.0130767822265625,-0.4387054443359375,0.8979959487915039,0.031548500061035156
8,476233248.0,-1.5778264999389648,-0.9840459823608398,9.501678466796875,-0.2812376022338867,0.0809621810913086,-0.22584247589111328,0.0130767822265625,-0.4387054443359375,0.8979959487915039,0.031548500061035156
9,476233248.0,-1.103759765625,-0.8990497589111328,9.59744930267334,-0.2812376022338867,0.0809621810913086,-0.22584247589111328,0.0130767822265625,-0.4387054443359375,0.8979959487915039,0.031548500061035156
10,476233280.0,-1.145660400390625,-1.1516456604003906,10.059544563293457,-0.28017234802246094,0.053264617919921875,-0.15127182006835938,0.0130767822265625,-0.4387054443359375,0.8979959487915039,0.031548500061035156
11,476233312.0,-1.756199836730957,-1.3360052108764648,10.272635459899902,-0.00852203369140625,-0.1320962905883789,0.00852203369140625,0.0130767822265625,-0.4387054443359375,0.8979959487915039,0.031548500061035156
12,476233312.0,-2.3356142044067383,-1.7777481079101562,10.434248924255371,-0.00852203369140625,-0.1320962905883789,0.00852203369140625,0.0130767822265625,-0.4387054443359375,0.8979959487915039,0.031548500061035156
13,476233344.0,-3.270578384399414,-1.6783857345581055,10.415094375610352,0.2471485137939453,-0.2418222427368164,-0.0287628173828125,0.0130767822265625,-0.4387054443359375,0.8979959487915039,0.031548500061035156
14,476233472.0,-1.3048791885375977,-1.642472267150879,9.950605392456055,0.03941535949707031,0.010652542114257812,-0.12783527374267578,0.009710311889648438,-0.43201541900634766,0.9010601043701172,0.03741741180419922
15,476233472.0,-1.0175666809082031,-0.897852897644043,9.985321998596191,0.03941535949707031,0.010652542114257812,-0.12783527374267578,0.009710311889648438,-0.43201541900634766,0.9010601043701172,0.03741741180419922
16,476233504.0,-1.0319318771362305,-1.3383989334106445,9.621392250061035,-0.08522319793701172,0.07670116424560547,-0.09694194793701172,0.009710311889648438,-0.43201541900634766,0.9010601043701172,0.03741741180419922
17,476233504.0,-1.355158805847168,-1.8232393264770508,9.451398849487305,-0.08522319793701172,0.07670116424560547,-0.09694194793701172,0.009710311889648438,-0.43201541900634766,0.9010601043701172,0.03741741180419922
18,476233536.0,-1.7178916931152344,-1.3886785507202148,9.783005714416504,0.009587287902832031,0.0745706558227539,-0.052199363708496094,0.009710311889648438,-0.43201541900634766,0.9010601043701172,0.03741741180419922
19,476233568.0,-1.9668960571289062,-1.4257898330688477,9.935042381286621,0.009587287902832031,0.0745706558227539,-0.052199363708496094,0.012558937072753906,-0.4263191223144531,0.9037351608276367,0.03759002685546875
20,476233568.0,-1.9321794509887695,-1.5874032974243164,9.605829238891602,0.009587287902832031,0.0745706558227539,-0.052199363708496094,0.012558937072753906,-0.4263191223144531,0.9037351608276367,0.03759002685546875
21,476233600.0,-2.1404809951782227,-1.5251522064208984,9.391542434692383,0.009587287902832031,0.0745706558227539,-0.052199363708496094,0.014414787292480469,-0.42450618743896484,0.9045124053955078,0.03763389587402344
22,476233600.0,-2.1141443252563477,-1.453324317932129,9.451398849487305,0.009587287902832031,0.0745706558227539,-0.052199363708496094,0.014414787292480469,-0.42450618743896484,0.9045124053955078,0.03763389587402344
23,476233632.0,-1.7873258590698242,-1.7214832305908203,9.30654525756836,0.009587287902832031,0.0745706558227539,-0.052199363708496094,0.015450477600097656,-0.4236001968383789,0.9049005508422852,0.0377197265625
24,476233856.0,-1.5634613037109375,-0.8954582214355469,9.738712310791016,0.019174575805664062,-0.17683887481689453,-0.09481048583984375,0.05209159851074219,-0.41764354705810547,0.8999805450439453,0.11363506317138672
25,476233888.0,-1.485647201538086,-1.1839685440063477,9.76504898071289,-0.03835010528564453,-0.17577362060546875,-0.14061832427978516,0.05209159851074219,-0.41764354705810547,0.8999805450439453,0.11363506317138672
26,476233888.0,-1.4880409240722656,-1.260584831237793,9.841665267944336,-0.03835010528564453,-0.17577362060546875,-0.14061832427978516,0.05209159851074219,-0.41764354705810547,0.8999805450439453,0.11363506317138672
27,476233920.0,-1.2845277786254883,-1.3527650833129883,9.95419692993164,0.042611122131347656,-0.14807605743408203,-0.1438150405883789,0.05209159851074219,-0.41764354705810547,0.8999805450439453,0.11363506317138672
28,476233920.0,-1.260584831237793,-1.1588287353515625,9.897931098937988,0.042611122131347656,-0.14807605743408203,-0.1438150405883789,0.05209159851074219,-0.41764354705810547,0.8999805450439453,0.11363506317138672
29,476234048.0,-0.9313726425170898,-1.60296630859375,9.152114868164062,-0.09481048583984375,-0.07137489318847656,-0.09374523162841797,0.03914451599121094,-0.4059915542602539,0.9060230255126953,0.11285877227783203
30,476234080.0,-1.2115020751953125,-1.5814180374145508,9.397527694702148,-0.12677001953125,-0.09374523162841797,-0.08415794372558594,0.03633880615234375,-0.40465354919433594,0.9065837860107422,0.11428260803222656
31,476234080.0,-1.5981779098510742,-1.5969810485839844,9.47414493560791,-0.12677001953125,-0.09374523162841797,-0.08415794372558594,0.03633880615234375,-0.40465354919433594,0.9065837860107422,0.11428260803222656
32,476234112.0,-1.5646581649780273,-1.7538061141967773,9.446610450744629,-0.09481048583984375,-0.14274978637695312,-0.13422679901123047,0.03461265563964844,-0.40361785888671875,0.9070158004760742,0.11488723754882812
33,476234144.0,-1.449732780456543,-1.7202863693237305,9.628575325012207,-0.08948421478271484,-0.15872859954833984,-0.1320962905883789,0.032756805419921875,-0.40262508392333984,0.9074907302856445,0.1151895523071289
34,476234144.0,-1.075028419494629,-1.9285879135131836,9.6956148147583,-0.08948421478271484,-0.15872859954833984,-0.1320962905883789,0.032756805419921875,-0.40262508392333984,0.9074907302856445,0.1151895523071289
35,476234176.0,-0.9936237335205078,-1.8555622100830078,9.698009490966797,-0.08948421478271484,-0.15872859954833984,-0.1320962905883789,0.032756805419921875,-0.40262508392333984,0.9074907302856445,0.1151895523071289
36,476234208.0,-0.9648923873901367,-1.9369678497314453,9.73751449584961,-0.08948421478271484,-0.15872859954833984,-0.1320962905883789,0.032756805419921875,-0.40262508392333984,0.9074907302856445,0.1151895523071289
37,476234208.0,-0.7972927093505859,-1.733454704284668,9.78420352935791,-0.08948421478271484,-0.15872859954833984,-0.1320962905883789,0.032756805419921875,-0.40262508392333984,0.9074907302856445,0.1151895523071289
38,476234240.0,-0.7913074493408203,-1.632894515991211,9.76504898071289,-0.08948421478271484,-0.15872859954833984,-0.1320962905883789,0.020931243896484375,-0.3996896743774414,0.9092168807983398,0.11441230773925781
39,476234368.0,-1.0462980270385742,-1.727468490600586,9.862016677856445,-0.04900360107421875,-0.03728485107421875,0.00852203369140625,0.01614093780517578,-0.4002513885498047,0.9092597961425781,0.11324691772460938
40,476234368.0,-0.9768638610839844,-1.7550029754638672,9.838074684143066,-0.04900360107421875,-0.03728485107421875,0.00852203369140625,0.01614093780517578,-0.4002513885498047,0.9092597961425781,0.11324691772460938
41,476234400.0,-1.0247488021850586,-1.6843719482421875,9.85722827911377,-0.04900360107421875,-0.03728485107421875,0.00852203369140625,0.01614093780517578,-0.4002513885498047,0.9092597961425781,0.11324691772460938
42,476234400.0,-1.0606632232666016,-1.8651399612426758,9.73751449584961,-0.04900360107421875,-0.03728485107421875,0.00852203369140625,0.01614093780517578,-0.4002513885498047,0.9092597961425781,0.11324691772460938
43,476234432.0,-0.9529209136962891,-1.7705659866333008,9.768640518188477,-0.04900360107421875,-0.03728485107421875,0.00852203369140625,0.01614093780517578,-0.4002513885498047,0.9092597961425781,0.11324691772460938
44,476234560.0,-0.9337663650512695,-2.0746383666992188,9.780611991882324,-0.009587287902832031,0.0010652542114257812,0.03515434265136719,0.012860298156738281,-0.40158939361572266,0.9089574813842773,0.111175537109375
45,476234560.0,-0.9014434814453125,-1.939361572265625,9.829694747924805,-0.009587287902832031,0.0010652542114257812,0.03515434265136719,0.012860298156738281,-0.40158939361572266,0.9089574813842773,0.111175537109375
46,476234592.0,-0.7841243743896484,-1.8076772689819336,9.744697570800781,-0.009587287902832031,0.0010652542114257812,0.03515434265136719,0.012860298156738281,-0.40158939361572266,0.9089574813842773,0.111175537109375
47,476234624.0,-0.7003250122070312,-1.8555622100830078,9.61660385131836,-0.009587287902832031,0.0010652542114257812,0.03515434265136719,0.012860298156738281,-0.40158939361572266,0.9089574813842773,0.111175537109375
48,476234624.0,-0.7817306518554688,-1.8388023376464844,9.618998527526855,-0.009587287902832031,0.0010652542114257812,0.03515434265136719,0.012860298156738281,-0.40158939361572266,0.9089574813842773,0.111175537109375
49,476234752.0,-0.8643331527709961,-1.6221208572387695,9.483721733093262,-0.011717796325683594,0.025567054748535156,0.011717796325683594,0.013939857482910156,-0.4065523147583008,0.9068431854248047,0.11009693145751953
50,476234752.0,-0.8643331527709961,-1.6221208572387695,9.483721733093262,-0.011717796325683594,0.025567054748535156,0.011717796325683594,0.013939857482910156,-0.4065523147583008,0.9068431854248047,0.11009693145751953
51,476234784.0,-0.7984905242919922,-1.5933895111083984,9.535198211669922,-0.03728485107421875,0.025567054748535156,-0.0063915252685546875,0.013939857482910156,-0.4065523147583008,0.9068431854248047,0.11009693145751953
52,476234784.0,-0.8858814239501953,-1.5862064361572266,9.519636154174805,-0.03728485107421875,0.025567054748535156,-0.0063915252685546875,0.013939857482910156,-0.4065523147583008,0.9068431854248047,0.11009693145751953
53,476234784.0,-0.7984905242919922,-1.5933895111083984,9.535198211669922,-0.03728485107421875,0.025567054748535156,-0.0063915252685546875,0.013939857482910156,-0.4065523147583008,0.9068431854248047,0.11009693145751953
54,476234784.0,-0.8858814239501953,-1.5862064361572266,9.519636154174805,-0.03728485107421875,0.025567054748535156,-0.0063915252685546875,0.013939857482910156,-0.4065523147583008,0.9068431854248047,0.11009693145751953
55,476234816.0,-0.7960958480834961,-1.7609882354736328,9.470553398132324,-0.12677001953125,0.022370338439941406,-0.041545867919921875,0.013939857482910156,-0.4065523147583008,0.9068431854248047,0.11009693145751953
56,476234816.0,-0.5506830215454102,-1.7585945129394531,9.466961860656738,-0.12677001953125,0.022370338439941406,-0.041545867919921875,0.013939857482910156,-0.4065523147583008,0.9068431854248047,0.11009693145751953
57,476234816.0,-0.7960958480834961,-1.7609882354736328,9.470553398132324,-0.12677001953125,0.022370338439941406,-0.041545867919921875,0.013939857482910156,-0.4065523147583008,0.9068431854248047,0.11009693145751953
58,476234816.0,-0.5506830215454102,-1.7585945129394531,9.466961860656738,-0.12677001953125,0.022370338439941406,-0.041545867919921875,0.013939857482910156,-0.4065523147583008,0.9068431854248047,0.11009693145751953
59,476234944.0,-1.0594663619995117,-2.059075355529785,9.510058403015137,-0.14594554901123047,0.024501800537109375,-0.060721397399902344,0.008933067321777344,-0.40310001373291016,0.9068431854248047,0.12295722961425781
60,476234976.0,-1.1995315551757812,-2.134495735168457,9.458581924438477,-0.012783050537109375,-0.0862884521484375,0.025567054748535156,0.007336616516113281,-0.40361785888671875,0.9065837860107422,0.12291431427001953
61,476234976.0,-1.0869998931884766,-2.062666893005371,9.536396026611328,-0.012783050537109375,-0.0862884521484375,0.025567054748535156,0.007336616516113281,-0.40361785888671875,0.9065837860107422,0.12291431427001953
62,476235008.0,-0.988835334777832,-1.8364086151123047,9.742302894592285,-0.0170440673828125,-0.11185550689697266,-0.0021305084228515625,0.006343841552734375,-0.40387630462646484,0.9065837860107422,0.12226676940917969
63,476235040.0,-0.8810930252075195,-1.9573192596435547,9.821314811706543,-0.04687213897705078,-0.08309268951416016,-0.020239830017089844,0.005265235900878906,-0.4040060043334961,0.9065408706665039,0.12213802337646484
64,476235040.0,-0.9397525787353516,-1.909433364868164,9.731529235839844,-0.04687213897705078,-0.08309268951416016,-0.020239830017089844,0.005265235900878906,-0.4040060043334961,0.9065408706665039,0.12213802337646484
65,476235072.0,-0.9864406585693359,-1.9968242645263672,9.808145523071289,-0.04687213897705078,-0.08309268951416016,-0.020239830017089844,0.005265235900878906,-0.4040060043334961,0.9065408706665039,0.12213802337646484
66,476235104.0,-0.9301748275756836,-2.044710159301758,9.888354301452637,-0.04687213897705078,-0.08309268951416016,-0.020239830017089844,0.005265235900878906,-0.4040060043334961,0.9065408706665039,0.12213802337646484
67,476235104.0,-0.9050350189208984,-2.1428756713867188,9.862016677856445,-0.04687213897705078,-0.08309268951416016,-0.020239830017089844,0.005265235900878906,-0.4040060043334961,0.9065408706665039,0.12213802337646484
68,476235136.0,-0.9229927062988281,-2.1165380477905273,9.707586288452148,-0.04687213897705078,-0.08309268951416016,-0.020239830017089844,0.005265235900878906,-0.4040060043334961,0.9065408706665039,0.12213802337646484
69,476235136.0,-0.793701171875,-2.132101058959961,9.647729873657227,-0.04687213897705078,-0.08309268951416016,-0.020239830017089844,0.005265235900878906,-0.4040060043334961,0.9065408706665039,0.12213802337646484
70,476235168.0,-0.829615592956543,-2.163227081298828,9.605829238891602,-0.057525634765625,0.033023834228515625,0.007456779479980469,0.005265235900878906,-0.4040060043334961,0.9065408706665039,0.12213802337646484
71,476235200.0,-0.8655300140380859,-2.187169075012207,9.47773551940918,-0.05965614318847656,0.024501800537109375,0.007456779479980469,0.005265235900878906,-0.4040060043334961,0.9065408706665039,0.12213802337646484
72,476235200.0,-0.8511638641357422,-2.138087272644043,9.450201988220215,-0.05965614318847656,0.024501800537109375,0.007456779479980469,0.005265235900878906,-0.4040060043334961,0.9065408706665039,0.12213802337646484
73,476235232.0,-0.8523616790771484,-2.215900421142578,9.45499038696289,-0.06817817687988281,0.014913558959960938,0.007456779479980469,0.005265235900878906,-0.4040060043334961,0.9065408706665039,0.12213802337646484
74,476235264.0,-0.829615592956543,-2.227871894836426,9.37478256225586,-0.06817817687988281,0.014913558959960938,0.007456779479980469,0.005265235900878906,-0.4040060043334961,0.9065408706665039,0.12213802337646484
75,476235264.0,-0.8763036727905273,-2.1404809951782227,9.310136795043945,-0.06817817687988281,0.014913558959960938,0.007456779479980469,0.005265235900878906,-0.4040060043334961,0.9065408706665039,0.12213802337646484
76,476235296.0,-0.8044757843017578,-2.229069709777832,9.250279426574707,-0.06817817687988281,0.014913558959960938,0.007456779479980469,0.005265235900878906,-0.4040060043334961,0.9065408706665039,0.12213802337646484
77,476235296.0,-0.855952262878418,-2.193155288696289,9.311333656311035,-0.06817817687988281,0.014913558959960938,0.007456779479980469,0.005265235900878906,-0.4040060043334961,0.9065408706665039,0.12213802337646484
78,476235328.0,-0.8954582214355469,-2.1847753524780273,9.322108268737793,-0.06817817687988281,0.014913558959960938,0.007456779479980469,0.005265235900878906,-0.4040060043334961,0.9065408706665039,0.12213802337646484
79,476235360.0,-0.9397525787353516,-2.0794267654418945,9.362811088562012,-0.040480613708496094,-0.06604766845703125,0.01597881317138672,0.005265235900878906,-0.4040060043334961,0.9065408706665039,0.12213802337646484
80,476235360.0,-0.7853212356567383,-2.072244644165039,9.393936157226562,-0.040480613708496094,-0.06604766845703125,0.01597881317138672,0.005265235900878906,-0.4040060043334961,0.9065408706665039,0.12213802337646484
81,476235392.0,-0.7697591781616211,-2.133297920227051,9.401119232177734,-0.061786651611328125,-0.06711292266845703,0.010652542114257812,0.005265235900878906,-0.4040060043334961,0.9065408706665039,0.12213802337646484
82,476235392.0,-0.855952262878418,-2.0937929153442383,9.465764999389648,-0.061786651611328125,-0.06711292266845703,0.010652542114257812,0.005265235900878906,-0.4040060043334961,0.9065408706665039,0.12213802337646484
83,476235424.0,-0.7601814270019531,-2.17160701751709,9.604632377624512,-0.034089088439941406,-0.0809621810913086,-0.004261016845703125,0.005265235900878906,-0.4040060043334961,0.9065408706665039,0.12213802337646484
84,476235456.0,-0.7326478958129883,-2.163227081298828,9.66448974609375,-0.034089088439941406,-0.0809621810913086,-0.004261016845703125,0.005265235900878906,-0.4040060043334961,0.9065408706665039,0.12213802337646484
85,476235456.0,-0.6763820648193359,-2.0854129791259766,9.743500709533691,-0.034089088439941406,-0.0809621810913086,-0.004261016845703125,0.005265235900878906,-0.4040060043334961,0.9065408706665039,0.12213802337646484
86,476235488.0,-0.6548337936401367,-2.1524524688720703,9.708783149719238,-0.034089088439941406,-0.0809621810913086,-0.004261016845703125,0.005265235900878906,-0.4040060043334961,0.9065408706665039,0.12213802337646484
87,476235520.0,-0.7254648208618164,-2.230266571044922,9.589069366455078,-0.034089088439941406,-0.0809621810913086,-0.004261016845703125,0.005265235900878906,-0.4040060043334961,0.9065408706665039,0.12213802337646484
88,476235520.0,-0.7529993057250977,-2.226675033569336,9.751880645751953,-0.034089088439941406,-0.0809621810913086,-0.004261016845703125,0.005265235900878906,-0.4040060043334961,0.9065408706665039,0.12213802337646484
89,476235552.0,-0.7553930282592773,-2.1847753524780273,9.774625778198242,0.026632308959960938,-0.04900360107421875,0.014913558959960938,0.005265235900878906,-0.4040060043334961,0.9065408706665039,0.12213802337646484
90,476235584.0,-0.7518014907836914,-2.160832405090332,9.705191612243652,-0.0021305084228515625,-0.022370338439941406,-0.0063915252685546875,0.005265235900878906,-0.4040060043334961,0.9065408706665039,0.12213802337646484
91,476235584.0,-0.678776741027832,-2.2506179809570312,9.802160263061523,-0.0021305084228515625,-0.022370338439941406,-0.0063915252685546875,0.005265235900878906,-0.4040060043334961,0.9065408706665039,0.12213802337646484
92,476235616.0,-0.7482099533081055,-2.2398433685302734,9.759062767028809,0.01810932159423828,-0.010652542114257812,-0.007456779479980469,0.005265235900878906,-0.4040060043334961,0.9065408706665039,0.12213802337646484
93,476235616.0,-0.7769412994384766,-2.253011703491211,9.778217315673828,0.01810932159423828,-0.010652542114257812,-0.007456779479980469,0.005265235900878906,-0.4040060043334961,0.9065408706665039,0.12213802337646484
94,476235744.0,-0.8727130889892578,-2.409836769104004,9.483721733093262,-0.06604766845703125,0.07989692687988281,-0.012783050537109375,-0.008243560791015625,-0.4057750701904297,0.9052896499633789,0.1255474090576172
95,476235776.0,-0.8320102691650391,-2.3858938217163086,9.550761222839355,-0.06604766845703125,0.07989692687988281,-0.012783050537109375,-0.008243560791015625,-0.4057750701904297,0.9052896499633789,0.1255474090576172
96,476235776.0,-0.7529993057250977,-2.3667402267456055,9.538789749145508,-0.06604766845703125,0.07989692687988281,-0.012783050537109375,-0.008243560791015625,-0.4057750701904297,0.9052896499633789,0.1255474090576172
97,476235808.0,-0.7805328369140625,-2.322445869445801,9.459778785705566,-0.06604766845703125,0.07989692687988281,-0.012783050537109375,-0.008243560791015625,-0.4057750701904297,0.9052896499633789,0.1255474090576172
98,476235840.0,-0.7589845657348633,-2.4242029190063477,9.47414493560791,-0.06604766845703125,0.07989692687988281,-0.012783050537109375,-0.008243560791015625,-0.4057750701904297,0.9052896499633789,0.1255474090576172
99,476236064.0,-1.0678462982177734,-2.2206897735595703,9.365204811096191,-0.004261016845703125,0.014913558959960938,-0.010652542114257812,0.00025844573974609375,-0.4097461700439453,0.9024410247802734,0.13309955596923828
100,476236064.0,-1.1109428405761719,-2.2793493270874023,9.54716968536377,-0.004261016845703125,0.014913558959960938,-0.010652542114257812,0.00025844573974609375,-0.4097461700439453,0.9024410247802734,0.13309955596923828
101,476236064.0,-1.0989713668823242,-2.258997917175293,9.446610450744629,-0.004261016845703125,0.014913558959960938,-0.010652542114257812,0.00025844573974609375,-0.4097461700439453,0.9024410247802734,0.13309955596923828
102,476236096.0,-1.0163688659667969,-2.249420166015625,9.50646686553955,-0.007456779479980469,0.005326271057128906,-0.023435592651367188,0.00025844573974609375,-0.4097461700439453,0.9024410247802734,0.13309955596923828
103,476236096.0,-1.0917892456054688,-2.2578001022338867,9.536396026611328,-0.007456779479980469,0.005326271057128906,-0.023435592651367188,0.00025844573974609375,-0.4097461700439453,0.9024410247802734,0.13309955596923828
104,476236096.0,-0.9158096313476562,-2.218295097351074,9.542381286621094,-0.007456779479980469,0.005326271057128906,-0.023435592651367188,0.00025844573974609375,-0.4097461700439453,0.9024410247802734,0.13309955596923828
105,476236128.0,-0.9289779663085938,-2.233858108520508,9.550761222839355,-0.042611122131347656,0.023435592651367188,-0.025567054748535156,0.00025844573974609375,-0.4097461700439453,0.9024410247802734,0.13309955596923828
106,476236128.0,-1.0235519409179688,-2.286531448364258,9.478933334350586,-0.042611122131347656,0.023435592651367188,-0.025567054748535156,0.00025844573974609375,-0.4097461700439453,0.9024410247802734,0.13309955596923828
107,476236128.0,-0.9517240524291992,-2.248223304748535,9.514846801757812,-0.042611122131347656,0.023435592651367188,-0.025567054748535156,0.00025844573974609375,-0.4097461700439453,0.9024410247802734,0.13309955596923828
108,476236160.0,-1.0522832870483398,-2.379908561706543,9.459778785705566,-0.042611122131347656,0.023435592651367188,-0.025567054748535156,0.00025844573974609375,-0.4097461700439453,0.9024410247802734,0.13309955596923828
109,476236160.0,-1.0259466171264648,-2.4289913177490234,9.458581924438477,-0.042611122131347656,0.023435592651367188,-0.025567054748535156,0.00025844573974609375,-0.4097461700439453,0.9024410247802734,0.13309955596923828
110,476236160.0,-1.0522832870483398,-2.379908561706543,9.459778785705566,-0.042611122131347656,0.023435592651367188,-0.025567054748535156,0.00025844573974609375,-0.4097461700439453,0.9024410247802734,0.13309955596923828
111,476236160.0,-1.0259466171264648,-2.4289913177490234,9.458581924438477,-0.042611122131347656,0.023435592651367188,-0.025567054748535156,0.00025844573974609375,-0.4097461700439453,0.9024410247802734,0.13309955596923828
112,476236192.0,-0.8954582214355469,-2.310474395751953,9.462173461914062,-0.042611122131347656,0.023435592651367188,-0.025567054748535156,0.00025844573974609375,-0.4097461700439453,0.9024410247802734,0.13309955596923828
113,476236192.0,-0.9601039886474609,-2.315262794494629,9.446610450744629,-0.042611122131347656,0.023435592651367188,-0.025567054748535156,0.00025844573974609375,-0.4097461700439453,0.9024410247802734,0.13309955596923828
114,476236192.0,-0.8954582214355469,-2.310474395751953,9.462173461914062,-0.042611122131347656,0.023435592651367188,-0.025567054748535156,0.00025844573974609375,-0.4097461700439453,0.9024410247802734,0.13309955596923828
115,476236192.0,-0.9601039886474609,-2.315262794494629,9.446610450744629,-0.042611122131347656,0.023435592651367188,-0.025567054748535156,0.00025844573974609375,-0.4097461700439453,0.9024410247802734,0.13309955596923828
116,476236224.0,-0.9708776473999023,-2.406245231628418,9.487313270568848,-0.042611122131347656,0.023435592651367188,-0.025567054748535156,0.00025844573974609375,-0.4097461700439453,0.9024410247802734,0.13309955596923828
117,476236224.0,-0.9708776473999023,-2.406245231628418,9.487313270568848,-0.042611122131347656,0.023435592651367188,-0.025567054748535156,0.00025844573974609375,-0.4097461700439453,0.9024410247802734,0.13309955596923828
118,476236352.0,-0.9481325149536133,-2.3583602905273438,9.52442455291748,-0.030893325805664062,-0.0063915252685546875,-0.025567054748535156,-0.00021648406982421875,-0.40685462951660156,0.9033470153808594,0.1355600357055664
119,476236352.0,-1.0391149520874023,-2.3667402267456055,9.551958084106445,-0.030893325805664062,-0.0063915252685546875,-0.025567054748535156,-0.00021648406982421875,-0.40685462951660156,0.9033470153808594,0.1355600357055664
120,476236384.0,-1.0271434783935547,-2.340402603149414,9.488510131835938,-0.030893325805664062,-0.0063915252685546875,-0.025567054748535156,-0.00021648406982421875,-0.40685462951660156,0.9033470153808594,0.1355600357055664
121,476236416.0,-1.0055952072143555,-2.4265966415405273,9.458581924438477,-0.030893325805664062,-0.0063915252685546875,-0.025567054748535156,-0.00021648406982421875,-0.40685462951660156,0.9033470153808594,0.1355600357055664
122,476236416.0,-0.9792575836181641,-2.48166561126709,9.464567184448242,-0.030893325805664062,-0.0063915252685546875,-0.025567054748535156,-0.00021648406982421875,-0.40685462951660156,0.9033470153808594,0.1355600357055664
123,476236448.0,-1.0283403396606445,-2.5558881759643555,9.42625904083252,-0.019174575805664062,0.005326271057128906,-0.011717796325683594,-0.00021648406982421875,-0.40685462951660156,0.9033470153808594,0.1355600357055664
124,476236480.0,-1.0211572647094727,-2.46370792388916,9.419075965881348,0.0021305084228515625,-0.007456779479980469,-0.0021305084228515625,-0.00021648406982421875,-0.40685462951660156,0.9033470153808594,0.1355600357055664
125,476236480.0,-1.011580467224121,-2.4265966415405273,9.392739295959473,0.0021305084228515625,-0.007456779479980469,-0.0021305084228515625,-0.00021648406982421875,-0.40685462951660156,0.9033470153808594,0.1355600357055664
126,476236512.0,-0.9840459823608398,-2.4038515090942383,9.45618724822998,-0.061786651611328125,-0.013848304748535156,-0.005326271057128906,-0.00021648406982421875,-0.40685462951660156,0.9033470153808594,0.1355600357055664
127,476236512.0,-0.9553155899047852,-2.383500099182129,9.452595710754395,-0.061786651611328125,-0.013848304748535156,-0.005326271057128906,-0.00021648406982421875,-0.40685462951660156,0.9033470153808594,0.1355600357055664
128,476236544.0,-0.9385547637939453,-2.4589195251464844,9.484918594360352,-0.09907245635986328,-0.010652542114257812,0.0021305084228515625,-0.00021648406982421875,-0.40685462951660156,0.9033470153808594,0.1355600357055664
129,476236576.0,-1.0319318771362305,-2.5415220260620117,9.517241477966309,-0.04687213897705078,-0.012783050537109375,0.021305084228515625,-0.00021648406982421875,-0.40685462951660156,0.9033470153808594,0.1355600357055664
130,476236576.0,-0.9960174560546875,-2.5415220260620117,9.507664680480957,-0.04687213897705078,-0.012783050537109375,0.021305084228515625,-0.00021648406982421875,-0.40685462951660156,0.9033470153808594,0.1355600357055664
131,476236608.0,-0.9960174560546875,-2.4289913177490234,9.52681827545166,-0.00852203369140625,0.005326271057128906,0.00852203369140625,-0.00021648406982421875,-0.40685462951660156,0.9033470153808594,0.1355600357055664
132,476236608.0,-0.9984121322631836,-2.390683174133301,9.534001350402832,-0.00852203369140625,0.005326271057128906,0.00852203369140625,-0.00021648406982421875,-0.40685462951660156,0.9033470153808594,0.1355600357055664
133,476236640.0,-0.9397525787353516,-2.443356513977051,9.568717956542969,-0.00852203369140625,0.005326271057128906,0.00852203369140625,-0.00021648406982421875,-0.40685462951660156,0.9033470153808594,0.1355600357055664
134,476236640.0,-0.9397525787353516,-2.443356513977051,9.568717956542969,-0.00852203369140625,0.005326271057128906,0.00852203369140625,-0.00021648406982421875,-0.40685462951660156,0.9033470153808594,0.1355600357055664
135,476236672.0,-1.0043973922729492,-2.442159652709961,9.498086929321289,-0.00852203369140625,0.005326271057128906,0.00852203369140625,-0.00021648406982421875,-0.40685462951660156,0.9033470153808594,0.1355600357055664
136,476236672.0,-1.0367202758789062,-2.4253997802734375,9.470553398132324,-0.00852203369140625,0.005326271057128906,0.00852203369140625,-0.00021648406982421875,-0.40685462951660156,0.9033470153808594,0.1355600357055664
137,476236672.0,-1.0043973922729492,-2.442159652709961,9.498086929321289,-0.00852203369140625,0.005326271057128906,0.00852203369140625,-0.00021648406982421875,-0.40685462951660156,0.9033470153808594,0.1355600357055664
138,476236672.0,-1.0367202758789062,-2.4253997802734375,9.470553398132324,-0.00852203369140625,0.005326271057128906,0.00852203369140625,-0.00021648406982421875,-0.40685462951660156,0.9033470153808594,0.1355600357055664
139,476236704.0,-1.081014633178711,-2.401456832885742,9.444215774536133,-0.00852203369140625,0.005326271057128906,0.00852203369140625,-0.00021648406982421875,-0.40685462951660156,0.9033470153808594,0.1355600357055664
140,476236704.0,-1.081014633178711,-2.401456832885742,9.444215774536133,-0.00852203369140625,0.005326271057128906,0.00852203369140625,-0.00021648406982421875,-0.40685462951660156,0.9033470153808594,0.1355600357055664
141,476236736.0,-0.9864406585693359,-2.381105422973633,9.466961860656738,-0.00852203369140625,0.005326271057128906,0.00852203369140625,-0.00021648406982421875,-0.40685462951660156,0.9033470153808594,0.1355600357055664
142,476236736.0,-0.9864406585693359,-2.381105422973633,9.466961860656738,-0.00852203369140625,0.005326271057128906,0.00852203369140625,-0.00021648406982421875,-0.40685462951660156,0.9033470153808594,0.1355600357055664
143,476236736.0,-0.9708776473999023,-2.4038515090942383,9.45499038696289,-0.00852203369140625,0.005326271057128906,0.00852203369140625,-0.00021648406982421875,-0.40685462951660156,0.9033470153808594,0.1355600357055664
144,476236768.0,-1.0139751434326172,-2.53433895111084,9.440624237060547,-0.00852203369140625,0.005326271057128906,0.00852203369140625,-0.00021648406982421875,-0.40685462951660156,0.9033470153808594,0.1355600357055664
145,476236800.0,-1.0199604034423828,-2.5163822174072266,9.38675308227539,-0.00852203369140625,0.005326271057128906,0.00852203369140625,-0.00021648406982421875,-0.40685462951660156,0.9033470153808594,0.1355600357055664
146,476236800.0,-1.0199604034423828,-2.4517364501953125,9.331685066223145,-0.00852203369140625,0.005326271057128906,0.00852203369140625,-0.00021648406982421875,-0.40685462951660156,0.9033470153808594,0.1355600357055664
147,476236832.0,-0.9936237335205078,-2.4768762588500977,9.390344619750977,-0.004261016845703125,-0.004261016845703125,-0.019174575805664062,-0.00021648406982421875,-0.40685462951660156,0.9033470153808594,0.1355600357055664
148,476236832.0,-1.0079889297485352,-2.5463104248046875,9.420273780822754,-0.004261016845703125,-0.004261016845703125,-0.019174575805664062,-0.00021648406982421875,-0.40685462951660156,0.9033470153808594,0.1355600357055664
149,476236864.0,-1.0582685470581055,-2.5415220260620117,9.399922370910645,0.012783050537109375,-0.019174575805664062,-0.010652542114257812,-0.00021648406982421875,-0.40685462951660156,0.9033470153808594,0.1355600357055664
150,476236896.0,-1.0319318771362305,-2.496030807495117,9.422667503356934,-0.0170440673828125,-0.025567054748535156,0.005326271057128906,-0.00021648406982421875,-0.40685462951660156,0.9033470153808594,0.1355600357055664
151,476236896.0,-1.0055952072143555,-2.3739233016967773,9.507664680480957,-0.0170440673828125,-0.025567054748535156,0.005326271057128906,-0.00021648406982421875,-0.40685462951660156,0.9033470153808594,0.1355600357055664
152,476236928.0,-1.0283403396606445,-2.502017021179199,9.508861541748047,-0.061786651611328125,-0.0031957626342773438,0.0,-0.00021648406982421875,-0.40685462951660156,0.9033470153808594,0.1355600357055664
153,476237056.0,-1.022355079650879,-2.4804677963256836,9.501678466796875,0.010652542114257812,0.0,0.0,-0.0034532546997070312,-0.40534400939941406,0.9033899307250977,0.13991928100585938
154,476237056.0,-0.9589061737060547,-2.4661026000976562,9.42745590209961,0.010652542114257812,0.0,0.0,-0.0034532546997070312,-0.40534400939941406,0.9033899307250977,0.13991928100585938
155,476237056.0,-1.022355079650879,-2.4804677963256836,9.501678466796875,0.010652542114257812,0.0,0.0,-0.0034532546997070312,-0.40534400939941406,0.9033899307250977,0.13991928100585938
156,476237056.0,-0.9589061737060547,-2.4661026000976562,9.42745590209961,0.010652542114257812,0.0,0.0,-0.0034532546997070312,-0.40534400939941406,0.9033899307250977,0.13991928100585938
157,476237088.0,-0.9445409774780273,-2.4936370849609375,9.489706993103027,0.014913558959960938,0.0,0.0021305084228515625,-0.0034532546997070312,-0.40534400939941406,0.9033899307250977,0.13991928100585938
158,476237088.0,-0.9445409774780273,-2.4936370849609375,9.489706993103027,0.014913558959960938,0.0,0.0021305084228515625,-0.0034532546997070312,-0.40534400939941406,0.9033899307250977,0.13991928100585938
159,476237120.0,-1.011580467224121,-2.4469480514526367,9.438230514526367,-0.0031957626342773438,0.0,0.0,-0.0034532546997070312,-0.40534400939941406,0.9033899307250977,0.13991928100585938
160,476237120.0,-0.950526237487793,-2.4253997802734375,9.429850578308105,-0.0031957626342773438,0.0,0.0,-0.0034532546997070312,-0.40534400939941406,0.9033899307250977,0.13991928100585938
161,476237120.0,-1.011580467224121,-2.4469480514526367,9.438230514526367,-0.0031957626342773438,0.0,0.0,-0.0034532546997070312,-0.40534400939941406,0.9033899307250977,0.13991928100585938
162,476237120.0,-0.950526237487793,-2.4253997802734375,9.429850578308105,-0.0031957626342773438,0.0,0.0,-0.0034532546997070312,-0.40534400939941406,0.9033899307250977,0.13991928100585938
163,476237248.0,-0.9541177749633789,-2.378711700439453,9.437033653259277,0.01810932159423828,-0.005326271057128906,-0.005326271057128906,-0.0034532546997070312,-0.40534400939941406,0.9033899307250977,0.13991928100585938
164,476237248.0,-0.9840459823608398,-2.496030807495117,9.387950897216797,0.01810932159423828,-0.005326271057128906,-0.005326271057128906,-0.0034532546997070312,-0.40534400939941406,0.9033899307250977,0.13991928100585938
165,476237248.0,-0.9541177749633789,-2.378711700439453,9.437033653259277,0.01810932159423828,-0.005326271057128906,-0.005326271057128906,-0.0034532546997070312,-0.40534400939941406,0.9033899307250977,0.13991928100585938
166,476237248.0,-0.9840459823608398,-2.496030807495117,9.387950897216797,0.01810932159423828,-0.005326271057128906,-0.005326271057128906,-0.0034532546997070312,-0.40534400939941406,0.9033899307250977,0.13991928100585938
167,476237248.0,-0.9541177749633789,-2.378711700439453,9.437033653259277,0.01810932159423828,-0.005326271057128906,-0.005326271057128906,-0.0034532546997070312,-0.40534400939941406,0.9033899307250977,0.13991928100585938
168,476237248.0,-0.9840459823608398,-2.496030807495117,9.387950897216797,0.01810932159423828,-0.005326271057128906,-0.005326271057128906,-0.0034532546997070312,-0.40534400939941406,0.9033899307250977,0.13991928100585938
169,476237280.0,-0.9708776473999023,-2.4289913177490234,9.387950897216797,0.01810932159423828,-0.005326271057128906,-0.005326271057128906,-0.0034532546997070312,-0.40534400939941406,0.9033899307250977,0.13991928100585938
170,476237280.0,-0.9708776473999023,-2.4289913177490234,9.387950897216797,0.01810932159423828,-0.005326271057128906,-0.005326271057128906,-0.0034532546997070312,-0.40534400939941406,0.9033899307250977,0.13991928100585938
171,476237280.0,-0.9708776473999023,-2.4289913177490234,9.387950897216797,0.01810932159423828,-0.005326271057128906,-0.005326271057128906,-0.0034532546997070312,-0.40534400939941406,0.9033899307250977,0.13991928100585938
172,476237312.0,-1.0079889297485352,-2.4577226638793945,9.446610450744629,0.01810932159423828,-0.005326271057128906,-0.005326271057128906,-0.0034532546997070312,-0.40534400939941406,0.9033899307250977,0.13991928100585938
173,476237312.0,-0.950526237487793,-2.470890998840332,9.417879104614258,0.01810932159423828,-0.005326271057128906,-0.005326271057128906,-0.0034532546997070312,-0.40534400939941406,0.9033899307250977,0.13991928100585938
174,476237312.0,-1.0079889297485352,-2.4577226638793945,9.446610450744629,0.01810932159423828,-0.005326271057128906,-0.005326271057128906,-0.0034532546997070312,-0.40534400939941406,0.9033899307250977,0.13991928100585938
175,476237312.0,-0.950526237487793,-2.470890998840332,9.417879104614258,0.01810932159423828,-0.005326271057128906,-0.005326271057128906,-0.0034532546997070312,-0.40534400939941406,0.9033899307250977,0.13991928100585938
176,476237312.0,-1.0079889297485352,-2.4577226638793945,9.446610450744629,0.01810932159423828,-0.005326271057128906,-0.005326271057128906,-0.0034532546997070312,-0.40534400939941406,0.9033899307250977,0.13991928100585938
177,476237312.0,-0.950526237487793,-2.470890998840332,9.417879104614258,0.01810932159423828,-0.005326271057128906,-0.005326271057128906,-0.0034532546997070312,-0.40534400939941406,0.9033899307250977,0.13991928100585938
178,476237536.0,-0.9660892486572266,-2.537930488586426,9.529212951660156,-0.030893325805664062,0.005326271057128906,-0.013848304748535156,-0.0035390853881835938,-0.40357398986816406,0.9041242599487305,0.1400918960571289
179,476237536.0,-0.9660892486572266,-2.537930488586426,9.529212951660156,-0.030893325805664062,0.005326271057128906,-0.013848304748535156,-0.0035390853881835938,-0.40357398986816406,0.9041242599487305,0.1400918960571289
180,476237568.0,-0.9720754623413086,-2.4768762588500977,9.492101669311523,-0.030893325805664062,0.005326271057128906,-0.013848304748535156,-0.0035390853881835938,-0.40357398986816406,0.9041242599487305,0.1400918960571289
181,476237568.0,-0.9529209136962891,-2.506805419921875,9.504073143005371,-0.030893325805664062,0.005326271057128906,-0.013848304748535156,-0.0035390853881835938,-0.40357398986816406,0.9041242599487305,0.1400918960571289
182,476237568.0,-0.9720754623413086,-2.4768762588500977,9.492101669311523,-0.030893325805664062,0.005326271057128906,-0.013848304748535156,-0.0035390853881835938,-0.40357398986816406,0.9041242599487305,0.1400918960571289
183,476237568.0,-0.9529209136962891,-2.506805419921875,9.504073143005371,-0.030893325805664062,0.005326271057128906,-0.013848304748535156,-0.0035390853881835938,-0.40357398986816406,0.9041242599487305,0.1400918960571289
184,476237600.0,-0.9732723236083984,-2.4864540100097656,9.505270004272461,-0.030893325805664062,0.005326271057128906,-0.013848304748535156,-0.0035390853881835938,-0.40357398986816406,0.9041242599487305,0.1400918960571289
185,476237600.0,-0.9732723236083984,-2.4864540100097656,9.505270004272461,-0.030893325805664062,0.005326271057128906,-0.013848304748535156,-0.0035390853881835938,-0.40357398986816406,0.9041242599487305,0.1400918960571289
186,476237632.0,-0.9589061737060547,-2.439764976501465,9.475341796875,-0.025567054748535156,0.03621959686279297,-0.014913558959960938,-0.0035390853881835938,-0.40357398986816406,0.9041242599487305,0.1400918960571289
187,476237632.0,-0.9589061737060547,-2.439764976501465,9.475341796875,-0.025567054748535156,0.03621959686279297,-0.014913558959960938,-0.0035390853881835938,-0.40357398986816406,0.9041242599487305,0.1400918960571289
188,476237632.0,-0.9792575836181641,-2.4517364501953125,9.433442115783691,-0.025567054748535156,0.03621959686279297,-0.014913558959960938,-0.0035390853881835938,-0.40357398986816406,0.9041242599487305,0.1400918960571289
189,476237664.0,-1.0020036697387695,-2.4888477325439453,9.445413589477539,-0.03941535949707031,0.03515434265136719,-0.013848304748535156,-0.0035390853881835938,-0.40357398986816406,0.9041242599487305,0.1400918960571289
190,476237696.0,-1.015172004699707,-2.535536766052246,9.401119232177734,-0.005326271057128906,0.031958580017089844,-0.019174575805664062,-0.0035390853881835938,-0.40357398986816406,0.9041242599487305,0.1400918960571289
191,476237696.0,-0.9684839248657227,-2.4661026000976562,9.398724555969238,-0.005326271057128906,0.031958580017089844,-0.019174575805664062,-0.0035390853881835938,-0.40357398986816406,0.9041242599487305,0.1400918960571289
192,476237728.0,-0.9972152709960938,-2.377513885498047,9.440624237060547,-0.010652542114257812,0.03515434265136719,-0.020239830017089844,-0.0035390853881835938,-0.40357398986816406,0.9041242599487305,0.1400918960571289
193,476237728.0,-1.0247488021850586,-2.379908561706543,9.420273780822754,-0.010652542114257812,0.03515434265136719,-0.020239830017089844,-0.0035390853881835938,-0.40357398986816406,0.9041242599487305,0.1400918960571289
194,476237728.0,-1.0247488021850586,-2.379908561706543,9.420273780822754,-0.010652542114257812,0.03515434265136719,-0.020239830017089844,-0.0035390853881835938,-0.40357398986816406,0.9041242599487305,0.1400918960571289
195,476237760.0,-1.05108642578125,-2.4206113815307617,9.299362182617188,-0.010652542114257812,0.03515434265136719,-0.020239830017089844,-0.0035390853881835938,-0.40357398986816406,0.9041242599487305,0.1400918960571289
196,476237760.0,-1.05108642578125,-2.4206113815307617,9.299362182617188,-0.010652542114257812,0.03515434265136719,-0.020239830017089844,-0.0035390853881835938,-0.40357398986816406,0.9041242599487305,0.1400918960571289
197,476237792.0,-1.0403118133544922,-2.381105422973633,9.40590763092041,-0.010652542114257812,0.03515434265136719,-0.020239830017089844,-0.0035390853881835938,-0.40357398986816406,0.9041242599487305,0.1400918960571289
198,476237792.0,-1.0403118133544922,-2.4565258026123047,9.410696029663086,-0.010652542114257812,0.03515434265136719,-0.020239830017089844,-0.0035390853881835938,-0.40357398986816406,0.9041242599487305,0.1400918960571289
199,476237792.0,-1.0403118133544922,-2.381105422973633,9.40590763092041,-0.010652542114257812,0.03515434265136719,-0.020239830017089844,-0.0035390853881835938,-0.40357398986816406,0.9041242599487305,0.1400918960571289
200,476237792.0,-1.0403118133544922,-2.4565258026123047,9.410696029663086,-0.010652542114257812,0.03515434265136719,-0.020239830017089844,-0.0035390853881835938,-0.40357398986816406,0.9041242599487305,0.1400918960571289
201,476237824.0,-1.0881977081298828,-2.5463104248046875,9.40351390838623,-0.010652542114257812,0.03515434265136719,-0.020239830017089844,-0.0035390853881835938,-0.40357398986816406,0.9041242599487305,0.1400918960571289
202,476237824.0,-1.0881977081298828,-2.5463104248046875,9.40351390838623,-0.010652542114257812,0.03515434265136719,-0.020239830017089844,-0.0035390853881835938,-0.40357398986816406,0.9041242599487305,0.1400918960571289
203,476237952.0,-1.012777328491211,-2.6839818954467773,9.142537117004395,-0.184295654296875,0.042611122131347656,-0.1320962905883789,-0.0031938552856445312,-0.3936481475830078,0.9066276550292969,0.15174388885498047
204,476237952.0,-1.0175666809082031,-2.8886919021606445,9.088665962219238,-0.184295654296875,0.042611122131347656,-0.1320962905883789,-0.0031938552856445312,-0.3936481475830078,0.9066276550292969,0.15174388885498047
205,476237984.0,-1.0905914306640625,-2.9437599182128906,8.929447174072266,-0.184295654296875,0.042611122131347656,-0.1320962905883789,-0.0031938552856445312,-0.3936481475830078,0.9066276550292969,0.15174388885498047
206,476238016.0,-1.0953798294067383,-3.183187484741211,8.815718650817871,-0.184295654296875,0.042611122131347656,-0.1320962905883789,-0.0031938552856445312,-0.3936481475830078,0.9066276550292969,0.15174388885498047
207,476238016.0,-0.9864406585693359,-3.5016260147094727,8.697202682495117,-0.184295654296875,0.042611122131347656,-0.1320962905883789,-0.0031938552856445312,-0.3936481475830078,0.9066276550292969,0.15174388885498047
208,476238048.0,-0.8212356567382812,-3.6943655014038086,8.630162239074707,-0.09694194793701172,-0.19388389587402344,-0.00852203369140625,-0.011005401611328125,-0.38726043701171875,0.9080085754394531,0.15955638885498047
209,476238048.0,-0.6931419372558594,-4.030760765075684,8.40510082244873,-0.09694194793701172,-0.19388389587402344,-0.00852203369140625,-0.011005401611328125,-0.38726043701171875,0.9080085754394531,0.15955638885498047
210,476238080.0,-0.6919450759887695,-4.449759483337402,8.177644729614258,-0.04793834686279297,-0.2471485137939453,0.09587669372558594,-0.015537261962890625,-0.3894186019897461,0.9071455001831055,0.1587362289428711
211,476238112.0,-0.6620168685913086,-5.105790138244629,8.048354148864746,0.19921016693115234,-0.4772529602050781,0.5102767944335938,-0.018083572387695312,-0.3931303024291992,0.9058504104614258,0.15653514862060547
212,476238112.0,-0.7170848846435547,-5.527182579040527,7.954977035522461,0.19921016693115234,-0.4772529602050781,0.5102767944335938,-0.018083572387695312,-0.3931303024291992,0.9058504104614258,0.15653514862060547
213,476238144.0,-0.7290563583374023,-5.6792192459106445,8.029199600219727,0.3408946990966797,-0.6338510513305664,0.7712745666503906,-0.024255752563476562,-0.4078035354614258,0.9009304046630859,0.1466512680053711
214,476238144.0,-0.4812488555908203,-5.491268157958984,8.535589218139648,0.3408946990966797,-0.6338510513305664,0.7712745666503906,-0.024255752563476562,-0.4078035354614258,0.9009304046630859,0.1466512680053711
215,476238176.0,-0.44054603576660156,-4.883122444152832,9.416682243347168,0.3408946990966797,-0.6338510513305664,0.7712745666503906,-0.024255752563476562,-0.4078035354614258,0.9009304046630859,0.1466512680053711
216,476238208.0,-0.41420936584472656,-4.965724945068359,10.120598793029785,0.3408946990966797,-0.6338510513305664,0.7712745666503906,-0.024255752563476562,-0.4078035354614258,0.9009304046630859,0.1466512680053711
217,476238208.0,-0.5051918029785156,-5.87435245513916,9.611815452575684,0.3408946990966797,-0.6338510513305664,0.7712745666503906,-0.024255752563476562,-0.4078035354614258,0.9009304046630859,0.1466512680053711
218,476238368.0,0.20590686798095703,0.6153278350830078,14.720000267028809,1.1451940536499023,0.16512012481689453,2.7729673385620117,-0.024255752563476562,-0.4078035354614258,0.9009304046630859,0.1466512680053711
219,476238368.0,0.7697591781616211,1.9621076583862305,14.885205268859863,1.1451940536499023,0.16512012481689453,2.7729673385620117,-0.024255752563476562,-0.4078035354614258,0.9009304046630859,0.1466512680053711
220,476238368.0,0.20590686798095703,0.6153278350830078,14.720000267028809,1.1451940536499023,0.16512012481689453,2.7729673385620117,-0.024255752563476562,-0.4078035354614258,0.9009304046630859,0.1466512680053711
221,476238368.0,0.7697591781616211,1.9621076583862305,14.885205268859863,1.1451940536499023,0.16512012481689453,2.7729673385620117,-0.024255752563476562,-0.4078035354614258,0.9009304046630859,0.1466512680053711
222,476238400.0,0.7362394332885742,2.2075204849243164,14.012492179870605,1.1451940536499023,0.16512012481689453,2.7729673385620117,-0.024255752563476562,-0.4078035354614258,0.9009304046630859,0.1466512680053711
223,476238400.0,0.7362394332885742,2.2075204849243164,14.012492179870605,1.1451940536499023,0.16512012481689453,2.7729673385620117,-0.024255752563476562,-0.4078035354614258,0.9009304046630859,0.1466512680053711
224,476238432.0,0.11013603210449219,3.3340272903442383,13.770670890808105,1.1451940536499023,0.16512012481689453,2.7729673385620117,-0.024255752563476562,-0.4078035354614258,0.9009304046630859,0.1466512680053711
225,476238432.0,0.1580219268798828,3.96372127532959,13.409134864807129,1.1451940536499023,0.16512012481689453,2.7729673385620117,-0.024255752563476562,-0.4078035354614258,0.9009304046630859,0.1466512680053711
226,476238432.0,0.11013603210449219,3.3340272903442383,13.770670890808105,1.1451940536499023,0.16512012481689453,2.7729673385620117,-0.024255752563476562,-0.4078035354614258,0.9009304046630859,0.1466512680053711
227,476238432.0,0.1580219268798828,3.96372127532959,13.409134864807129,1.1451940536499023,0.16512012481689453,2.7729673385620117,-0.024255752563476562,-0.4078035354614258,0.9009304046630859,0.1466512680053711
228,476238560.0,-1.941756248474121,3.226284980773926,7.169654846191406,0.0021305084228515625,2.8549957275390625,-0.8714122772216797,-0.024255752563476562,-0.4078035354614258,0.9009304046630859,0.1466512680053711
229,476238592.0,-2.5606765747070312,3.3256473541259766,6.994873046875,0.17577362060546875,2.3436527252197266,-1.3635797500610352,-0.024255752563476562,-0.4078035354614258,0.9009304046630859,0.1466512680053711
230,476238592.0,-2.543916702270508,3.122134208679199,5.843227386474609,0.17577362060546875,2.3436527252197266,-1.3635797500610352,-0.024255752563476562,-0.4078035354614258,0.9009304046630859,0.1466512680053711
231,476238624.0,-2.590604782104492,2.667222023010254,4.685595512390137,0.37817955017089844,1.703409194946289,-1.9196643829345703,-0.024255752563476562,-0.4078035354614258,0.9009304046630859,0.1466512680053711
232,476238624.0,-2.719895362854004,1.8986597061157227,4.107378005981445,0.37817955017089844,1.703409194946289,-1.9196643829345703,-0.024255752563476562,-0.4078035354614258,0.9009304046630859,0.1466512680053711
233,476238656.0,-3.2131166458129883,0.7326478958129883,3.146076202392578,0.23969173431396484,1.3571882247924805,-2.187053680419922,-0.024255752563476562,-0.4078035354614258,0.9009304046630859,0.1466512680053711
234,476238688.0,-3.671619415283203,0.14006423950195312,2.970097541809082,0.3472862243652344,0.5198640823364258,-2.585474967956543,-0.024255752563476562,-0.4078035354614258,0.9009304046630859,0.1466512680053711
235,476238688.0,-3.8440074920654297,0.7326478958129883,2.9138317108154297,0.3472862243652344,0.5198640823364258,-2.585474967956543,-0.024255752563476562,-0.4078035354614258,0.9009304046630859,0.1466512680053711
236,476238720.0,-3.458529472351074,-0.5243453979492188,2.6732072830200195,0.32065391540527344,0.1384878158569336,-2.701592445373535,-0.024255752563476562,-0.4078035354614258,0.9009304046630859,0.1466512680053711
237,476238752.0,-3.3340272903442383,-2.65285587310791,2.4613142013549805,0.5475625991821289,-0.6562223434448242,-2.849668502807617,-0.024255752563476562,-0.4078035354614258,0.9009304046630859,0.1466512680053711
238,476238752.0,-3.715913772583008,-3.308887481689453,3.0048141479492188,0.5475625991821289,-0.6562223434448242,-2.849668502807617,-0.024255752563476562,-0.4078035354614258,0.9009304046630859,0.1466512680053711
239,476238784.0,-3.7829532623291016,-3.130514144897461,3.6728172302246094,0.5741949081420898,-1.3262939453125,-2.7537918090820312,-0.024255752563476562,-0.4078035354614258,0.9009304046630859,0.1466512680053711
240,476238784.0,-3.2574100494384766,-4.389902114868164,4.209134101867676,0.5741949081420898,-1.3262939453125,-2.7537918090820312,-0.024255752563476562,-0.4078035354614258,0.9009304046630859,0.1466512680053711
241,476238816.0,-2.8336238861083984,-6.61538028717041,4.085829734802246,0.5326480865478516,-1.576639175415039,-2.5982589721679688,-0.024255752563476562,-0.4078035354614258,0.9009304046630859,0.1466512680053711
242,476238848.0,-2.8563690185546875,-6.6093950271606445,4.935796737670898,0.6508960723876953,-1.8536157608032227,-2.406505584716797,-0.024255752563476562,-0.4078035354614258,0.9009304046630859,0.1466512680053711
243,476238848.0,-2.9210147857666016,-6.023994445800781,6.501652717590332,0.6508960723876953,-1.8536157608032227,-2.406505584716797,-0.024255752563476562,-0.4078035354614258,0.9009304046630859,0.1466512680053711
244,476238848.0,-2.9210147857666016,-6.023994445800781,6.501652717590332,0.6508960723876953,-1.8536157608032227,-2.406505584716797,-0.024255752563476562,-0.4078035354614258,0.9009304046630859,0.1466512680053711
245,476238880.0,-2.53314208984375,-6.459753036499023,7.110995292663574,0.6508960723876953,-1.8536157608032227,-2.406505584716797,-0.024255752563476562,-0.4078035354614258,0.9009304046630859,0.1466512680053711
246,476238880.0,-2.53314208984375,-6.459753036499023,7.110995292663574,0.6508960723876953,-1.8536157608032227,-2.406505584716797,-0.024255752563476562,-0.4078035354614258,0.9009304046630859,0.1466512680053711
247,476238912.0,-1.9633045196533203,-6.776993751525879,7.315706253051758,0.6508960723876953,-1.8536157608032227,-2.406505584716797,-0.024255752563476562,-0.4078035354614258,0.9009304046630859,0.1466512680053711
248,476238912.0,-1.4006500244140625,-7.410279273986816,7.157683372497559,0.6508960723876953,-1.8536157608032227,-2.406505584716797,-0.024255752563476562,-0.4078035354614258,0.9009304046630859,0.1466512680053711
249,476238912.0,-1.9633045196533203,-6.776993751525879,7.315706253051758,0.6508960723876953,-1.8536157608032227,-2.406505584716797,-0.024255752563476562,-0.4078035354614258,0.9009304046630859,0.1466512680053711
250,476238912.0,-1.4006500244140625,-7.410279273986816,7.157683372497559,0.6508960723876953,-1.8536157608032227,-2.406505584716797,-0.024255752563476562,-0.4078035354614258,0.9009304046630859,0.1466512680053711
251,476238944.0,-1.204319953918457,-8.522419929504395,7.413870811462402,0.28443336486816406,-2.1178102493286133,-0.2929563522338867,-0.024255752563476562,-0.4078035354614258,0.9009304046630859,0.1466512680053711
252,476238944.0,-1.204319953918457,-8.522419929504395,7.413870811462402,0.28443336486816406,-2.1178102493286133,-0.2929563522338867,-0.024255752563476562,-0.4078035354614258,0.9009304046630859,0.1466512680053711
253,476239168.0,-0.7302532196044922,-1.729863166809082,12.05636978149414,-0.23862648010253906,-1.2847480773925781,0.8618249893188477,-0.03677177429199219,-0.4203195571899414,0.889622688293457,0.17487716674804688
254,476239168.0,-0.7278594970703125,-1.975275993347168,10.982537269592285,-0.23862648010253906,-1.2847480773925781,0.8618249893188477,-0.03677177429199219,-0.4203195571899414,0.889622688293457,0.17487716674804688
255,476239168.0,-0.7302532196044922,-1.729863166809082,12.05636978149414,-0.23862648010253906,-1.2847480773925781,0.8618249893188477,-0.03677177429199219,-0.4203195571899414,0.889622688293457,0.17487716674804688
256,476239168.0,-0.7278594970703125,-1.975275993347168,10.982537269592285,-0.23862648010253906,-1.2847480773925781,0.8618249893188477,-0.03677177429199219,-0.4203195571899414,0.889622688293457,0.17487716674804688
257,476239168.0,-0.7302532196044922,-1.729863166809082,12.05636978149414,-0.23862648010253906,-1.2847480773925781,0.8618249893188477,-0.03677177429199219,-0.4203195571899414,0.889622688293457,0.17487716674804688
258,476239168.0,-0.7278594970703125,-1.975275993347168,10.982537269592285,-0.23862648010253906,-1.2847480773925781,0.8618249893188477,-0.03677177429199219,-0.4203195571899414,0.889622688293457,0.17487716674804688
259,476239200.0,-0.7817306518554688,-2.449342727661133,10.124190330505371,-0.23862648010253906,-1.2847480773925781,0.8618249893188477,-0.03677177429199219,-0.4203195571899414,0.889622688293457,0.17487716674804688
260,476239200.0,-0.7817306518554688,-2.449342727661133,10.124190330505371,-0.23862648010253906,-1.2847480773925781,0.8618249893188477,-0.03677177429199219,-0.4203195571899414,0.889622688293457,0.17487716674804688
261,476239200.0,-0.7817306518554688,-2.449342727661133,10.124190330505371,-0.23862648010253906,-1.2847480773925781,0.8618249893188477,-0.03677177429199219,-0.4203195571899414,0.889622688293457,0.17487716674804688
262,476239232.0,-0.6165256500244141,-2.037527084350586,10.041587829589844,-0.23862648010253906,-1.2847480773925781,0.8618249893188477,-0.03677177429199219,-0.4203195571899414,0.889622688293457,0.17487716674804688
263,476239232.0,-0.5614566802978516,-1.3695249557495117,10.108627319335938,-0.23862648010253906,-1.2847480773925781,0.8618249893188477,-0.03677177429199219,-0.4203195571899414,0.889622688293457,0.17487716674804688
264,476239232.0,-0.6165256500244141,-2.037527084350586,10.041587829589844,-0.23862648010253906,-1.2847480773925781,0.8618249893188477,-0.03677177429199219,-0.4203195571899414,0.889622688293457,0.17487716674804688
265,476239232.0,-0.5614566802978516,-1.3695249557495117,10.108627319335938,-0.23862648010253906,-1.2847480773925781,0.8618249893188477,-0.03677177429199219,-0.4203195571899414,0.889622688293457,0.17487716674804688
266,476239232.0,-0.6165256500244141,-2.037527084350586,10.041587829589844,-0.23862648010253906,-1.2847480773925781,0.8618249893188477,-0.03677177429199219,-0.4203195571899414,0.889622688293457,0.17487716674804688
267,476239232.0,-0.5614566802978516,-1.3695249557495117,10.108627319335938,-0.23862648010253906,-1.2847480773925781,0.8618249893188477,-0.03677177429199219,-0.4203195571899414,0.889622688293457,0.17487716674804688
268,476239264.0,-0.6284961700439453,-1.8364086151123047,9.40590763092041,0.022370338439941406,0.2695198059082031,0.38457202911376953,-0.03677177429199219,-0.4203195571899414,0.889622688293457,0.17487716674804688
269,476239264.0,-0.8367986679077148,-2.5510988235473633,8.776213645935059,0.022370338439941406,0.2695198059082031,0.38457202911376953,-0.03677177429199219,-0.4203195571899414,0.889622688293457,0.17487716674804688
270,476239296.0,-0.7063102722167969,-2.4122314453125,9.008458137512207,0.14274978637695312,0.20560169219970703,0.2897605895996094,-0.03677177429199219,-0.4203195571899414,0.889622688293457,0.17487716674804688
271,476239328.0,-0.6871566772460938,-2.1153411865234375,9.120988845825195,0.05113410949707031,0.19707965850830078,0.17683887481689453,-0.03677177429199219,-0.4203195571899414,0.889622688293457,0.17487716674804688
272,476239328.0,-1.0055952072143555,-2.157240867614746,8.99648666381836,0.05113410949707031,0.19707965850830078,0.17683887481689453,-0.03677177429199219,-0.4203195571899414,0.889622688293457,0.17487716674804688
273,476239360.0,-1.1875600814819336,-2.502017021179199,8.646923065185547,0.05113410949707031,0.19707965850830078,0.17683887481689453,-0.03677177429199219,-0.4203195571899414,0.889622688293457,0.17487716674804688
274,476239360.0,-1.1899538040161133,-2.5714502334594727,8.579882621765137,0.05113410949707031,0.19707965850830078,0.17683887481689453,-0.03677177429199219,-0.4203195571899414,0.889622688293457,0.17487716674804688
275,476239392.0,-1.2031221389770508,-2.4661026000976562,8.892335891723633,0.05113410949707031,0.19707965850830078,0.17683887481689453,-0.03677177429199219,-0.4203195571899414,0.889622688293457,0.17487716674804688
276,476239424.0,-1.2426280975341797,-2.6779956817626953,8.992895126342773,0.07989692687988281,0.042611122131347656,0.04900360107421875,-0.03677177429199219,-0.4203195571899414,0.889622688293457,0.17487716674804688
277,476239424.0,-1.3060760498046875,-2.810877799987793,9.032401084899902,0.07989692687988281,0.042611122131347656,0.04900360107421875,-0.03677177429199219,-0.4203195571899414,0.889622688293457,0.17487716674804688
278,476239456.0,-1.3348073959350586,-2.437371253967285,9.14612865447998,0.03941535949707031,0.0170440673828125,0.010652542114257812,-0.03677177429199219,-0.4203195571899414,0.889622688293457,0.17487716674804688
279,476239488.0,-1.364736557006836,-2.5247621536254883,9.243097305297852,-0.09694194793701172,0.02982807159423828,-0.03515434265136719,-0.03677177429199219,-0.4203195571899414,0.889622688293457,0.17487716674804688
280,476239488.0,-1.4293813705444336,-2.898268699645996,9.04556941986084,-0.09694194793701172,0.02982807159423828,-0.03515434265136719,-0.03677177429199219,-0.4203195571899414,0.889622688293457,0.17487716674804688
281,476239520.0,-1.5036039352416992,-2.9437599182128906,9.100637435913086,0.052199363708496094,-0.0063915252685546875,-0.05539512634277344,-0.03677177429199219,-0.4203195571899414,0.889622688293457,0.17487716674804688
282,476239520.0,-1.4090299606323242,-2.8994665145874023,9.198802947998047,0.052199363708496094,-0.0063915252685546875,-0.05539512634277344,-0.03677177429199219,-0.4203195571899414,0.889622688293457,0.17487716674804688
283,476239552.0,-1.3671302795410156,-2.7905263900756836,9.369993209838867,0.052199363708496094,-0.0063915252685546875,-0.05539512634277344,-0.03677177429199219,-0.4203195571899414,0.889622688293457,0.17487716674804688
284,476239584.0,-1.5598697662353516,-2.8839035034179688,9.372387886047363,0.052199363708496094,-0.0063915252685546875,-0.05539512634277344,-0.03677177429199219,-0.4203195571899414,0.889622688293457,0.17487716674804688
285,476239584.0,-1.5323352813720703,-2.9820690155029297,9.232322692871094,0.052199363708496094,-0.0063915252685546875,-0.05539512634277344,-0.03677177429199219,-0.4203195571899414,0.889622688293457,0.17487716674804688
286,476239616.0,-1.4617042541503906,-3.0790367126464844,9.159296989440918,0.052199363708496094,-0.0063915252685546875,-0.05539512634277344,-0.03677177429199219,-0.4203195571899414,0.889622688293457,0.17487716674804688
287,476239648.0,-1.4844493865966797,-3.0060110092163086,9.270630836486816,0.034089088439941406,-0.054329872131347656,-0.03621959686279297,-0.03677177429199219,-0.4203195571899414,0.889622688293457,0.17487716674804688
288,476239648.0,-1.4916324615478516,-2.8958749771118164,9.23591423034668,0.034089088439941406,-0.054329872131347656,-0.03621959686279297,-0.03677177429199219,-0.4203195571899414,0.889622688293457,0.17487716674804688
289,476239680.0,-1.4629011154174805,-3.0155887603759766,9.358022689819336,0.057525634765625,-0.04687213897705078,-0.023435592651367188,-0.03677177429199219,-0.4203195571899414,0.889622688293457,0.17487716674804688
290,476239680.0,-1.4509296417236328,-3.0562915802001953,9.42506217956543,0.057525634765625,-0.04687213897705078,-0.023435592651367188,-0.03677177429199219,-0.4203195571899414,0.889622688293457,0.17487716674804688
291,476239712.0,-1.4054384231567383,-2.964111328125,9.443018913269043,0.04900360107421875,-0.031958580017089844,-0.02769756317138672,-0.03677177429199219,-0.4203195571899414,0.889622688293457,0.17487716674804688
292,476239744.0,-1.426987648010254,-2.8659467697143555,9.402316093444824,-0.01597881317138672,-0.00852203369140625,-0.020239830017089844,-0.03677177429199219,-0.4203195571899414,0.889622688293457,0.17487716674804688
293,476239840.0,-1.3264274597167969,-2.944957733154297,9.191619873046875,0.033023834228515625,0.012783050537109375,-0.012783050537109375,-0.03677177429199219,-0.4203195571899414,0.889622688293457,0.17487716674804688
294,476239840.0,-1.3264274597167969,-2.944957733154297,9.191619873046875,0.033023834228515625,0.012783050537109375,-0.012783050537109375,-0.03677177429199219,-0.4203195571899414,0.889622688293457,0.17487716674804688
295,476239872.0,-1.289316177368164,-3.003617286682129,9.14493179321289,0.033023834228515625,0.012783050537109375,-0.012783050537109375,-0.03677177429199219,-0.4203195571899414,0.889622688293457,0.17487716674804688
296,476239872.0,-1.289316177368164,-3.003617286682129,9.14493179321289,0.033023834228515625,0.012783050537109375,-0.012783050537109375,-0.03677177429199219,-0.4203195571899414,0.889622688293457,0.17487716674804688
297,476239904.0,-1.3683271408081055,-2.997631072998047,9.14493179321289,0.033023834228515625,0.012783050537109375,-0.012783050537109375,-0.03677177429199219,-0.4203195571899414,0.889622688293457,0.17487716674804688
298,476239904.0,-1.3407936096191406,-2.9653091430664062,9.204788208007812,0.033023834228515625,0.012783050537109375,-0.012783050537109375,-0.03677177429199219,-0.4203195571899414,0.889622688293457,0.17487716674804688
299,476239904.0,-1.3683271408081055,-2.997631072998047,9.14493179321289,0.033023834228515625,0.012783050537109375,-0.012783050537109375,-0.03677177429199219,-0.4203195571899414,0.889622688293457,0.17487716674804688
300,476239904.0,-1.3407936096191406,-2.9653091430664062,9.204788208007812,0.033023834228515625,0.012783050537109375,-0.012783050537109375,-0.03677177429199219,-0.4203195571899414,0.889622688293457,0.17487716674804688
301,476239936.0,-1.3719186782836914,-2.948549270629883,9.205986022949219,0.033023834228515625,0.012783050537109375,-0.012783050537109375,-0.03677177429199219,-0.4203195571899414,0.889622688293457,0.17487716674804688
302,476239936.0,-1.3719186782836914,-2.948549270629883,9.205986022949219,0.033023834228515625,0.012783050537109375,-0.012783050537109375,-0.03677177429199219,-0.4203195571899414,0.889622688293457,0.17487716674804688
303,476239968.0,-1.4365644454956055,-2.9581260681152344,9.262250900268555,0.033023834228515625,0.012783050537109375,-0.012783050537109375,-0.03677177429199219,-0.4203195571899414,0.889622688293457,0.17487716674804688
304,476239968.0,-1.3707218170166016,-2.9533376693725586,9.258659362792969,0.033023834228515625,0.012783050537109375,-0.012783050537109375,-0.03677177429199219,-0.4203195571899414,0.889622688293457,0.17487716674804688
305,476240000.0,-1.3563566207885742,-2.8970718383789062,9.317319869995117,0.033023834228515625,0.012783050537109375,-0.012783050537109375,-0.03677177429199219,-0.4203195571899414,0.889622688293457,0.17487716674804688
306,476240000.0,-1.4724788665771484,-2.7905263900756836,9.40590763092041,0.033023834228515625,0.012783050537109375,-0.012783050537109375,-0.03677177429199219,-0.4203195571899414,0.889622688293457,0.17487716674804688
307,476240032.0,-1.3994531631469727,-2.7043323516845703,9.42625904083252,0.033023834228515625,0.012783050537109375,-0.012783050537109375,-0.03677177429199219,-0.4203195571899414,0.889622688293457,0.17487716674804688
308,476240064.0,-1.3372020721435547,-2.821652412414551,9.390344619750977,-0.03728485107421875,0.009587287902832031,-0.0063915252685546875,-0.008675575256347656,-0.46123409271240234,0.8745174407958984,0.1498880386352539
309,476240160.0,-1.266571044921875,-3.0119972229003906,9.299362182617188,-0.0063915252685546875,0.022370338439941406,-0.00852203369140625,-0.008373260498046875,-0.46075916290283203,0.8746471405029297,0.15027713775634766
310,476240192.0,-1.351567268371582,-3.0048141479492188,9.313728332519531,0.052199363708496094,0.005326271057128906,0.0063915252685546875,-0.008373260498046875,-0.46075916290283203,0.8746471405029297,0.15027713775634766
311,476240192.0,-1.3431873321533203,-2.931788444519043,9.310136795043945,0.052199363708496094,0.005326271057128906,0.0063915252685546875,-0.008373260498046875,-0.46075916290283203,0.8746471405029297,0.15027713775634766
312,476240224.0,-1.389876365661621,-2.8264408111572266,9.311333656311035,0.042611122131347656,0.0021305084228515625,0.005326271057128906,-0.008373260498046875,-0.46075916290283203,0.8746471405029297,0.15027713775634766
313,476240256.0,-1.3491735458374023,-2.759401321411133,9.348444938659668,0.023435592651367188,0.0021305084228515625,-0.0010652542114257812,-0.008373260498046875,-0.46075916290283203,0.8746471405029297,0.15027713775634766
314,476240256.0,-1.3623418807983398,-2.784541130065918,9.316122055053711,0.023435592651367188,0.0021305084228515625,-0.0010652542114257812,-0.008373260498046875,-0.46075916290283203,0.8746471405029297,0.15027713775634766
315,476240288.0,-1.3791017532348633,-2.785737991333008,9.233519554138184,0.023435592651367188,0.0021305084228515625,-0.0010652542114257812,-0.008373260498046875,-0.46075916290283203,0.8746471405029297,0.15027713775634766
316,476240288.0,-1.3000907897949219,-2.770174980163574,9.326896667480469,0.023435592651367188,0.0021305084228515625,-0.0010652542114257812,-0.008373260498046875,-0.46075916290283203,0.8746471405029297,0.15027713775634766
317,476240320.0,-1.3204421997070312,-2.79172420501709,9.366402626037598,0.023435592651367188,0.0021305084228515625,-0.0010652542114257812,-0.008373260498046875,-0.46075916290283203,0.8746471405029297,0.15027713775634766
318,476240352.0,-1.347975730895996,-2.8515806198120117,9.238308906555176,0.0,0.025567054748535156,-0.03941535949707031,-0.008373260498046875,-0.46075916290283203,0.8746471405029297,0.15027713775634766
319,476240352.0,-1.3767070770263672,-2.8970718383789062,9.125777244567871,0.0,0.025567054748535156,-0.03941535949707031,-0.008373260498046875,-0.46075916290283203,0.8746471405029297,0.15027713775634766
320,476240384.0,-1.3946647644042969,-2.9210147857666016,9.198802947998047,0.01597881317138672,0.020239830017089844,-0.03515434265136719,-0.008373260498046875,-0.46075916290283203,0.8746471405029297,0.15027713775634766
321,476240416.0,-1.3563566207885742,-2.8851003646850586,9.182043075561523,-0.011717796325683594,-0.004261016845703125,-0.034089088439941406,-0.008373260498046875,-0.46075916290283203,0.8746471405029297,0.15027713775634766
322,476240416.0,-1.3623418807983398,-2.880311965942383,9.219154357910156,-0.011717796325683594,-0.004261016845703125,-0.034089088439941406,-0.008373260498046875,-0.46075916290283203,0.8746471405029297,0.15027713775634766
323,476240448.0,-1.3635387420654297,-2.971294403076172,9.141340255737305,0.00852203369140625,-0.01810932159423828,-0.03835010528564453,-0.008373260498046875,-0.46075916290283203,0.8746471405029297,0.15027713775634766
324,476240448.0,-1.3755102157592773,-2.9293947219848633,9.14493179321289,0.00852203369140625,-0.01810932159423828,-0.03835010528564453,-0.008373260498046875,-0.46075916290283203,0.8746471405029297,0.15027713775634766
325,476240448.0,-1.3755102157592773,-2.9293947219848633,9.14493179321289,0.00852203369140625,-0.01810932159423828,-0.03835010528564453,-0.008373260498046875,-0.46075916290283203,0.8746471405029297,0.15027713775634766
326,476240480.0,-1.2905139923095703,-2.8970718383789062,9.282602310180664,0.011717796325683594,-0.02769756317138672,-0.034089088439941406,-0.008373260498046875,-0.46075916290283203,0.8746471405029297,0.15027713775634766
327,476240480.0,-1.2905139923095703,-2.8970718383789062,9.282602310180664,0.011717796325683594,-0.02769756317138672,-0.034089088439941406,-0.008373260498046875,-0.46075916290283203,0.8746471405029297,0.15027713775634766
328,476240512.0,-1.3431873321533203,-2.932986259460449,9.204788208007812,-0.01597881317138672,-0.03515434265136719,-0.011717796325683594,-0.008373260498046875,-0.46075916290283203,0.8746471405029297,0.15027713775634766
329,476240512.0,-1.347975730895996,-2.9796743392944336,9.243097305297852,-0.01597881317138672,-0.03515434265136719,-0.011717796325683594,-0.008373260498046875,-0.46075916290283203,0.8746471405029297,0.15027713775634766
330,476240512.0,-1.3431873321533203,-2.932986259460449,9.204788208007812,-0.01597881317138672,-0.03515434265136719,-0.011717796325683594,-0.008373260498046875,-0.46075916290283203,0.8746471405029297,0.15027713775634766
331,476240512.0,-1.347975730895996,-2.9796743392944336,9.243097305297852,-0.01597881317138672,-0.03515434265136719,-0.011717796325683594,-0.008373260498046875,-0.46075916290283203,0.8746471405029297,0.15027713775634766
332,476240544.0,-1.3084707260131836,-3.000025749206543,9.276617050170898,0.0,-0.030893325805664062,-0.009587287902832031,-0.008373260498046875,-0.46075916290283203,0.8746471405029297,0.15027713775634766
333,476240544.0,-1.3084707260131836,-3.000025749206543,9.276617050170898,0.0,-0.030893325805664062,-0.009587287902832031,-0.008373260498046875,-0.46075916290283203,0.8746471405029297,0.15027713775634766
334,476240672.0,-1.2713594436645508,-2.907846450805664,9.30774211883545,0.01597881317138672,-0.021305084228515625,0.010652542114257812,-0.008373260498046875,-0.46075916290283203,0.8746471405029297,0.15027713775634766
335,476240672.0,-1.3132591247558594,-2.909043312072754,9.228731155395508,0.01597881317138672,-0.021305084228515625,0.010652542114257812,-0.008373260498046875,-0.46075916290283203,0.8746471405029297,0.15027713775634766
336,476240672.0,-1.2713594436645508,-2.907846450805664,9.30774211883545,0.01597881317138672,-0.021305084228515625,0.010652542114257812,-0.008373260498046875,-0.46075916290283203,0.8746471405029297,0.15027713775634766
337,476240672.0,-1.3132591247558594,-2.909043312072754,9.228731155395508,0.01597881317138672,-0.021305084228515625,0.010652542114257812,-0.008373260498046875,-0.46075916290283203,0.8746471405029297,0.15027713775634766
338,476240704.0,-1.2222766876220703,-2.8192577362060547,9.319713592529297,0.01597881317138672,-0.024501800537109375,0.00852203369140625,-0.008373260498046875,-0.46075916290283203,0.8746471405029297,0.15027713775634766
339,476240704.0,-1.2222766876220703,-2.8192577362060547,9.319713592529297,0.01597881317138672,-0.024501800537109375,0.00852203369140625,-0.008373260498046875,-0.46075916290283203,0.8746471405029297,0.15027713775634766
340,476240736.0,-1.230656623840332,-2.8288354873657227,9.324501991271973,-0.03728485107421875,-0.01810932159423828,0.0021305084228515625,-0.008373260498046875,-0.46075916290283203,0.8746471405029297,0.15027713775634766
341,476240736.0,-1.2689647674560547,-2.72348690032959,9.316122055053711,-0.03728485107421875,-0.01810932159423828,0.0021305084228515625,-0.008373260498046875,-0.46075916290283203,0.8746471405029297,0.15027713775634766
342,476240736.0,-1.230656623840332,-2.8288354873657227,9.324501991271973,-0.03728485107421875,-0.01810932159423828,0.0021305084228515625,-0.008373260498046875,-0.46075916290283203,0.8746471405029297,0.15027713775634766
343,476240736.0,-1.2689647674560547,-2.72348690032959,9.316122055053711,-0.03728485107421875,-0.01810932159423828,0.0021305084228515625,-0.008373260498046875,-0.46075916290283203,0.8746471405029297,0.15027713775634766
344,476240768.0,-1.2737541198730469,-2.748626708984375,9.313728332519531,-0.03728485107421875,-0.01810932159423828,0.0021305084228515625,-0.008373260498046875,-0.46075916290283203,0.8746471405029297,0.15027713775634766
345,476240768.0,-1.3994531631469727,-2.687572479248047,9.316122055053711,-0.03728485107421875,-0.01810932159423828,0.0021305084228515625,-0.008373260498046875,-0.46075916290283203,0.8746471405029297,0.15027713775634766
346,476240800.0,-1.3719186782836914,-2.6744041442871094,9.277813911437988,-0.03728485107421875,-0.01810932159423828,0.0021305084228515625,-0.008373260498046875,-0.46075916290283203,0.8746471405029297,0.15027713775634766
347,476240832.0,-1.3743133544921875,-2.7318668365478516,9.349641799926758,-0.03728485107421875,-0.01810932159423828,0.0021305084228515625,-0.008373260498046875,-0.46075916290283203,0.8746471405029297,0.15027713775634766
348,476240832.0,-1.3144559860229492,-2.7977094650268555,9.353233337402344,-0.03728485107421875,-0.01810932159423828,0.0021305084228515625,-0.008373260498046875,-0.46075916290283203,0.8746471405029297,0.15027713775634766
349,476240864.0,-1.2246713638305664,-2.850383758544922,9.37478256225586,0.019174575805664062,-0.040480613708496094,-0.09054946899414062,-0.008373260498046875,-0.46075916290283203,0.8746471405029297,0.15027713775634766
350,476240896.0,-1.1863622665405273,-2.873128890991211,9.319713592529297,0.020239830017089844,-0.03835010528564453,-0.0916147232055664,-0.008373260498046875,-0.46075916290283203,0.8746471405029297,0.15027713775634766
351,476240896.0,-1.079817771911621,-2.8839035034179688,9.328093528747559,0.020239830017089844,-0.03835010528564453,-0.0916147232055664,-0.008373260498046875,-0.46075916290283203,0.8746471405029297,0.15027713775634766
352,476240928.0,-1.0439033508300781,-3.093402862548828,9.340065002441406,0.025567054748535156,-0.0287628173828125,-0.0692434310913086,-0.008373260498046875,-0.46075916290283203,0.8746471405029297,0.15027713775634766
353,476240928.0,-1.1145343780517578,-3.1089649200439453,9.296968460083008,0.025567054748535156,-0.0287628173828125,-0.0692434310913086,-0.008373260498046875,-0.46075916290283203,0.8746471405029297,0.15027713775634766
354,476240960.0,-1.103759765625,-3.053896903991699,9.352036476135254,0.033023834228515625,-0.022370338439941406,-0.052199363708496094,-0.008373260498046875,-0.46075916290283203,0.8746471405029297,0.15027713775634766
355,476240992.0,-1.1336889266967773,-3.025165557861328,9.330488204956055,-0.031958580017089844,0.005326271057128906,-0.033023834228515625,-0.008373260498046875,-0.46075916290283203,0.8746471405029297,0.15027713775634766
356,476240992.0,-1.2055168151855469,-3.0491085052490234,9.279010772705078,-0.031958580017089844,0.005326271057128906,-0.033023834228515625,-0.008373260498046875,-0.46075916290283203,0.8746471405029297,0.15027713775634766
357,476241024.0,-1.2055168151855469,-3.142484664916992,9.275420188903809,-0.012783050537109375,0.0021305084228515625,-0.0063915252685546875,-0.008373260498046875,-0.46075916290283203,0.8746471405029297,0.15027713775634766
358,476241024.0,-1.260584831237793,-3.08382511138916,9.310136795043945,-0.012783050537109375,0.0021305084228515625,-0.0063915252685546875,-0.008373260498046875,-0.46075916290283203,0.8746471405029297,0.15027713775634766
359,476241056.0,-1.2115020751953125,-3.0179824829101562,9.274222373962402,-0.005326271057128906,-0.0063915252685546875,0.0021305084228515625,-0.008373260498046875,-0.46075916290283203,0.8746471405029297,0.15027713775634766
360,476241088.0,-1.2354450225830078,-2.9784774780273438,9.273025512695312,-0.025567054748535156,0.0021305084228515625,0.005326271057128906,-0.008373260498046875,-0.46075916290283203,0.8746471405029297,0.15027713775634766
361,476241088.0,-1.2522048950195312,-2.937774658203125,9.302953720092773,-0.025567054748535156,0.0021305084228515625,0.005326271057128906,-0.008373260498046875,-0.46075916290283203,0.8746471405029297,0.15027713775634766
362,476241120.0,-1.2138967514038086,-3.0143909454345703,9.293376922607422,-0.014913558959960938,0.0,0.007456779479980469,-0.008373260498046875,-0.46075916290283203,0.8746471405029297,0.15027713775634766
363,476241152.0,-1.2821340560913086,-2.9198179244995117,9.311333656311035,-0.0063915252685546875,-0.004261016845703125,0.010652542114257812,-0.008373260498046875,-0.46075916290283203,0.8746471405029297,0.15027713775634766
364,476241152.0,-1.1731939315795898,-2.9473514556884766,9.252674102783203,-0.0063915252685546875,-0.004261016845703125,0.010652542114257812,-0.008373260498046875,-0.46075916290283203,0.8746471405029297,0.15027713775634766
365,476241184.0,-1.2150936126708984,-2.9258031845092773,9.282602310180664,-0.030893325805664062,0.0,0.004261016845703125,-0.008373260498046875,-0.46075916290283203,0.8746471405029297,0.15027713775634766
366,476241184.0,-1.175588607788086,-2.9509429931640625,9.23711109161377,-0.030893325805664062,0.0,0.004261016845703125,-0.008373260498046875,-0.46075916290283203,0.8746471405029297,0.15027713775634766
367,476241216.0,-1.2498111724853516,-2.8671436309814453,9.282602310180664,0.0021305084228515625,-0.00852203369140625,0.007456779479980469,-0.008373260498046875,-0.46075916290283203,0.8746471405029297,0.15027713775634766
368,476241248.0,-1.204319953918457,-2.719895362854004,9.245491027832031,-0.0021305084228515625,-0.0170440673828125,-0.0031957626342773438,-0.015753746032714844,-0.45035839080810547,0.8785743713378906,0.15808868408203125
369,476241248.0,-1.2162914276123047,-2.7677812576293945,9.232322692871094,-0.0021305084228515625,-0.0170440673828125,-0.0031957626342773438,-0.015753746032714844,-0.45035839080810547,0.8785743713378906,0.15808868408203125
370,476241280.0,-1.1743907928466797,-2.853975296020508,9.227534294128418,-0.0021305084228515625,-0.0170440673828125,-0.0031957626342773438,-0.01618480682373047,-0.4497966766357422,0.8787899017333984,0.15851974487304688
371,476241312.0,-1.0822114944458008,-2.9868574142456055,9.28739070892334,-0.0021305084228515625,-0.0170440673828125,-0.0031957626342773438,-0.01640033721923828,-0.44940853118896484,0.8790054321289062,0.15830421447753906
372,476241312.0,-1.048691749572754,-2.876720428466797,9.329291343688965,-0.0021305084228515625,-0.0170440673828125,-0.0031957626342773438,-0.01640033721923828,-0.44940853118896484,0.8790054321289062,0.15830421447753906
373,476241344.0,-1.0139751434326172,-2.9880542755126953,9.295770645141602,0.007456779479980469,-0.031958580017089844,-0.04367637634277344,-0.017047882080078125,-0.4485454559326172,0.8795242309570312,0.15791606903076172
374,476241472.0,-1.1468572616577148,-2.9258031845092773,9.4071044921875,0.023435592651367188,-0.007456779479980469,-0.0170440673828125,-0.01799774169921875,-0.4475526809692383,0.8801708221435547,0.15731143951416016
375,476241472.0,-1.1899538040161133,-2.9772796630859375,9.330488204956055,0.023435592651367188,-0.007456779479980469,-0.0170440673828125,-0.01799774169921875,-0.4475526809692383,0.8801708221435547,0.15731143951416016
376,476241504.0,-1.2186851501464844,-3.0167856216430664,9.341261863708496,0.023435592651367188,-0.007456779479980469,-0.0170440673828125,-0.01799774169921875,-0.4475526809692383,0.8801708221435547,0.15731143951416016
377,476241504.0,-1.2282629013061523,-2.8898887634277344,9.366402626037598,0.023435592651367188,-0.007456779479980469,-0.0170440673828125,-0.01799774169921875,-0.4475526809692383,0.8801708221435547,0.15731143951416016
378,476241536.0,-1.2198820114135742,-2.869537353515625,9.329291343688965,0.023435592651367188,-0.007456779479980469,-0.0170440673828125,-0.01799774169921875,-0.4475526809692383,0.8801708221435547,0.15731143951416016
379,476241568.0,-1.2186851501464844,-2.9772796630859375,9.299362182617188,-0.01810932159423828,0.0170440673828125,-0.012783050537109375,-0.01799774169921875,-0.4475526809692383,0.8801708221435547,0.15731143951416016
380,476241568.0,-1.1564340591430664,-3.093402862548828,9.180846214294434,-0.01810932159423828,0.0170440673828125,-0.012783050537109375,-0.01799774169921875,-0.4475526809692383,0.8801708221435547,0.15731143951416016
381,476241568.0,-1.2186851501464844,-2.9772796630859375,9.299362182617188,-0.01810932159423828,0.0170440673828125,-0.012783050537109375,-0.01799774169921875,-0.4475526809692383,0.8801708221435547,0.15731143951416016
382,476241568.0,-1.1564340591430664,-3.093402862548828,9.180846214294434,-0.01810932159423828,0.0170440673828125,-0.012783050537109375,-0.01799774169921875,-0.4475526809692383,0.8801708221435547,0.15731143951416016
383,476241600.0,-1.1815738677978516,-3.057488441467285,9.174860000610352,0.010652542114257812,0.00852203369140625,-0.010652542114257812,-0.01799774169921875,-0.4475526809692383,0.8801708221435547,0.15731143951416016
384,476241600.0,-1.1815738677978516,-3.057488441467285,9.174860000610352,0.010652542114257812,0.00852203369140625,-0.010652542114257812,-0.01799774169921875,-0.4475526809692383,0.8801708221435547,0.15731143951416016
385,476241632.0,-1.1408710479736328,-3.0778398513793945,9.256265640258789,-0.004261016845703125,0.0031957626342773438,0.010652542114257812,-0.01799774169921875,-0.4475526809692383,0.8801708221435547,0.15731143951416016
386,476241632.0,-1.0977745056152344,-3.063473701477051,9.226337432861328,-0.004261016845703125,0.0031957626342773438,0.010652542114257812,-0.01799774169921875,-0.4475526809692383,0.8801708221435547,0.15731143951416016
387,476241632.0,-1.1408710479736328,-3.0778398513793945,9.256265640258789,-0.004261016845703125,0.0031957626342773438,0.010652542114257812,-0.01799774169921875,-0.4475526809692383,0.8801708221435547,0.15731143951416016
388,476241632.0,-1.0977745056152344,-3.063473701477051,9.226337432861328,-0.004261016845703125,0.0031957626342773438,0.010652542114257812,-0.01799774169921875,-0.4475526809692383,0.8801708221435547,0.15731143951416016
389,476241760.0,-1.0941829681396484,-2.9281978607177734,9.257462501525879,-0.01810932159423828,-0.010652542114257812,0.031958580017089844,-0.01769542694091797,-0.44858837127685547,0.879307746887207,0.15890884399414062
390,476241792.0,-1.116929054260254,-2.938971519470215,9.282602310180664,-0.0063915252685546875,-0.014913558959960938,0.031958580017089844,-0.01782512664794922,-0.44919300079345703,0.8790493011474609,0.15886497497558594
391,476241792.0,-1.1504487991333008,-2.8551721572875977,9.346051216125488,-0.0063915252685546875,-0.014913558959960938,0.031958580017089844,-0.01782512664794922,-0.44919300079345703,0.8790493011474609,0.15886497497558594
392,476241824.0,-1.1492509841918945,-2.8671436309814453,9.314925193786621,0.0021305084228515625,-0.024501800537109375,0.022370338439941406,-0.01791095733642578,-0.4494514465332031,0.8788766860961914,0.15877914428710938
393,476241824.0,-1.142068862915039,-2.8958749771118164,9.33527660369873,0.0021305084228515625,-0.024501800537109375,0.022370338439941406,-0.01791095733642578,-0.4494514465332031,0.8788766860961914,0.15877914428710938
394,476241856.0,-1.0965776443481445,-2.845595359802246,9.380767822265625,0.014913558959960938,-0.030893325805664062,0.01597881317138672,-0.01791095733642578,-0.4494514465332031,0.8788766860961914,0.15877914428710938
395,476241888.0,-1.109745979309082,-2.8527774810791016,9.414287567138672,-0.0031957626342773438,-0.025567054748535156,0.005326271057128906,-0.01791095733642578,-0.4494514465332031,0.8788766860961914,0.15877914428710938
396,476241888.0,-1.0834083557128906,-2.7941179275512695,9.464567184448242,-0.0031957626342773438,-0.025567054748535156,0.005326271057128906,-0.01791095733642578,-0.4494514465332031,0.8788766860961914,0.15877914428710938
397,476241920.0,-1.1217174530029297,-2.8922834396362305,9.42506217956543,0.005326271057128906,-0.0021305084228515625,-0.00852203369140625,-0.01791095733642578,-0.4494514465332031,0.8788766860961914,0.15877914428710938
398,476241920.0,-1.0881977081298828,-2.927000045776367,9.350839614868164,0.005326271057128906,-0.0021305084228515625,-0.00852203369140625,-0.01791095733642578,-0.4494514465332031,0.8788766860961914,0.15877914428710938
399,476241952.0,-1.054677963256836,-2.9461545944213867,9.368796348571777,0.005326271057128906,-0.0021305084228515625,-0.00852203369140625,-0.01791095733642578,-0.4494514465332031,0.8788766860961914,0.15877914428710938
400,476241984.0,-1.0702400207519531,-2.936577796936035,9.395133018493652,0.005326271057128906,-0.0021305084228515625,-0.00852203369140625,-0.01791095733642578,-0.4494514465332031,0.8788766860961914,0.15877914428710938
401,476241984.0,-1.0929861068725586,-2.934183120727539,9.377176284790039,0.005326271057128906,-0.0021305084228515625,-0.00852203369140625,-0.01791095733642578,-0.4494514465332031,0.8788766860961914,0.15877914428710938
402,476242016.0,-1.1312942504882812,-2.9916458129882812,9.294573783874512,0.005326271057128906,-0.0021305084228515625,-0.00852203369140625,-0.01791095733642578,-0.4494514465332031,0.8788766860961914,0.15877914428710938
403,476242048.0,-1.1181259155273438,-2.9856605529785156,9.268237113952637,0.005326271057128906,-0.0021305084228515625,-0.00852203369140625,-0.018083572387695312,-0.44988346099853516,0.8787899017333984,0.15808868408203125
404,476242144.0,-1.0762262344360352,-2.91263484954834,9.16648006439209,-0.004261016845703125,0.00852203369140625,-0.004261016845703125,-0.01795482635498047,-0.4498405456542969,0.8787469863891602,0.15864944458007812
405,476242176.0,-1.1492509841918945,-2.9102401733398438,9.183239936828613,-0.004261016845703125,0.00852203369140625,-0.004261016845703125,-0.01795482635498047,-0.4498405456542969,0.8787469863891602,0.15864944458007812
406,476242176.0,-1.1612224578857422,-2.9868574142456055,9.203591346740723,-0.004261016845703125,0.00852203369140625,-0.004261016845703125,-0.01795482635498047,-0.4498405456542969,0.8787469863891602,0.15864944458007812
407,476242208.0,-1.0846061706542969,-2.9509429931640625,9.290982246398926,-0.004261016845703125,0.00852203369140625,-0.004261016845703125,-0.01795482635498047,-0.4498405456542969,0.8787469863891602,0.15864944458007812
408,476242240.0,-1.0762262344360352,-2.964111328125,9.226337432861328,0.009587287902832031,-0.025567054748535156,-0.004261016845703125,-0.01795482635498047,-0.4498405456542969,0.8787469863891602,0.15864944458007812
409,476242240.0,-1.1480541229248047,-2.868340492248535,9.295770645141602,0.009587287902832031,-0.025567054748535156,-0.004261016845703125,-0.01795482635498047,-0.4498405456542969,0.8787469863891602,0.15864944458007812
410,476242272.0,-1.1504487991333008,-2.8815088272094727,9.37597942352295,0.004261016845703125,-0.024501800537109375,-0.009587287902832031,-0.01795482635498047,-0.4498405456542969,0.8787469863891602,0.15864944458007812
411,476242272.0,-1.1408710479736328,-2.936577796936035,9.379570960998535,0.004261016845703125,-0.024501800537109375,-0.009587287902832031,-0.01795482635498047,-0.4498405456542969,0.8787469863891602,0.15864944458007812
412,476242304.0,-1.0881977081298828,-2.9521398544311523,9.353233337402344,0.011717796325683594,-0.023435592651367188,-0.013848304748535156,-0.01795482635498047,-0.4498405456542969,0.8787469863891602,0.15864944458007812
413,476242336.0,-1.0606632232666016,-2.930591583251953,9.428653717041016,0.013848304748535156,-0.019174575805664062,-0.00852203369140625,-0.01795482635498047,-0.4498405456542969,0.8787469863891602,0.15864944458007812
414,476242336.0,-1.0929861068725586,-2.9557313919067383,9.42745590209961,0.013848304748535156,-0.019174575805664062,-0.00852203369140625,-0.01795482635498047,-0.4498405456542969,0.8787469863891602,0.15864944458007812
415,476242368.0,-1.1157312393188477,-2.91263484954834,9.402316093444824,0.013848304748535156,-0.019174575805664062,-0.00852203369140625,-0.01795482635498047,-0.4498405456542969,0.8787469863891602,0.15864944458007812
416,476242368.0,-1.0726346969604492,-2.9150285720825195,9.389147758483887,0.013848304748535156,-0.019174575805664062,-0.00852203369140625,-0.01795482635498047,-0.4498405456542969,0.8787469863891602,0.15864944458007812
417,476242400.0,-1.0654516220092773,-2.971294403076172,9.366402626037598,0.013848304748535156,-0.019174575805664062,-0.00852203369140625,-0.01795482635498047,-0.4498405456542969,0.8787469863891602,0.15864944458007812
418,476242432.0,-1.079817771911621,-2.995237350463867,9.368796348571777,0.014913558959960938,0.011717796325683594,0.00852203369140625,-0.01795482635498047,-0.4498405456542969,0.8787469863891602,0.15864944458007812
419,476242432.0,-1.116929054260254,-2.900663375854492,9.342459678649902,0.014913558959960938,0.011717796325683594,0.00852203369140625,-0.01795482635498047,-0.4498405456542969,0.8787469863891602,0.15864944458007812
420,476242464.0,-1.1384773254394531,-2.879115104675293,9.35562801361084,0.005326271057128906,0.012783050537109375,0.0063915252685546875,-0.01795482635498047,-0.4498405456542969,0.8787469863891602,0.15864944458007812
421,476242496.0,-1.0834083557128906,-2.8527774810791016,9.292180061340332,-0.0063915252685546875,0.020239830017089844,-0.007456779479980469,-0.01795482635498047,-0.4498405456542969,0.8787469863891602,0.15864944458007812
422,476242496.0,-1.103759765625,-2.8922834396362305,9.276617050170898,-0.0063915252685546875,0.020239830017089844,-0.007456779479980469,-0.01795482635498047,-0.4498405456542969,0.8787469863891602,0.15864944458007812
423,476242528.0,-1.106154441833496,-2.8970718383789062,9.281405448913574,0.0,0.012783050537109375,-0.01597881317138672,-0.01795482635498047,-0.4498405456542969,0.8787469863891602,0.15864944458007812
424,476242560.0,-1.0977745056152344,-2.8815088272094727,9.269433975219727,-0.01597881317138672,0.01597881317138672,-0.023435592651367188,-0.01795482635498047,-0.4498405456542969,0.8787469863891602,0.15864944458007812
425,476242560.0,-1.077423095703125,-2.9186201095581055,9.311333656311035,-0.01597881317138672,0.01597881317138672,-0.023435592651367188,-0.01795482635498047,-0.4498405456542969,0.8787469863891602,0.15864944458007812
426,476242592.0,-1.1205196380615234,-2.9940404891967773,9.290982246398926,0.011717796325683594,0.005326271057128906,-0.021305084228515625,-0.01795482635498047,-0.4498405456542969,0.8787469863891602,0.15864944458007812
427,476242592.0,-1.0714378356933594,-2.906648635864258,9.313728332519531,0.011717796325683594,0.005326271057128906,-0.021305084228515625,-0.01795482635498047,-0.4498405456542969,0.8787469863891602,0.15864944458007812
428,476242624.0,-1.0343265533447266,-2.875523567199707,9.33647346496582,-0.009587287902832031,0.014913558959960938,-0.019174575805664062,-0.01795482635498047,-0.4498405456542969,0.8787469863891602,0.15864944458007812
429,476242752.0,-1.1384773254394531,-2.936577796936035,9.438230514526367,-0.009587287902832031,0.014913558959960938,-0.019174575805664062,-0.017522811889648438,-0.4464740753173828,0.8800420761108398,0.16063499450683594
430,476242752.0,-1.166010856628418,-2.9258031845092773,9.447807312011719,-0.009587287902832031,0.014913558959960938,-0.019174575805664062,-0.017522811889648438,-0.4464740753173828,0.8800420761108398,0.16063499450683594
431,476242784.0,-1.107351303100586,-2.9293947219848633,9.401119232177734,-0.009587287902832031,0.014913558959960938,-0.019174575805664062,-0.017522811889648438,-0.4464740753173828,0.8800420761108398,0.16063499450683594
432,476242816.0,-1.1384773254394531,-3.057488441467285,9.317319869995117,-0.009587287902832031,0.014913558959960938,-0.019174575805664062,-0.017522811889648438,-0.4464740753173828,0.8800420761108398,0.16063499450683594
433,476242816.0,-1.1408710479736328,-3.091008186340332,9.290982246398926,-0.009587287902832031,0.014913558959960938,-0.019174575805664062,-0.017522811889648438,-0.4464740753173828,0.8800420761108398,0.16063499450683594
434,476242848.0,-1.1576309204101562,-3.0323486328125,9.290982246398926,-0.02982807159423828,0.09481048583984375,-0.05539512634277344,-0.017522811889648438,-0.4464740753173828,0.8800420761108398,0.16063499450683594
435,476242848.0,-1.1959400177001953,-3.062276840209961,9.270630836486816,-0.02982807159423828,0.09481048583984375,-0.05539512634277344,-0.017522811889648438,-0.4464740753173828,0.8800420761108398,0.16063499450683594
436,476242880.0,-1.1827716827392578,-3.0503053665161133,9.229928970336914,-0.024501800537109375,0.09694194793701172,-0.053264617919921875,-0.017522811889648438,-0.4464740753173828,0.8800420761108398,0.16063499450683594
437,476242912.0,-1.2115020751953125,-2.964111328125,9.176057815551758,-0.021305084228515625,0.08735370635986328,-0.06391716003417969,-0.017522811889648438,-0.4464740753173828,0.8800420761108398,0.16063499450683594
438,476242912.0,-1.230656623840332,-2.931788444519043,9.110215187072754,-0.021305084228515625,0.08735370635986328,-0.06391716003417969,-0.017522811889648438,-0.4464740753173828,0.8800420761108398,0.16063499450683594
439,476242944.0,-1.2976961135864258,-2.759401321411133,9.245491027832031,-0.03728485107421875,0.07989692687988281,-0.07989692687988281,-0.017522811889648438,-0.4464740753173828,0.8800420761108398,0.16063499450683594
440,476242976.0,-1.2917108535766602,-3.087416648864746,9.082680702209473,-0.04793834686279297,0.05006885528564453,-0.1491413116455078,-0.017522811889648438,-0.4464740753173828,0.8800420761108398,0.16063499450683594
441,476242976.0,-1.3156538009643555,-2.9904489517211914,8.907898902893066,-0.04793834686279297,0.05006885528564453,-0.1491413116455078,-0.017522811889648438,-0.4464740753173828,0.8800420761108398,0.16063499450683594
442,476243008.0,-1.2318534851074219,-3.029953956604004,8.965361595153809,-0.0031957626342773438,0.03835010528564453,-0.20879745483398438,-0.017522811889648438,-0.4464740753173828,0.8800420761108398,0.16063499450683594
443,476243008.0,-1.3264274597167969,-3.1053733825683594,8.888744354248047,-0.0031957626342773438,0.03835010528564453,-0.20879745483398438,-0.017522811889648438,-0.4464740753173828,0.8800420761108398,0.16063499450683594
444,476243040.0,-1.3180475234985352,-2.7091217041015625,9.016838073730469,-0.0031957626342773438,0.03835010528564453,-0.20879745483398438,-0.017522811889648438,-0.4464740753173828,0.8800420761108398,0.16063499450683594
445,476243040.0,-1.3180475234985352,-2.7091217041015625,9.016838073730469,-0.0031957626342773438,0.03835010528564453,-0.20879745483398438,-0.017522811889648438,-0.4464740753173828,0.8800420761108398,0.16063499450683594
446,476243072.0,-1.1157312393188477,-2.6624326705932617,9.182043075561523,-0.0031957626342773438,0.03835010528564453,-0.20879745483398438,-0.017522811889648438,-0.4464740753173828,0.8800420761108398,0.16063499450683594
447,476243072.0,-1.1288995742797852,-3.347195625305176,8.877969741821289,-0.0031957626342773438,0.03835010528564453,-0.20879745483398438,-0.017522811889648438,-0.4464740753173828,0.8800420761108398,0.16063499450683594
448,476243072.0,-1.1157312393188477,-2.6624326705932617,9.182043075561523,-0.0031957626342773438,0.03835010528564453,-0.20879745483398438,-0.017522811889648438,-0.4464740753173828,0.8800420761108398,0.16063499450683594
449,476243072.0,-1.1288995742797852,-3.347195625305176,8.877969741821289,-0.0031957626342773438,0.03835010528564453,-0.20879745483398438,-0.017522811889648438,-0.4464740753173828,0.8800420761108398,0.16063499450683594
450,476243104.0,-1.2067136764526367,-4.0606889724731445,8.382355690002441,-0.0031957626342773438,0.03835010528564453,-0.20879745483398438,-0.017522811889648438,-0.4464740753173828,0.8800420761108398,0.16063499450683594
451,476243104.0,-1.2067136764526367,-4.0606889724731445,8.382355690002441,-0.0031957626342773438,0.03835010528564453,-0.20879745483398438,-0.017522811889648438,-0.4464740753173828,0.8800420761108398,0.16063499450683594
452,476243136.0,-1.1492509841918945,-4.733480453491211,7.913077354431152,0.3526124954223633,-0.3675270080566406,0.1448802947998047,-0.017522811889648438,-0.4464740753173828,0.8800420761108398,0.16063499450683594
453,476243136.0,-1.1492509841918945,-4.733480453491211,7.913077354431152,0.3526124954223633,-0.3675270080566406,0.1448802947998047,-0.017522811889648438,-0.4464740753173828,0.8800420761108398,0.16063499450683594
454,476243136.0,-1.201925277709961,-5.594222068786621,7.640130043029785,0.3526124954223633,-0.3675270080566406,0.1448802947998047,-0.017522811889648438,-0.4464740753173828,0.8800420761108398,0.16063499450683594
455,476243168.0,-0.8834867477416992,-5.936603546142578,7.7550554275512695,0.7148141860961914,-0.7947111129760742,0.705225944519043,-0.017522811889648438,-0.4464740753173828,0.8800420761108398,0.16063499450683594
456,476243168.0,-0.4860372543334961,-5.724710464477539,7.917865753173828,0.7148141860961914,-0.7947111129760742,0.705225944519043,-0.017522811889648438,-0.4464740753173828,0.8800420761108398,0.16063499450683594
457,476243200.0,-0.49322032928466797,-5.511619567871094,8.315315246582031,0.8692817687988281,-0.9257421493530273,1.0589046478271484,-0.017522811889648438,-0.4464740753173828,0.8800420761108398,0.16063499450683594
458,476243232.0,-0.584202766418457,-5.474508285522461,8.443408966064453,0.9246768951416016,-1.0738191604614258,1.4147138595581055,-0.017522811889648438,-0.4464740753173828,0.8800420761108398,0.16063499450683594
459,476243328.0,0.45371437072753906,-1.8723220825195312,12.763877868652344,1.591552734375,-0.7190752029418945,2.8123836517333984,-0.017522811889648438,-0.4464740753173828,0.8800420761108398,0.16063499450683594
460,476243360.0,0.6069478988647461,-0.33280372619628906,13.599479675292969,1.6916913986206055,-0.43037986755371094,2.8528642654418945,-0.017522811889648438,-0.4464740753173828,0.8800420761108398,0.16063499450683594
461,476243392.0,1.1229143142700195,0.6213140487670898,14.193260192871094,1.5840959548950195,0.4676647186279297,2.5609731674194336,-0.017522811889648438,-0.4464740753173828,0.8800420761108398,0.16063499450683594
462,476243392.0,1.5718412399291992,2.2949113845825195,14.935484886169434,1.5840959548950195,0.4676647186279297,2.5609731674194336,-0.017522811889648438,-0.4464740753173828,0.8800420761108398,0.16063499450683594
463,476243424.0,2.030344009399414,3.4980344772338867,14.872036933898926,1.3976688385009766,1.0482521057128906,2.214752197265625,-0.017522811889648438,-0.4464740753173828,0.8800420761108398,0.16063499450683594
464,476243456.0,1.850773811340332,4.417436599731445,14.479375839233398,0.7126827239990234,2.118875503540039,1.4019298553466797,-0.017522811889648438,-0.4464740753173828,0.8800420761108398,0.16063499450683594
465,476243456.0,1.9022512435913086,4.916642189025879,13.952635765075684,0.7126827239990234,2.118875503540039,1.4019298553466797,-0.017522811889648438,-0.4464740753173828,0.8800420761108398,0.16063499450683594
466,476243488.0,1.674795150756836,4.946571350097656,12.573533058166504,0.31426239013671875,2.8379507064819336,0.5443658828735352,-0.017522811889648438,-0.4464740753173828,0.8800420761108398,0.16063499450683594
467,476243488.0,1.322835922241211,5.2027587890625,11.702016830444336,0.31426239013671875,2.8379507064819336,0.5443658828735352,-0.017522811889648438,-0.4464740753173828,0.8800420761108398,0.16063499450683594
468,476243520.0,1.1480541229248047,5.473311424255371,10.847261428833008,0.16831684112548828,3.010528564453125,0.13422679901123047,-0.017522811889648438,-0.4464740753173828,0.8800420761108398,0.16063499450683594
469,476243552.0,0.9062328338623047,5.176421165466309,9.410696029663086,0.16831684112548828,3.010528564453125,0.13422679901123047,-0.017522811889648438,-0.4464740753173828,0.8800420761108398,0.16063499450683594
470,476243552.0,0.3866748809814453,4.913051605224609,8.491294860839844,0.16831684112548828,3.010528564453125,0.13422679901123047,-0.017522811889648438,-0.4464740753173828,0.8800420761108398,0.16063499450683594
471,476243584.0,-0.0814046859741211,4.951359748840332,7.575484275817871,0.16831684112548828,3.010528564453125,0.13422679901123047,-0.017522811889648438,-0.4464740753173828,0.8800420761108398,0.16063499450683594
472,476243616.0,-0.6512422561645508,5.191984176635742,6.896707534790039,0.16831684112548828,3.010528564453125,0.13422679901123047,-0.017522811889648438,-0.4464740753173828,0.8800420761108398,0.16063499450683594
473,476243616.0,-0.7613792419433594,4.149277687072754,6.301730155944824,0.16831684112548828,3.010528564453125,0.13422679901123047,-0.017522811889648438,-0.4464740753173828,0.8800420761108398,0.16063499450683594
474,476243648.0,-1.547898292541504,3.307689666748047,4.644892692565918,0.4442281723022461,1.9388399124145508,-2.293583869934082,-0.017522811889648438,-0.4464740753173828,0.8800420761108398,0.16063499450683594
475,476243648.0,-1.8759136199951172,2.8958749771118164,3.622537612915039,0.4442281723022461,1.9388399124145508,-2.293583869934082,-0.017522811889648438,-0.4464740753173828,0.8800420761108398,0.16063499450683594
476,476243648.0,-1.547898292541504,3.307689666748047,4.644892692565918,0.4442281723022461,1.9388399124145508,-2.293583869934082,-0.017522811889648438,-0.4464740753173828,0.8800420761108398,0.16063499450683594
477,476243648.0,-1.8759136199951172,2.8958749771118164,3.622537612915039,0.4442281723022461,1.9388399124145508,-2.293583869934082,-0.017522811889648438,-0.4464740753173828,0.8800420761108398,0.16063499450683594
478,476243680.0,-2.160832405090332,2.7246837615966797,3.5088090896606445,0.6711368560791016,1.5382881164550781,-2.619565010070801,-0.017522811889648438,-0.4464740753173828,0.8800420761108398,0.16063499450683594
479,476243680.0,-2.160832405090332,2.7246837615966797,3.5088090896606445,0.6711368560791016,1.5382881164550781,-2.619565010070801,-0.017522811889648438,-0.4464740753173828,0.8800420761108398,0.16063499450683594
480,476243712.0,-2.3655433654785156,1.6700057983398438,2.8228492736816406,0.30893516540527344,0.6242637634277344,-2.994548797607422,-0.017522811889648438,-0.4464740753173828,0.8800420761108398,0.16063499450683594
481,476243712.0,-2.7977094650268555,0.7757444381713867,2.6552505493164062,0.30893516540527344,0.6242637634277344,-2.994548797607422,-0.017522811889648438,-0.4464740753173828,0.8800420761108398,0.16063499450683594
482,476243712.0,-2.3655433654785156,1.6700057983398438,2.8228492736816406,0.30893516540527344,0.6242637634277344,-2.994548797607422,-0.017522811889648438,-0.4464740753173828,0.8800420761108398,0.16063499450683594
483,476243712.0,-2.7977094650268555,0.7757444381713867,2.6552505493164062,0.30893516540527344,0.6242637634277344,-2.994548797607422,-0.017522811889648438,-0.4464740753173828,0.8800420761108398,0.16063499450683594
484,476243744.0,-2.782146453857422,-0.19273853302001953,2.7402467727661133,0.30893516540527344,0.6242637634277344,-2.994548797607422,-0.017522811889648438,-0.4464740753173828,0.8800420761108398,0.16063499450683594
485,476243776.0,-2.7031354904174805,-0.8691215515136719,2.5271568298339844,0.30893516540527344,0.6242637634277344,-2.994548797607422,-0.017522811889648438,-0.4464740753173828,0.8800420761108398,0.16063499450683594
486,476243776.0,-2.660038948059082,-1.7645797729492188,2.8946781158447266,0.30893516540527344,0.6242637634277344,-2.994548797607422,-0.017522811889648438,-0.4464740753173828,0.8800420761108398,0.16063499450683594
487,476243808.0,-2.2937145233154297,-3.345998764038086,3.1951589584350586,0.30893516540527344,0.6242637634277344,-2.994548797607422,-0.017522811889648438,-0.4464740753173828,0.8800420761108398,0.16063499450683594
488,476243808.0,-1.765777587890625,-4.345607757568359,4.166037559509277,0.30893516540527344,0.6242637634277344,-2.994548797607422,-0.017522811889648438,-0.4464740753173828,0.8800420761108398,0.16063499450683594
489,476243936.0,-1.0403118133544922,-9.316122055053711,7.5694990158081055,-0.2940216064453125,-2.511969566345215,-0.7371854782104492,-0.017522811889648438,-0.4464740753173828,0.8800420761108398,0.16063499450683594
490,476243968.0,-0.8092641830444336,-9.469355583190918,8.600234031677246,-0.08735370635986328,-2.1487035751342773,0.4740562438964844,-0.017522811889648438,-0.4464740753173828,0.8800420761108398,0.16063499450683594
491,476243968.0,-1.4485359191894531,-10.079895973205566,10.204398155212402,-0.08735370635986328,-2.1487035751342773,0.4740562438964844,-0.017522811889648438,-0.4464740753173828,0.8800420761108398,0.16063499450683594
492,476244000.0,-1.9082365036010742,-9.8069486618042,11.239922523498535,0.14807605743408203,-2.0624141693115234,1.0525131225585938,-0.017522811889648438,-0.4464740753173828,0.8800420761108398,0.16063499450683594
493,476244032.0,-2.2051267623901367,-7.23549747467041,13.166115760803223,-0.12037849426269531,-1.784372329711914,1.545745849609375,-0.017522811889648438,-0.4464740753173828,0.8800420761108398,0.16063499450683594
494,476244032.0,-2.2386465072631836,-5.037553787231445,13.865243911743164,-0.12037849426269531,-1.784372329711914,1.545745849609375,-0.017522811889648438,-0.4464740753173828,0.8800420761108398,0.16063499450683594
495,476244064.0,-2.6037731170654297,-5.01361083984375,12.483747482299805,0.3217191696166992,-1.2719640731811523,1.7769145965576172,-0.043590545654296875,-0.42101001739501953,0.88970947265625,0.1710796356201172
496,476244064.0,-1.8088741302490234,-5.795341491699219,12.101861000061035,0.3217191696166992,-1.2719640731811523,1.7769145965576172,-0.043590545654296875,-0.42101001739501953,0.88970947265625,0.1710796356201172
497,476244096.0,-1.0331287384033203,-3.0203771591186523,13.820950508117676,0.9278736114501953,-1.1856746673583984,1.7374992370605469,-0.052567481994628906,-0.4565725326538086,0.8754673004150391,0.14958667755126953
498,476244128.0,-0.3890695571899414,-0.6201162338256836,13.689265251159668,0.9907255172729492,-0.9449176788330078,1.7374992370605469,-0.05338764190673828,-0.47353363037109375,0.8681726455688477,0.1385812759399414
499,476244128.0,-0.173583984375,-1.1564340591430664,12.154535293579102,0.9907255172729492,-0.9449176788330078,1.7374992370605469,-0.05338764190673828,-0.47353363037109375,0.8681726455688477,0.1385812759399414
500,476244160.0,-0.5171632766723633,-1.0331287384033203,11.67687702178955,0.9907255172729492,-0.9449176788330078,1.7374992370605469,-0.05338764190673828,-0.47353363037109375,0.8681726455688477,0.1385812759399414
501,476244192.0,-0.040701866149902344,-0.3890695571899414,11.964190483093262,0.9907255172729492,-0.9449176788330078,1.7374992370605469,-0.05338764190673828,-0.47353363037109375,0.8681726455688477,0.1385812759399414
502,476244192.0,0.2310466766357422,0.3735065460205078,11.808562278747559,0.9907255172729492,-0.9449176788330078,1.7374992370605469,-0.05338764190673828,-0.47353363037109375,0.8681726455688477,0.1385812759399414
503,476244224.0,0.17717552185058594,0.12929058074951172,10.600650787353516,0.019174575805664062,0.1033334732055664,0.6008272171020508,-0.05338764190673828,-0.47353363037109375,0.8681726455688477,0.1385812759399414
504,476244352.0,-0.1316843032836914,-1.8328170776367188,8.907898902893066,0.10759449005126953,0.0031957626342773438,-0.05859088897705078,-0.05338764190673828,-0.47353363037109375,0.8681726455688477,0.1385812759399414
505,476244352.0,-0.02035045623779297,-1.5838127136230469,9.192817687988281,0.10759449005126953,0.0031957626342773438,-0.05859088897705078,-0.05338764190673828,-0.47353363037109375,0.8681726455688477,0.1385812759399414
506,476244352.0,-0.1316843032836914,-1.8328170776367188,8.907898902893066,0.10759449005126953,0.0031957626342773438,-0.05859088897705078,-0.05338764190673828,-0.47353363037109375,0.8681726455688477,0.1385812759399414
507,476244352.0,-0.02035045623779297,-1.5838127136230469,9.192817687988281,0.10759449005126953,0.0031957626342773438,-0.05859088897705078,-0.05338764190673828,-0.47353363037109375,0.8681726455688477,0.1385812759399414
508,476244352.0,-0.1316843032836914,-1.8328170776367188,8.907898902893066,0.10759449005126953,0.0031957626342773438,-0.05859088897705078,-0.05338764190673828,-0.47353363037109375,0.8681726455688477,0.1385812759399414
509,476244352.0,-0.02035045623779297,-1.5838127136230469,9.192817687988281,0.10759449005126953,0.0031957626342773438,-0.05859088897705078,-0.05338764190673828,-0.47353363037109375,0.8681726455688477,0.1385812759399414
510,476244384.0,-0.12091064453125,-1.8364086151123047,9.409499168395996,-0.03941535949707031,0.021305084228515625,-0.09267997741699219,-0.05338764190673828,-0.47353363037109375,0.8681726455688477,0.1385812759399414
511,476244384.0,-0.29569244384765625,-2.018373489379883,9.380767822265625,-0.03941535949707031,0.021305084228515625,-0.09267997741699219,-0.05338764190673828,-0.47353363037109375,0.8681726455688477,0.1385812759399414
512,476244384.0,-0.12091064453125,-1.8364086151123047,9.409499168395996,-0.03941535949707031,0.021305084228515625,-0.09267997741699219,-0.05338764190673828,-0.47353363037109375,0.8681726455688477,0.1385812759399414
513,476244384.0,-0.29569244384765625,-2.018373489379883,9.380767822265625,-0.03941535949707031,0.021305084228515625,-0.09267997741699219,-0.05338764190673828,-0.47353363037109375,0.8681726455688477,0.1385812759399414
514,476244384.0,-0.12091064453125,-1.8364086151123047,9.409499168395996,-0.03941535949707031,0.021305084228515625,-0.09267997741699219,-0.05338764190673828,-0.47353363037109375,0.8681726455688477,0.1385812759399414
515,476244384.0,-0.29569244384765625,-2.018373489379883,9.380767822265625,-0.03941535949707031,0.021305084228515625,-0.09267997741699219,-0.05338764190673828,-0.47353363037109375,0.8681726455688477,0.1385812759399414
516,476244416.0,-0.2705526351928711,-2.390683174133301,9.350839614868164,-0.11398601531982422,0.01810932159423828,-0.10759449005126953,-0.05338764190673828,-0.47353363037109375,0.8681726455688477,0.1385812759399414
517,476244416.0,-0.2705526351928711,-2.390683174133301,9.350839614868164,-0.11398601531982422,0.01810932159423828,-0.10759449005126953,-0.05338764190673828,-0.47353363037109375,0.8681726455688477,0.1385812759399414
518,476244416.0,-0.2705526351928711,-2.390683174133301,9.350839614868164,-0.11398601531982422,0.01810932159423828,-0.10759449005126953,-0.05338764190673828,-0.47353363037109375,0.8681726455688477,0.1385812759399414
519,476244544.0,-0.6296939849853516,-2.431385040283203,9.59744930267334,-0.019174575805664062,-0.01597881317138672,-0.08202743530273438,-0.05338764190673828,-0.47353363037109375,0.8681726455688477,0.1385812759399414
520,476244544.0,-0.7194786071777344,-2.318854331970215,9.755472183227539,-0.019174575805664062,-0.01597881317138672,-0.08202743530273438,-0.05338764190673828,-0.47353363037109375,0.8681726455688477,0.1385812759399414
521,476244544.0,-0.7110986709594727,-2.3619518280029297,9.669278144836426,-0.019174575805664062,-0.01597881317138672,-0.08202743530273438,-0.05338764190673828,-0.47353363037109375,0.8681726455688477,0.1385812759399414
522,476244576.0,-0.7230701446533203,-2.3344173431396484,9.61540699005127,-0.019174575805664062,-0.01597881317138672,-0.08202743530273438,-0.05338764190673828,-0.47353363037109375,0.8681726455688477,0.1385812759399414
523,476244576.0,-0.6859588623046875,-2.3332204818725586,9.683643341064453,-0.019174575805664062,-0.01597881317138672,-0.08202743530273438,-0.05338764190673828,-0.47353363037109375,0.8681726455688477,0.1385812759399414
524,476244576.0,-0.773350715637207,-2.317657470703125,9.66688346862793,-0.019174575805664062,-0.01597881317138672,-0.08202743530273438,-0.05338764190673828,-0.47353363037109375,0.8681726455688477,0.1385812759399414
525,476244608.0,-0.7769412994384766,-2.230266571044922,9.726740837097168,-0.019174575805664062,-0.01597881317138672,-0.08202743530273438,-0.05338764190673828,-0.47353363037109375,0.8681726455688477,0.1385812759399414
526,476244608.0,-0.6703968048095703,-2.253011703491211,9.842863082885742,-0.019174575805664062,-0.01597881317138672,-0.08202743530273438,-0.05338764190673828,-0.47353363037109375,0.8681726455688477,0.1385812759399414
527,476244608.0,-0.7386331558227539,-2.1955490112304688,9.815328598022461,-0.019174575805664062,-0.01597881317138672,-0.08202743530273438,-0.05338764190673828,-0.47353363037109375,0.8681726455688477,0.1385812759399414
528,476244640.0,-0.74102783203125,-2.3380088806152344,9.745894432067871,-0.019174575805664062,-0.01597881317138672,-0.08202743530273438,-0.05338764190673828,-0.47353363037109375,0.8681726455688477,0.1385812759399414
529,476244640.0,-0.678776741027832,-2.3356142044067383,9.794977188110352,-0.019174575805664062,-0.01597881317138672,-0.08202743530273438,-0.05338764190673828,-0.47353363037109375,0.8681726455688477,0.1385812759399414
530,476244640.0,-0.767364501953125,-2.3344173431396484,9.721952438354492,-0.019174575805664062,-0.01597881317138672,-0.08202743530273438,-0.05338764190673828,-0.47353363037109375,0.8681726455688477,0.1385812759399414
531,476244672.0,-0.7565898895263672,-2.3978652954101562,9.683643341064453,-0.019174575805664062,-0.01597881317138672,-0.08202743530273438,-0.05338764190673828,-0.47353363037109375,0.8681726455688477,0.1385812759399414
532,476244672.0,-0.7541961669921875,-2.4206113815307617,9.626180648803711,-0.019174575805664062,-0.01597881317138672,-0.08202743530273438,-0.05338764190673828,-0.47353363037109375,0.8681726455688477,0.1385812759399414
533,476244672.0,-0.773350715637207,-2.2649831771850586,9.651320457458496,-0.019174575805664062,-0.01597881317138672,-0.08202743530273438,-0.05338764190673828,-0.47353363037109375,0.8681726455688477,0.1385812759399414
534,476244704.0,-0.7877159118652344,-2.315262794494629,9.663291931152344,-0.019174575805664062,-0.01597881317138672,-0.08202743530273438,-0.05338764190673828,-0.47353363037109375,0.8681726455688477,0.1385812759399414
535,476244736.0,-0.8332071304321289,-2.378711700439453,9.54597282409668,-0.014913558959960938,0.0862884521484375,-0.033023834228515625,-0.05338764190673828,-0.47353363037109375,0.8681726455688477,0.1385812759399414
536,476244864.0,-0.7290563583374023,-2.502017021179199,9.347248077392578,-0.019174575805664062,0.04793834686279297,-0.0063915252685546875,-0.05338764190673828,-0.47353363037109375,0.8681726455688477,0.1385812759399414
537,476244896.0,-0.7817306518554688,-2.3990631103515625,9.30534839630127,0.013848304748535156,0.031958580017089844,-0.004261016845703125,-0.05338764190673828,-0.47353363037109375,0.8681726455688477,0.1385812759399414
538,476244896.0,-0.7518014907836914,-2.351177215576172,9.290982246398926,0.013848304748535156,0.031958580017089844,-0.004261016845703125,-0.05338764190673828,-0.47353363037109375,0.8681726455688477,0.1385812759399414
539,476244928.0,-0.7661676406860352,-2.320052146911621,9.304150581359863,-0.010652542114257812,0.023435592651367188,0.004261016845703125,-0.05338764190673828,-0.47353363037109375,0.8681726455688477,0.1385812759399414
540,476244960.0,-0.8583469390869141,-2.2350549697875977,9.372387886047363,-0.01810932159423828,0.011717796325683594,-0.00852203369140625,-0.05338764190673828,-0.47353363037109375,0.8681726455688477,0.1385812759399414
541,476245056.0,-0.8415870666503906,-2.249420166015625,9.457385063171387,-0.01810932159423828,0.011717796325683594,-0.00852203369140625,-0.03362083435058594,-0.5243749618530273,0.8416738510131836,0.12442493438720703
542,476245056.0,-0.8415870666503906,-2.249420166015625,9.457385063171387,-0.01810932159423828,0.011717796325683594,-0.00852203369140625,-0.03362083435058594,-0.5243749618530273,0.8416738510131836,0.12442493438720703
543,476245056.0,-0.8415870666503906,-2.249420166015625,9.457385063171387,-0.01810932159423828,0.011717796325683594,-0.00852203369140625,-0.03362083435058594,-0.5243749618530273,0.8416738510131836,0.12442493438720703
544,476245088.0,-0.7362394332885742,-2.249420166015625,9.57590103149414,-0.01810932159423828,0.011717796325683594,-0.00852203369140625,-0.03362083435058594,-0.5243749618530273,0.8416738510131836,0.12442493438720703
545,476245088.0,-0.7362394332885742,-2.249420166015625,9.57590103149414,-0.01810932159423828,0.011717796325683594,-0.00852203369140625,-0.03362083435058594,-0.5243749618530273,0.8416738510131836,0.12442493438720703
546,476245088.0,-0.7362394332885742,-2.249420166015625,9.57590103149414,-0.01810932159423828,0.011717796325683594,-0.00852203369140625,-0.03362083435058594,-0.5243749618530273,0.8416738510131836,0.12442493438720703
547,476245120.0,-0.7266616821289062,-2.375120162963867,9.555549621582031,-0.01810932159423828,0.011717796325683594,-0.00852203369140625,-0.03362083435058594,-0.5243749618530273,0.8416738510131836,0.12442493438720703
548,476245120.0,-0.731450080871582,-2.4984254837036133,9.502876281738281,-0.01810932159423828,0.011717796325683594,-0.00852203369140625,-0.03362083435058594,-0.5243749618530273,0.8416738510131836,0.12442493438720703
549,476245120.0,-0.7266616821289062,-2.375120162963867,9.555549621582031,-0.01810932159423828,0.011717796325683594,-0.00852203369140625,-0.03362083435058594,-0.5243749618530273,0.8416738510131836,0.12442493438720703
550,476245120.0,-0.731450080871582,-2.4984254837036133,9.502876281738281,-0.01810932159423828,0.011717796325683594,-0.00852203369140625,-0.03362083435058594,-0.5243749618530273,0.8416738510131836,0.12442493438720703
551,476245120.0,-0.7266616821289062,-2.375120162963867,9.555549621582031,-0.01810932159423828,0.011717796325683594,-0.00852203369140625,-0.03362083435058594,-0.5243749618530273,0.8416738510131836,0.12442493438720703
552,476245120.0,-0.731450080871582,-2.4984254837036133,9.502876281738281,-0.01810932159423828,0.011717796325683594,-0.00852203369140625,-0.03362083435058594,-0.5243749618530273,0.8416738510131836,0.12442493438720703
553,476245152.0,-0.7541961669921875,-2.3846969604492188,9.635758399963379,-0.01810932159423828,0.011717796325683594,-0.00852203369140625,-0.03362083435058594,-0.5243749618530273,0.8416738510131836,0.12442493438720703
554,476245152.0,-0.7541961669921875,-2.3846969604492188,9.635758399963379,-0.01810932159423828,0.011717796325683594,-0.00852203369140625,-0.03362083435058594,-0.5243749618530273,0.8416738510131836,0.12442493438720703
555,476245152.0,-0.7541961669921875,-2.3846969604492188,9.635758399963379,-0.01810932159423828,0.011717796325683594,-0.00852203369140625,-0.03362083435058594,-0.5243749618530273,0.8416738510131836,0.12442493438720703
