,timestamp,accel_x,accel_y,accel_z,gyro_x,gyro_y,gyro_z,ori_scalar,ori_x,ori_y,ori_z
0,476551360.0,0.16759872436523438,0.14605045318603516,9.745894432067871,-0.0745706558227539,-0.009587287902832031,-0.10652923583984375,-0.0036258697509765625,-0.7591991424560547,0.6508703231811523,-0.0022449493408203125
1,476551392.0,0.12809276580810547,0.13767051696777344,9.824905395507812,-0.0745706558227539,-0.009587287902832031,-0.10652923583984375,-0.0036258697509765625,-0.7591991424560547,0.6508703231811523,-0.0022449493408203125
2,476551392.0,0.07422161102294922,0.27174949645996094,9.845256805419922,-0.0745706558227539,-0.009587287902832031,-0.10652923583984375,-0.0036258697509765625,-0.7591991424560547,0.6508703231811523,-0.0022449493408203125
3,476551424.0,0.03591346740722656,0.15443038940429688,9.687234878540039,-0.0745706558227539,-0.009587287902832031,-0.10652923583984375,-0.0036258697509765625,-0.7591991424560547,0.6508703231811523,-0.0022449493408203125
4,476551424.0,-0.12450218200683594,-0.038308143615722656,9.610618591308594,-0.0745706558227539,-0.009587287902832031,-0.10652923583984375,-0.0036258697509765625,-0.7591991424560547,0.6508703231811523,-0.0022449493408203125
5,476551456.0,-0.09098243713378906,-0.023941993713378906,9.61780071258545,-0.0745706558227539,-0.009587287902832031,-0.10652923583984375,-0.0036258697509765625,-0.7591991424560547,0.6508703231811523,-0.0022449493408203125
6,476551488.0,0.1843585968017578,0.0035905838012695312,9.703994750976562,-0.0745706558227539,-0.009587287902832031,-0.10652923583984375,-0.0036258697509765625,-0.7591991424560547,0.6508703231811523,-0.0022449493408203125
7,476551488.0,0.0682363510131836,-0.008379936218261719,9.703994750976562,-0.0745706558227539,-0.009587287902832031,-0.10652923583984375,-0.0036258697509765625,-0.7591991424560547,0.6508703231811523,-0.0022449493408203125
8,476551520.0,-0.08739089965820312,-0.08379936218261719,9.823708534240723,-0.0745706558227539,-0.009587287902832031,-0.10652923583984375,-0.0036258697509765625,-0.7591991424560547,0.6508703231811523,-0.0022449493408203125
9,476551552.0,0.22027301788330078,-0.0682363510131836,9.80575180053711,-0.0745706558227539,-0.009587287902832031,-0.10652923583984375,-0.0036258697509765625,-0.7591991424560547,0.6508703231811523,-0.0022449493408203125
10,476551552.0,0.33040904998779297,0.02154827117919922,9.829694747924805,-0.0745706558227539,-0.009587287902832031,-0.10652923583984375,-0.0036258697509765625,-0.7591991424560547,0.6508703231811523,-0.0022449493408203125
11,476551584.0,0.06943321228027344,-0.019153594970703125,9.841665267944336,-0.0745706558227539,-0.009587287902832031,-0.10652923583984375,-0.0036258697509765625,-0.7591991424560547,0.6508703231811523,-0.0022449493408203125
12,476551584.0,0.10654449462890625,-0.2502012252807617,9.809343338012695,-0.0745706558227539,-0.009587287902832031,-0.10652923583984375,-0.0036258697509765625,-0.7591991424560547,0.6508703231811523,-0.0022449493408203125
13,476551616.0,0.25858116149902344,-0.009576797485351562,9.95539379119873,-0.0745706558227539,-0.009587287902832031,-0.10652923583984375,-0.0036258697509765625,-0.7591991424560547,0.6508703231811523,-0.0022449493408203125
14,476551648.0,0.22027301788330078,0.1077423095703125,9.941027641296387,-0.05859088897705078,0.005326271057128906,-0.04900360107421875,-0.0038843154907226562,-0.7588968276977539,0.6511726379394531,-0.0024175643920898438
15,476551840.0,0.16520404815673828,-0.2262582778930664,9.772232055664062,-0.07670116424560547,0.03515434265136719,-0.024501800537109375,-0.00604248046875,-0.7577314376831055,0.6525106430053711,-0.00043201446533203125
16,476551840.0,0.4261808395385742,-0.22027301788330078,9.866806030273438,-0.07670116424560547,0.03515434265136719,-0.024501800537109375,-0.00604248046875,-0.7577314376831055,0.6525106430053711,-0.00043201446533203125
17,476551872.0,0.3890695571899414,-0.37470340728759766,9.583084106445312,-0.07670116424560547,0.03515434265136719,-0.024501800537109375,-0.00604248046875,-0.7577314376831055,0.6525106430053711,-0.00043201446533203125
18,476551872.0,0.01795673370361328,-0.42737770080566406,9.516044616699219,-0.07670116424560547,0.03515434265136719,-0.024501800537109375,-0.00604248046875,-0.7577314376831055,0.6525106430053711,-0.00043201446533203125
19,476551904.0,0.10295295715332031,-0.4860372543334961,9.621392250061035,-0.07670116424560547,0.03515434265136719,-0.024501800537109375,-0.00604248046875,-0.7577314376831055,0.6525106430053711,-0.00043201446533203125
20,476551936.0,0.2310466766357422,-0.41181468963623047,9.689629554748535,-0.07670116424560547,0.03515434265136719,-0.024501800537109375,-0.00604248046875,-0.7577314376831055,0.6525106430053711,-0.00043201446533203125
21,476551936.0,0.08379936218261719,-0.41660308837890625,9.557944297790527,-0.07670116424560547,0.03515434265136719,-0.024501800537109375,-0.00604248046875,-0.7577314376831055,0.6525106430053711,-0.00043201446533203125
22,476552160.0,0.05746173858642578,-0.45610904693603516,9.984125137329102,0.12783527374267578,0.09907245635986328,-0.007456779479980469,-0.02684497833251953,-0.7532005310058594,0.6571283340454102,0.014242172241210938
23,476552160.0,0.4178009033203125,-0.6584253311157227,9.781808853149414,0.12783527374267578,0.09907245635986328,-0.007456779479980469,-0.02684497833251953,-0.7532005310058594,0.6571283340454102,0.014242172241210938
24,476552192.0,0.2047100067138672,-0.4597005844116211,9.642940521240234,0.08522319793701172,0.1214437484741211,-0.034089088439941406,-0.02684497833251953,-0.7532005310058594,0.6571283340454102,0.014242172241210938
25,476552192.0,-0.1053476333618164,-0.5446968078613281,9.437033653259277,0.08522319793701172,0.1214437484741211,-0.034089088439941406,-0.02684497833251953,-0.7532005310058594,0.6571283340454102,0.014242172241210938
26,476552224.0,0.038308143615722656,-0.9014434814453125,9.429850578308105,-0.1672515869140625,0.07030868530273438,-0.1097249984741211,-0.02684497833251953,-0.7532005310058594,0.6571283340454102,0.014242172241210938
27,476552256.0,0.457305908203125,-0.9684839248657227,9.501678466796875,-0.1672515869140625,0.07030868530273438,-0.1097249984741211,-0.025377273559570312,-0.7513446807861328,0.6588115692138672,0.02796649932861328
28,476552256.0,0.046688079833984375,-1.0917892456054688,9.294573783874512,-0.1672515869140625,0.07030868530273438,-0.1097249984741211,-0.025377273559570312,-0.7513446807861328,0.6588115692138672,0.02796649932861328
29,476552288.0,-0.15921878814697266,-0.9601039886474609,9.441822052001953,-0.1672515869140625,0.07030868530273438,-0.1097249984741211,-0.02546405792236328,-0.7509555816650391,0.6592864990234375,0.028397560119628906
30,476552320.0,-0.25139808654785156,-1.113337516784668,9.713571548461914,-0.1672515869140625,0.07030868530273438,-0.1097249984741211,-0.026284217834472656,-0.7503519058227539,0.6598911285400391,0.02861309051513672
31,476552320.0,-0.10055923461914062,-1.041508674621582,10.002081871032715,-0.1672515869140625,0.07030868530273438,-0.1097249984741211,-0.026284217834472656,-0.7503519058227539,0.6598911285400391,0.02861309051513672
32,476552352.0,-0.14844417572021484,-1.075028419494629,9.877579689025879,-0.0021305084228515625,-0.004261016845703125,-0.042611122131347656,-0.02658557891845703,-0.7499198913574219,0.6603221893310547,0.02874279022216797
33,476552576.0,0.215484619140625,-0.7099018096923828,9.332881927490234,0.11079025268554688,-0.13635730743408203,-0.06498241424560547,-0.029478073120117188,-0.7472009658813477,0.663386344909668,0.027318954467773438
34,476552576.0,0.18555545806884766,-0.7302532196044922,9.314925193786621,0.11079025268554688,-0.13635730743408203,-0.06498241424560547,-0.029478073120117188,-0.7472009658813477,0.663386344909668,0.027318954467773438
35,476552608.0,0.4968118667602539,-0.7781391143798828,9.662095069885254,-0.0287628173828125,-0.12996578216552734,-0.05113410949707031,-0.029478073120117188,-0.7472009658813477,0.663386344909668,0.027318954467773438
36,476552640.0,0.20111846923828125,-0.8595438003540039,9.798568725585938,-0.0809621810913086,-0.11185550689697266,-0.045806884765625,-0.029478073120117188,-0.7472009658813477,0.663386344909668,0.027318954467773438
37,476552640.0,0.0921792984008789,-0.9708776473999023,9.774625778198242,-0.0809621810913086,-0.11185550689697266,-0.045806884765625,-0.029478073120117188,-0.7472009658813477,0.663386344909668,0.027318954467773438
38,476552672.0,0.1867532730102539,-0.9972152709960938,9.90750789642334,-0.0809621810913086,-0.11185550689697266,-0.045806884765625,-0.0354766845703125,-0.7448701858520508,0.6659765243530273,0.020456314086914062
39,476552672.0,0.27174949645996094,-1.0642547607421875,9.897931098937988,-0.0809621810913086,-0.11185550689697266,-0.045806884765625,-0.0354766845703125,-0.7448701858520508,0.6659765243530273,0.020456314086914062
40,476552704.0,0.46688270568847656,-0.9624977111816406,9.997293472290039,-0.0809621810913086,-0.11185550689697266,-0.045806884765625,-0.03677177429199219,-0.7447414398193359,0.6660194396972656,0.019765853881835938
41,476552736.0,-0.015562057495117188,-1.1229143142700195,10.012856483459473,-0.0809621810913086,-0.11185550689697266,-0.045806884765625,-0.03880023956298828,-0.7450428009033203,0.6656312942504883,0.01885986328125
42,476552736.0,0.2633695602416992,-1.1121397018432617,9.968562126159668,-0.0809621810913086,-0.11185550689697266,-0.045806884765625,-0.03880023956298828,-0.7450428009033203,0.6656312942504883,0.01885986328125
43,476552864.0,0.4776573181152344,-0.5063886642456055,10.23552417755127,0.11505126953125,-0.053264617919921875,0.07244014739990234,-0.037634849548339844,-0.749359130859375,0.6609697341918945,0.011738777160644531
44,476552864.0,0.4776573181152344,-0.5063886642456055,10.23552417755127,0.11505126953125,-0.053264617919921875,0.07244014739990234,-0.037634849548339844,-0.749359130859375,0.6609697341918945,0.011738777160644531
45,476552896.0,0.34597206115722656,-0.7422246932983398,9.941027641296387,0.11505126953125,-0.053264617919921875,0.07244014739990234,-0.037634849548339844,-0.749359130859375,0.6609697341918945,0.011738777160644531
46,476552896.0,0.32681846618652344,-0.5686397552490234,9.972153663635254,0.11505126953125,-0.053264617919921875,0.07244014739990234,-0.037634849548339844,-0.749359130859375,0.6609697341918945,0.011738777160644531
47,476552896.0,0.34597206115722656,-0.7422246932983398,9.941027641296387,0.11505126953125,-0.053264617919921875,0.07244014739990234,-0.037634849548339844,-0.749359130859375,0.6609697341918945,0.011738777160644531
48,476552896.0,0.32681846618652344,-0.5686397552490234,9.972153663635254,0.11505126953125,-0.053264617919921875,0.07244014739990234,-0.037634849548339844,-0.749359130859375,0.6609697341918945,0.011738777160644531
49,476552928.0,0.3782949447631836,-0.7134933471679688,9.778217315673828,0.11505126953125,-0.053264617919921875,0.07244014739990234,-0.037634849548339844,-0.749359130859375,0.6609697341918945,0.011738777160644531
50,476552928.0,0.3782949447631836,-0.7134933471679688,9.778217315673828,0.11505126953125,-0.053264617919921875,0.07244014739990234,-0.037634849548339844,-0.749359130859375,0.6609697341918945,0.011738777160644531
51,476552960.0,0.36153507232666016,-0.6440591812133789,9.748289108276367,-0.18749141693115234,0.09587669372558594,-0.06711292266845703,-0.037634849548339844,-0.749359130859375,0.6609697341918945,0.011738777160644531
52,476552960.0,0.36153507232666016,-0.6440591812133789,9.748289108276367,-0.18749141693115234,0.09587669372558594,-0.06711292266845703,-0.037634849548339844,-0.749359130859375,0.6609697341918945,0.011738777160644531
53,476553152.0,0.21668148040771484,-0.5387115478515625,9.859622955322266,0.26845455169677734,-0.19175338745117188,0.02982807159423828,-0.03996467590332031,-0.7470283508300781,0.663386344909668,0.0173492431640625
54,476553184.0,0.07182788848876953,-0.5470914840698242,10.034404754638672,-0.09374523162841797,-0.11505126953125,-0.08522319793701172,-0.03996467590332031,-0.7470283508300781,0.663386344909668,0.0173492431640625
55,476553216.0,0.12569904327392578,-0.7170848846435547,9.92666244506836,-0.24501800537109375,-0.07670116424560547,-0.12037849426269531,-0.03996467590332031,-0.7470283508300781,0.663386344909668,0.0173492431640625
56,476553216.0,0.2597780227661133,-1.0307350158691406,9.951802253723145,-0.24501800537109375,-0.07670116424560547,-0.12037849426269531,-0.03996467590332031,-0.7470283508300781,0.663386344909668,0.0173492431640625
57,476553248.0,0.4968118667602539,-1.2186851501464844,9.883565902709961,-0.21092796325683594,-0.07350540161132812,-0.1033334732055664,-0.03996467590332031,-0.7470283508300781,0.663386344909668,0.0173492431640625
58,476553248.0,0.5411052703857422,-1.0259466171264648,9.901522636413574,-0.21092796325683594,-0.07350540161132812,-0.1033334732055664,-0.03996467590332031,-0.7470283508300781,0.663386344909668,0.0173492431640625
59,476553248.0,0.5411052703857422,-1.0259466171264648,9.901522636413574,-0.21092796325683594,-0.07350540161132812,-0.1033334732055664,-0.03996467590332031,-0.7470283508300781,0.663386344909668,0.0173492431640625
60,476553280.0,0.5231485366821289,-1.0498886108398438,9.901522636413574,-0.21092796325683594,-0.07350540161132812,-0.1033334732055664,-0.03996467590332031,-0.7470283508300781,0.663386344909668,0.0173492431640625
61,476553280.0,0.5231485366821289,-1.0498886108398438,9.901522636413574,-0.21092796325683594,-0.07350540161132812,-0.1033334732055664,-0.03996467590332031,-0.7470283508300781,0.663386344909668,0.0173492431640625
62,476553312.0,0.5087833404541016,-0.9660892486572266,9.864411354064941,-0.21092796325683594,-0.07350540161132812,-0.1033334732055664,-0.03996467590332031,-0.7470283508300781,0.663386344909668,0.0173492431640625
63,476553312.0,0.4549121856689453,-1.109745979309082,9.81652545928955,-0.21092796325683594,-0.07350540161132812,-0.1033334732055664,-0.03996467590332031,-0.7470283508300781,0.663386344909668,0.0173492431640625
64,476553312.0,0.5087833404541016,-0.9660892486572266,9.864411354064941,-0.21092796325683594,-0.07350540161132812,-0.1033334732055664,-0.03996467590332031,-0.7470283508300781,0.663386344909668,0.0173492431640625
65,476553312.0,0.4549121856689453,-1.109745979309082,9.81652545928955,-0.21092796325683594,-0.07350540161132812,-0.1033334732055664,-0.03996467590332031,-0.7470283508300781,0.663386344909668,0.0173492431640625
66,476553344.0,0.48723411560058594,-1.2258682250976562,9.64413833618164,-0.16938209533691406,0.04900360107421875,-0.012783050537109375,-0.03996467590332031,-0.7470283508300781,0.663386344909668,0.0173492431640625
67,476553344.0,0.48723411560058594,-1.2258682250976562,9.64413833618164,-0.16938209533691406,0.04900360107421875,-0.012783050537109375,-0.03996467590332031,-0.7470283508300781,0.663386344909668,0.0173492431640625
68,476553376.0,0.38188648223876953,-1.2534027099609375,9.572309494018555,-0.12677001953125,0.045806884765625,0.007456779479980469,-0.03996467590332031,-0.7470283508300781,0.663386344909668,0.0173492431640625
69,476553376.0,0.3028755187988281,-1.3336105346679688,9.605829238891602,-0.12677001953125,0.045806884765625,0.007456779479980469,-0.03996467590332031,-0.7470283508300781,0.663386344909668,0.0173492431640625
70,476553376.0,0.38188648223876953,-1.2534027099609375,9.572309494018555,-0.12677001953125,0.045806884765625,0.007456779479980469,-0.03996467590332031,-0.7470283508300781,0.663386344909668,0.0173492431640625
71,476553376.0,0.3028755187988281,-1.3336105346679688,9.605829238891602,-0.12677001953125,0.045806884765625,0.007456779479980469,-0.03996467590332031,-0.7470283508300781,0.663386344909668,0.0173492431640625
72,476553408.0,0.3579435348510742,-1.2545995712280273,9.599843978881836,-0.05859088897705078,0.007456779479980469,0.03621959686279297,-0.03996467590332031,-0.7470283508300781,0.663386344909668,0.0173492431640625
73,476553408.0,0.4022378921508789,-1.2162914276123047,9.568717956542969,-0.05859088897705078,0.007456779479980469,0.03621959686279297,-0.03996467590332031,-0.7470283508300781,0.663386344909668,0.0173492431640625
74,476553408.0,0.3579435348510742,-1.2545995712280273,9.599843978881836,-0.05859088897705078,0.007456779479980469,0.03621959686279297,-0.03996467590332031,-0.7470283508300781,0.663386344909668,0.0173492431640625
75,476553408.0,0.4022378921508789,-1.2162914276123047,9.568717956542969,-0.05859088897705078,0.007456779479980469,0.03621959686279297,-0.03996467590332031,-0.7470283508300781,0.663386344909668,0.0173492431640625
76,476553440.0,0.37709808349609375,-1.073831558227539,9.708783149719238,-0.08202743530273438,-0.0031957626342773438,0.0287628173828125,-0.03996467590332031,-0.7470283508300781,0.663386344909668,0.0173492431640625
77,476553440.0,0.37709808349609375,-1.073831558227539,9.708783149719238,-0.08202743530273438,-0.0031957626342773438,0.0287628173828125,-0.03996467590332031,-0.7470283508300781,0.663386344909668,0.0173492431640625
78,476553472.0,0.3100576400756836,-1.0391149520874023,9.69681167602539,-0.15340232849121094,0.009587287902832031,0.012783050537109375,-0.03996467590332031,-0.7470283508300781,0.663386344909668,0.0173492431640625
79,476553472.0,0.2944955825805664,-1.1612224578857422,9.59505558013916,-0.15340232849121094,0.009587287902832031,0.012783050537109375,-0.03996467590332031,-0.7470283508300781,0.663386344909668,0.0173492431640625
80,476553472.0,0.3100576400756836,-1.0391149520874023,9.69681167602539,-0.15340232849121094,0.009587287902832031,0.012783050537109375,-0.03996467590332031,-0.7470283508300781,0.663386344909668,0.0173492431640625
81,476553472.0,0.2944955825805664,-1.1612224578857422,9.59505558013916,-0.15340232849121094,0.009587287902832031,0.012783050537109375,-0.03996467590332031,-0.7470283508300781,0.663386344909668,0.0173492431640625
82,476553504.0,0.27174949645996094,-1.2857246398925781,9.599843978881836,-0.0809621810913086,-0.025567054748535156,0.014913558959960938,-0.03996467590332031,-0.7470283508300781,0.663386344909668,0.0173492431640625
83,476553504.0,0.27174949645996094,-1.2857246398925781,9.599843978881836,-0.0809621810913086,-0.025567054748535156,0.014913558959960938,-0.03996467590332031,-0.7470283508300781,0.663386344909668,0.0173492431640625
84,476553536.0,0.30886077880859375,-1.1612224578857422,9.759062767028809,-0.03728485107421875,-0.04687213897705078,0.007456779479980469,-0.03996467590332031,-0.7470283508300781,0.663386344909668,0.0173492431640625
85,476553536.0,0.43216609954833984,-1.1839685440063477,9.811737060546875,-0.03728485107421875,-0.04687213897705078,0.007456779479980469,-0.03996467590332031,-0.7470283508300781,0.663386344909668,0.0173492431640625
86,476553536.0,0.30886077880859375,-1.1612224578857422,9.759062767028809,-0.03728485107421875,-0.04687213897705078,0.007456779479980469,-0.03996467590332031,-0.7470283508300781,0.663386344909668,0.0173492431640625
87,476553536.0,0.43216609954833984,-1.1839685440063477,9.811737060546875,-0.03728485107421875,-0.04687213897705078,0.007456779479980469,-0.03996467590332031,-0.7470283508300781,0.663386344909668,0.0173492431640625
88,476553664.0,0.5650482177734375,-1.107351303100586,9.769837379455566,-0.08415794372558594,0.021305084228515625,0.0010652542114257812,-0.03996467590332031,-0.7470283508300781,0.663386344909668,0.0173492431640625
89,476553664.0,0.5650482177734375,-1.107351303100586,9.769837379455566,-0.08415794372558594,0.021305084228515625,0.0010652542114257812,-0.03996467590332031,-0.7470283508300781,0.663386344909668,0.0173492431640625
90,476553664.0,0.5650482177734375,-1.107351303100586,9.769837379455566,-0.08415794372558594,0.021305084228515625,0.0010652542114257812,-0.03996467590332031,-0.7470283508300781,0.663386344909668,0.0173492431640625
91,476553696.0,0.46329212188720703,-1.2210798263549805,9.687234878540039,-0.02769756317138672,0.019174575805664062,0.0170440673828125,-0.03996467590332031,-0.7470283508300781,0.663386344909668,0.0173492431640625
92,476553696.0,0.4680805206298828,-1.2234735488891602,9.66808032989502,-0.02769756317138672,0.019174575805664062,0.0170440673828125,-0.03996467590332031,-0.7470283508300781,0.663386344909668,0.0173492431640625
93,476553696.0,0.46329212188720703,-1.2210798263549805,9.687234878540039,-0.02769756317138672,0.019174575805664062,0.0170440673828125,-0.03996467590332031,-0.7470283508300781,0.663386344909668,0.0173492431640625
94,476553696.0,0.4680805206298828,-1.2234735488891602,9.66808032989502,-0.02769756317138672,0.019174575805664062,0.0170440673828125,-0.03996467590332031,-0.7470283508300781,0.663386344909668,0.0173492431640625
95,476553696.0,0.46329212188720703,-1.2210798263549805,9.687234878540039,-0.02769756317138672,0.019174575805664062,0.0170440673828125,-0.03996467590332031,-0.7470283508300781,0.663386344909668,0.0173492431640625
96,476553696.0,0.4680805206298828,-1.2234735488891602,9.66808032989502,-0.02769756317138672,0.019174575805664062,0.0170440673828125,-0.03996467590332031,-0.7470283508300781,0.663386344909668,0.0173492431640625
97,476553728.0,0.5027971267700195,-1.0534801483154297,9.73631763458252,0.005326271057128906,0.011717796325683594,0.014913558959960938,-0.03996467590332031,-0.7470283508300781,0.663386344909668,0.0173492431640625
98,476553728.0,0.4130115509033203,-1.0618600845336914,9.66448974609375,0.005326271057128906,0.011717796325683594,0.014913558959960938,-0.03996467590332031,-0.7470283508300781,0.663386344909668,0.0173492431640625
99,476553728.0,0.5027971267700195,-1.0534801483154297,9.73631763458252,0.005326271057128906,0.011717796325683594,0.014913558959960938,-0.03996467590332031,-0.7470283508300781,0.663386344909668,0.0173492431640625
100,476553728.0,0.4130115509033203,-1.0618600845336914,9.66448974609375,0.005326271057128906,0.011717796325683594,0.014913558959960938,-0.03996467590332031,-0.7470283508300781,0.663386344909668,0.0173492431640625
101,476553728.0,0.5027971267700195,-1.0534801483154297,9.73631763458252,0.005326271057128906,0.011717796325683594,0.014913558959960938,-0.03996467590332031,-0.7470283508300781,0.663386344909668,0.0173492431640625
102,476553728.0,0.4130115509033203,-1.0618600845336914,9.66448974609375,0.005326271057128906,0.011717796325683594,0.014913558959960938,-0.03996467590332031,-0.7470283508300781,0.663386344909668,0.0173492431640625
103,476553952.0,0.519556999206543,-1.3419904708862305,9.778217315673828,-0.009587287902832031,0.0,-0.0021305084228515625,-0.06206226348876953,-0.7428417205810547,0.6660194396972656,0.026671409606933594
104,476553984.0,0.48005199432373047,-1.2330513000488281,9.800963401794434,0.004261016845703125,0.011717796325683594,0.01597881317138672,-0.06197547912597656,-0.7430582046508789,0.6658039093017578,0.026757240295410156
105,476553984.0,0.4752626419067383,-1.1863622665405273,9.783005714416504,0.004261016845703125,0.011717796325683594,0.01597881317138672,-0.06197547912597656,-0.7430582046508789,0.6658039093017578,0.026757240295410156
106,476554016.0,0.457305908203125,-1.29290771484375,9.739909172058105,-0.05006885528564453,0.031958580017089844,0.0,-0.06219196319580078,-0.7430152893066406,0.6658468246459961,0.027318954467773438
107,476554048.0,0.36273193359375,-1.3383989334106445,9.660898208618164,-0.024501800537109375,0.024501800537109375,0.012783050537109375,-0.062320709228515625,-0.7429714202880859,0.6658039093017578,0.02779388427734375
108,476554048.0,0.35914039611816406,-1.3012876510620117,9.656109809875488,-0.024501800537109375,0.024501800537109375,0.012783050537109375,-0.062320709228515625,-0.7429714202880859,0.6658039093017578,0.02779388427734375
109,476554080.0,0.44533443450927734,-1.2438249588012695,9.71476936340332,0.0,0.023435592651367188,0.009587287902832031,-0.062320709228515625,-0.7429714202880859,0.6658039093017578,0.02779388427734375
110,476554112.0,0.5123739242553711,-1.2653741836547852,9.719557762145996,-0.007456779479980469,0.025567054748535156,-0.005326271057128906,-0.062320709228515625,-0.7429714202880859,0.6658039093017578,0.02779388427734375
111,476554112.0,0.46089744567871094,-1.2426280975341797,9.725543022155762,-0.007456779479980469,0.025567054748535156,-0.005326271057128906,-0.062320709228515625,-0.7429714202880859,0.6658039093017578,0.02779388427734375
112,476554144.0,0.40822315216064453,-1.358750343322754,9.694417953491211,-0.031958580017089844,0.01597881317138672,-0.00852203369140625,-0.062320709228515625,-0.7429714202880859,0.6658039093017578,0.02779388427734375
113,476554272.0,0.35076045989990234,-1.3683271408081055,9.71596622467041,-0.031958580017089844,0.01597881317138672,-0.00852203369140625,-0.06253719329833984,-0.7428417205810547,0.6658468246459961,0.029390335083007812
114,476554272.0,0.4225893020629883,-1.289316177368164,9.847651481628418,-0.031958580017089844,0.01597881317138672,-0.00852203369140625,-0.06253719329833984,-0.7428417205810547,0.6658468246459961,0.029390335083007812
115,476554304.0,0.42737770080566406,-1.2162914276123047,9.894339561462402,-0.031958580017089844,0.01597881317138672,-0.00852203369140625,-0.06253719329833984,-0.7428417205810547,0.6658468246459961,0.029390335083007812
116,476554304.0,0.3962516784667969,-1.3000907897949219,9.83568000793457,-0.031958580017089844,0.01597881317138672,-0.00852203369140625,-0.06253719329833984,-0.7428417205810547,0.6658468246459961,0.029390335083007812
117,476554336.0,0.40822315216064453,-1.4102277755737305,9.719557762145996,0.031958580017089844,0.01597881317138672,0.007456779479980469,-0.06253719329833984,-0.7428417205810547,0.6658468246459961,0.029390335083007812
118,476554464.0,0.40104007720947266,-1.3240337371826172,9.642940521240234,-0.0031957626342773438,0.020239830017089844,0.0287628173828125,-0.06210517883300781,-0.7429714202880859,0.6657171249389648,0.031030654907226562
119,476554464.0,0.3974494934082031,-1.332413673400879,9.703994750976562,-0.0031957626342773438,0.020239830017089844,0.0287628173828125,-0.06210517883300781,-0.7429714202880859,0.6657171249389648,0.031030654907226562
120,476554464.0,0.40104007720947266,-1.3240337371826172,9.642940521240234,-0.0031957626342773438,0.020239830017089844,0.0287628173828125,-0.06210517883300781,-0.7429714202880859,0.6657171249389648,0.031030654907226562
121,476554464.0,0.3974494934082031,-1.332413673400879,9.703994750976562,-0.0031957626342773438,0.020239830017089844,0.0287628173828125,-0.06210517883300781,-0.7429714202880859,0.6657171249389648,0.031030654907226562
122,476554496.0,0.3806896209716797,-1.3240337371826172,9.569915771484375,0.007456779479980469,0.0170440673828125,0.03941535949707031,-0.06210517883300781,-0.7429714202880859,0.6657171249389648,0.031030654907226562
123,476554496.0,0.3806896209716797,-1.3240337371826172,9.569915771484375,0.007456779479980469,0.0170440673828125,0.03941535949707031,-0.06210517883300781,-0.7429714202880859,0.6657171249389648,0.031030654907226562
124,476554528.0,0.3675203323364258,-1.298893928527832,9.610618591308594,0.0170440673828125,0.012783050537109375,0.03728485107421875,-0.06210517883300781,-0.7429714202880859,0.6657171249389648,0.031030654907226562
125,476554528.0,0.38787174224853516,-1.264176368713379,9.689629554748535,0.0170440673828125,0.012783050537109375,0.03728485107421875,-0.06210517883300781,-0.7429714202880859,0.6657171249389648,0.031030654907226562
126,476554528.0,0.3675203323364258,-1.298893928527832,9.610618591308594,0.0170440673828125,0.012783050537109375,0.03728485107421875,-0.06210517883300781,-0.7429714202880859,0.6657171249389648,0.031030654907226562
127,476554528.0,0.38787174224853516,-1.264176368713379,9.689629554748535,0.0170440673828125,0.012783050537109375,0.03728485107421875,-0.06210517883300781,-0.7429714202880859,0.6657171249389648,0.031030654907226562
128,476554656.0,0.16640186309814453,-1.2354450225830078,9.847651481628418,0.0170440673828125,0.012783050537109375,0.03728485107421875,-0.06046581268310547,-0.7453451156616211,0.6631708145141602,0.03085803985595703
129,476554688.0,0.2729473114013672,-1.4437475204467773,9.8069486618042,0.0170440673828125,0.012783050537109375,0.03728485107421875,-0.06046581268310547,-0.7453451156616211,0.6631708145141602,0.03085803985595703
130,476554688.0,0.30646705627441406,-1.3671302795410156,9.797371864318848,0.0170440673828125,0.012783050537109375,0.03728485107421875,-0.06046581268310547,-0.7453451156616211,0.6631708145141602,0.03085803985595703
131,476554720.0,0.37230968475341797,-1.3336105346679688,9.76624584197998,0.0170440673828125,0.012783050537109375,0.03728485107421875,-0.06046581268310547,-0.7453451156616211,0.6631708145141602,0.03085803985595703
132,476554752.0,0.3579435348510742,-1.3994531631469727,9.860819816589355,-0.023435592651367188,0.033023834228515625,0.005326271057128906,-0.059429168701171875,-0.7455615997314453,0.6631278991699219,0.030080795288085938
133,476554752.0,0.3974494934082031,-1.3443851470947266,9.745894432067871,-0.023435592651367188,0.033023834228515625,0.005326271057128906,-0.059429168701171875,-0.7455615997314453,0.6631278991699219,0.030080795288085938
134,476554784.0,0.3759002685546875,-1.419804573059082,9.700403213500977,-0.030893325805664062,0.03621959686279297,0.014913558959960938,-0.059386253356933594,-0.7456045150756836,0.6629981994628906,0.030986785888671875
135,476554784.0,0.34836673736572266,-1.449732780456543,9.628575325012207,-0.030893325805664062,0.03621959686279297,0.014913558959960938,-0.059386253356933594,-0.7456045150756836,0.6629981994628906,0.030986785888671875
136,476554816.0,0.2837209701538086,-1.4545211791992188,9.559141159057617,-0.00852203369140625,0.030893325805664062,0.021305084228515625,-0.05917072296142578,-0.7457342147827148,0.6628684997558594,0.031289100646972656
137,476554848.0,0.2944955825805664,-1.4114246368408203,9.568717956542969,0.007456779479980469,0.01810932159423828,0.034089088439941406,-0.05899810791015625,-0.7458629608154297,0.6627397537231445,0.031548500061035156
138,476554848.0,0.2897071838378906,-1.3731164932250977,9.57470417022705,0.007456779479980469,0.01810932159423828,0.034089088439941406,-0.05899810791015625,-0.7458629608154297,0.6627397537231445,0.031548500061035156
139,476554880.0,0.36273193359375,-1.387481689453125,9.536396026611328,-0.01597881317138672,0.0031957626342773438,0.019174575805664062,-0.05899810791015625,-0.7458629608154297,0.6627397537231445,0.031548500061035156
140,476554880.0,0.3555488586425781,-1.321639060974121,9.607027053833008,-0.01597881317138672,0.0031957626342773438,0.019174575805664062,-0.05899810791015625,-0.7458629608154297,0.6627397537231445,0.031548500061035156
141,476554912.0,0.25858116149902344,-1.3527650833129883,9.66688346862793,0.007456779479980469,-0.019174575805664062,0.02982807159423828,-0.05899810791015625,-0.7458629608154297,0.6627397537231445,0.031548500061035156
142,476554944.0,0.3100576400756836,-1.2773447036743164,9.724346160888672,0.007456779479980469,-0.019174575805664062,0.02982807159423828,-0.05899810791015625,-0.7458629608154297,0.6627397537231445,0.031548500061035156
143,476554944.0,0.43216609954833984,-1.1959400177001953,9.628575325012207,0.007456779479980469,-0.019174575805664062,0.02982807159423828,-0.05899810791015625,-0.7458629608154297,0.6627397537231445,0.031548500061035156
144,476554976.0,0.36392974853515625,-1.1708002090454102,9.755472183227539,0.007456779479980469,-0.019174575805664062,0.02982807159423828,-0.05899810791015625,-0.7458629608154297,0.6627397537231445,0.031548500061035156
145,476555008.0,0.336395263671875,-1.3084707260131836,9.78659725189209,0.007456779479980469,-0.019174575805664062,0.02982807159423828,-0.05899810791015625,-0.7458629608154297,0.6627397537231445,0.031548500061035156
146,476555008.0,0.4094209671020508,-1.1851654052734375,9.783005714416504,0.007456779479980469,-0.019174575805664062,0.02982807159423828,-0.05899810791015625,-0.7458629608154297,0.6627397537231445,0.031548500061035156
147,476555040.0,0.43216609954833984,-1.1791801452636719,9.773428916931152,0.007456779479980469,-0.019174575805664062,0.02982807159423828,-0.05899810791015625,-0.7458629608154297,0.6627397537231445,0.031548500061035156
148,476555072.0,0.3519582748413086,-1.2354450225830078,9.76624584197998,0.007456779479980469,-0.019174575805664062,0.02982807159423828,-0.05899810791015625,-0.7458629608154297,0.6627397537231445,0.031548500061035156
149,476555072.0,0.36632347106933594,-1.2115020751953125,9.804553985595703,0.007456779479980469,-0.019174575805664062,0.02982807159423828,-0.05899810791015625,-0.7458629608154297,0.6627397537231445,0.031548500061035156
150,476555072.0,0.3519582748413086,-1.2354450225830078,9.76624584197998,0.007456779479980469,-0.019174575805664062,0.02982807159423828,-0.05899810791015625,-0.7458629608154297,0.6627397537231445,0.031548500061035156
151,476555072.0,0.36632347106933594,-1.2115020751953125,9.804553985595703,0.007456779479980469,-0.019174575805664062,0.02982807159423828,-0.05899810791015625,-0.7458629608154297,0.6627397537231445,0.031548500061035156
152,476555104.0,0.3567466735839844,-1.264176368713379,9.780611991882324,0.007456779479980469,-0.019174575805664062,0.02982807159423828,-0.05899810791015625,-0.7458629608154297,0.6627397537231445,0.031548500061035156
153,476555104.0,0.3148469924926758,-1.1851654052734375,9.751880645751953,0.007456779479980469,-0.019174575805664062,0.02982807159423828,-0.05899810791015625,-0.7458629608154297,0.6627397537231445,0.031548500061035156
154,476555104.0,0.3567466735839844,-1.264176368713379,9.780611991882324,0.007456779479980469,-0.019174575805664062,0.02982807159423828,-0.05899810791015625,-0.7458629608154297,0.6627397537231445,0.031548500061035156
155,476555104.0,0.3148469924926758,-1.1851654052734375,9.751880645751953,0.007456779479980469,-0.019174575805664062,0.02982807159423828,-0.05899810791015625,-0.7458629608154297,0.6627397537231445,0.031548500061035156
156,476555136.0,0.3423805236816406,-1.207911491394043,9.812934875488281,0.03621959686279297,-0.005326271057128906,0.007456779479980469,-0.05899810791015625,-0.7458629608154297,0.6627397537231445,0.031548500061035156
157,476555136.0,0.3423805236816406,-1.207911491394043,9.812934875488281,0.03621959686279297,-0.005326271057128906,0.007456779479980469,-0.05899810791015625,-0.7458629608154297,0.6627397537231445,0.031548500061035156
158,476555168.0,0.3579435348510742,-1.1588287353515625,9.791385650634766,0.011717796325683594,-0.0063915252685546875,-0.0021305084228515625,-0.05899810791015625,-0.7458629608154297,0.6627397537231445,0.031548500061035156
159,476555168.0,0.3962516784667969,-1.1181259155273438,9.713571548461914,0.011717796325683594,-0.0063915252685546875,-0.0021305084228515625,-0.05899810791015625,-0.7458629608154297,0.6627397537231445,0.031548500061035156
160,476555200.0,0.39864635467529297,-1.260584831237793,9.630970001220703,-0.014913558959960938,0.007456779479980469,-0.019174575805664062,-0.05899810791015625,-0.7458629608154297,0.6627397537231445,0.031548500061035156
161,476555200.0,0.2968893051147461,-1.2593879699707031,9.636955261230469,-0.014913558959960938,0.007456779479980469,-0.019174575805664062,-0.05899810791015625,-0.7458629608154297,0.6627397537231445,0.031548500061035156
162,476555232.0,0.3974494934082031,-1.2294597625732422,9.648926734924316,0.0021305084228515625,-0.0170440673828125,-0.01810932159423828,-0.05899810791015625,-0.7458629608154297,0.6627397537231445,0.031548500061035156
163,476555360.0,0.3555488586425781,-1.2976961135864258,9.866806030273438,0.019174575805664062,-0.024501800537109375,-0.0287628173828125,-0.06059455871582031,-0.7462949752807617,0.662135124206543,0.03012371063232422
164,476555360.0,0.40582942962646484,-1.3683271408081055,9.828496932983398,0.019174575805664062,-0.024501800537109375,-0.0287628173828125,-0.06059455871582031,-0.7462949752807617,0.662135124206543,0.03012371063232422
165,476555392.0,0.31963539123535156,-1.4186077117919922,9.799765586853027,0.019174575805664062,-0.024501800537109375,-0.0287628173828125,-0.06059455871582031,-0.7462949752807617,0.662135124206543,0.03012371063232422
166,476555424.0,0.30048084259033203,-1.4054384231567383,9.817723274230957,0.019174575805664062,-0.024501800537109375,-0.0287628173828125,-0.06059455871582031,-0.7462949752807617,0.662135124206543,0.03012371063232422
167,476555424.0,0.36392974853515625,-1.3563566207885742,9.802160263061523,0.019174575805664062,-0.024501800537109375,-0.0287628173828125,-0.06059455871582031,-0.7462949752807617,0.662135124206543,0.03012371063232422
168,476555456.0,0.3711118698120117,-1.2797393798828125,9.844059944152832,-0.02982807159423828,0.02769756317138672,-0.01810932159423828,-0.06059455871582031,-0.7462949752807617,0.662135124206543,0.03012371063232422
169,476555488.0,0.39505481719970703,-1.3443851470947266,9.781808853149414,-0.00852203369140625,0.033023834228515625,-0.012783050537109375,-0.06059455871582031,-0.7462949752807617,0.662135124206543,0.03012371063232422
170,476555488.0,0.34597206115722656,-1.3419904708862305,9.727937698364258,-0.00852203369140625,0.033023834228515625,-0.012783050537109375,-0.06059455871582031,-0.7462949752807617,0.662135124206543,0.03012371063232422
171,476555520.0,0.43096923828125,-1.2150936126708984,9.724346160888672,-0.00852203369140625,0.026632308959960938,0.0,-0.06059455871582031,-0.7462949752807617,0.662135124206543,0.03012371063232422
172,476555520.0,0.4178009033203125,-1.2534027099609375,9.687234878540039,-0.00852203369140625,0.026632308959960938,0.0,-0.06059455871582031,-0.7462949752807617,0.662135124206543,0.03012371063232422
173,476555648.0,0.40104007720947266,-1.2534027099609375,9.731529235839844,0.00852203369140625,0.010652542114257812,-0.010652542114257812,-0.05994701385498047,-0.7451295852661133,0.6634731292724609,0.03163433074951172
174,476555680.0,0.39864635467529297,-1.262979507446289,9.718360900878906,0.00852203369140625,0.010652542114257812,-0.010652542114257812,-0.05994701385498047,-0.7451295852661133,0.6634731292724609,0.03163433074951172
175,476555680.0,0.3519582748413086,-1.3719186782836914,9.688431739807129,0.00852203369140625,0.010652542114257812,-0.010652542114257812,-0.05994701385498047,-0.7451295852661133,0.6634731292724609,0.03163433074951172
176,476555712.0,0.2765378952026367,-1.3360052108764648,9.708783149719238,0.00852203369140625,0.010652542114257812,-0.010652542114257812,-0.05994701385498047,-0.7451295852661133,0.6634731292724609,0.03163433074951172
177,476555744.0,0.3699150085449219,-1.3132591247558594,9.687234878540039,0.02982807159423828,-0.0031957626342773438,-0.03515434265136719,-0.05994701385498047,-0.7451295852661133,0.6634731292724609,0.03163433074951172
178,476555744.0,0.4154062271118164,-1.2198820114135742,9.755472183227539,0.02982807159423828,-0.0031957626342773438,-0.03515434265136719,-0.05994701385498047,-0.7451295852661133,0.6634731292724609,0.03163433074951172
179,476555744.0,0.4154062271118164,-1.2198820114135742,9.755472183227539,0.02982807159423828,-0.0031957626342773438,-0.03515434265136719,-0.05994701385498047,-0.7451295852661133,0.6634731292724609,0.03163433074951172
180,476555776.0,0.4154062271118164,-1.266571044921875,9.7171630859375,-0.07350540161132812,0.026632308959960938,-0.053264617919921875,-0.05994701385498047,-0.7451295852661133,0.6634731292724609,0.03163433074951172
181,476555776.0,0.4154062271118164,-1.266571044921875,9.7171630859375,-0.07350540161132812,0.026632308959960938,-0.053264617919921875,-0.05994701385498047,-0.7451295852661133,0.6634731292724609,0.03163433074951172
182,476555808.0,0.38547801971435547,-1.3467788696289062,9.683643341064453,-0.05965614318847656,0.026632308959960938,-0.057525634765625,-0.05994701385498047,-0.7451295852661133,0.6634731292724609,0.03163433074951172
183,476555808.0,0.40104007720947266,-1.321639060974121,9.708783149719238,-0.05965614318847656,0.026632308959960938,-0.057525634765625,-0.05994701385498047,-0.7451295852661133,0.6634731292724609,0.03163433074951172
184,476555808.0,0.38547801971435547,-1.3467788696289062,9.683643341064453,-0.05965614318847656,0.026632308959960938,-0.057525634765625,-0.05994701385498047,-0.7451295852661133,0.6634731292724609,0.03163433074951172
185,476555808.0,0.40104007720947266,-1.321639060974121,9.708783149719238,-0.05965614318847656,0.026632308959960938,-0.057525634765625,-0.05994701385498047,-0.7451295852661133,0.6634731292724609,0.03163433074951172
186,476555840.0,0.45850276947021484,-1.296499252319336,9.638152122497559,-0.041545867919921875,0.024501800537109375,-0.045806884765625,-0.05994701385498047,-0.7451295852661133,0.6634731292724609,0.03163433074951172
187,476555840.0,0.45850276947021484,-1.296499252319336,9.638152122497559,-0.041545867919921875,0.024501800537109375,-0.045806884765625,-0.05994701385498047,-0.7451295852661133,0.6634731292724609,0.03163433074951172
188,476555968.0,0.29329776763916016,-1.2474164962768555,9.694417953491211,-0.041545867919921875,0.024501800537109375,-0.045806884765625,-0.05994701385498047,-0.7451295852661133,0.6634731292724609,0.03163433074951172
189,476555968.0,0.3160438537597656,-1.6209230422973633,9.6956148147583,-0.041545867919921875,0.024501800537109375,-0.045806884765625,-0.05994701385498047,-0.7451295852661133,0.6634731292724609,0.03163433074951172
190,476556000.0,0.30048084259033203,-1.4042415618896484,9.71596622467041,-0.041545867919921875,0.024501800537109375,-0.045806884765625,-0.05994701385498047,-0.7451295852661133,0.6634731292724609,0.03163433074951172
191,476556000.0,0.3076639175415039,-1.4281845092773438,9.711177825927734,-0.041545867919921875,0.024501800537109375,-0.045806884765625,-0.05994701385498047,-0.7451295852661133,0.6634731292724609,0.03163433074951172
192,476556032.0,0.2394266128540039,-1.5431098937988281,9.761457443237305,-0.033023834228515625,-0.01597881317138672,-0.054329872131347656,-0.05994701385498047,-0.7451295852661133,0.6634731292724609,0.03163433074951172
193,476556064.0,0.2765378952026367,-1.5275468826293945,9.794977188110352,0.009587287902832031,-0.020239830017089844,-0.05859088897705078,-0.05994701385498047,-0.7451295852661133,0.6634731292724609,0.03163433074951172
194,476556064.0,0.3292121887207031,-1.4210014343261719,9.829694747924805,0.009587287902832031,-0.020239830017089844,-0.05859088897705078,-0.05994701385498047,-0.7451295852661133,0.6634731292724609,0.03163433074951172
195,476556096.0,0.34597206115722656,-1.3958616256713867,9.865608215332031,-0.0809621810913086,0.0170440673828125,-0.07989692687988281,-0.05994701385498047,-0.7451295852661133,0.6634731292724609,0.03163433074951172
196,476556128.0,0.3567466735839844,-1.510787010192871,9.727937698364258,-0.10226821899414062,0.02769756317138672,-0.08841896057128906,-0.05994701385498047,-0.7451295852661133,0.6634731292724609,0.03163433074951172
197,476556128.0,0.32681846618652344,-1.5658550262451172,9.708783149719238,-0.10226821899414062,0.02769756317138672,-0.08841896057128906,-0.05994701385498047,-0.7451295852661133,0.6634731292724609,0.03163433074951172
198,476556160.0,0.29808712005615234,-1.4928302764892578,9.68603801727295,-0.10226821899414062,0.02769756317138672,-0.08841896057128906,-0.05994701385498047,-0.7451295852661133,0.6634731292724609,0.03163433074951172
199,476556160.0,0.3316068649291992,-1.504800796508789,9.493298530578613,-0.10226821899414062,0.02769756317138672,-0.08841896057128906,-0.05994701385498047,-0.7451295852661133,0.6634731292724609,0.03163433074951172
200,476556192.0,0.3280153274536133,-1.6400775909423828,9.21675968170166,-0.10226821899414062,0.02769756317138672,-0.08841896057128906,-0.05994701385498047,-0.7451295852661133,0.6634731292724609,0.03163433074951172
201,476556224.0,0.23703289031982422,-1.5155754089355469,9.273025512695312,-0.10226821899414062,0.02769756317138672,-0.08841896057128906,-0.05994701385498047,-0.7451295852661133,0.6634731292724609,0.03163433074951172
202,476556224.0,0.3735065460205078,-1.510787010192871,9.222745895385742,-0.10226821899414062,0.02769756317138672,-0.08841896057128906,-0.05994701385498047,-0.7451295852661133,0.6634731292724609,0.03163433074951172
203,476556256.0,0.5458946228027344,-1.8172540664672852,9.152114868164062,-0.03728485107421875,-0.10013771057128906,-0.1491413116455078,-0.05994701385498047,-0.7451295852661133,0.6634731292724609,0.03163433074951172
204,476556288.0,0.5219516754150391,-1.9668960571289062,9.031203269958496,-0.13422679901123047,-0.1725778579711914,-0.11079025268554688,-0.05994701385498047,-0.7451295852661133,0.6634731292724609,0.03163433074951172
205,476556288.0,0.525543212890625,-2.4792709350585938,8.950995445251465,-0.13422679901123047,-0.1725778579711914,-0.11079025268554688,-0.05994701385498047,-0.7451295852661133,0.6634731292724609,0.03163433074951172
206,476556320.0,0.5075855255126953,-2.874326705932617,8.930644035339355,-0.10226821899414062,-0.22903823852539062,-0.07989692687988281,-0.05994701385498047,-0.7451295852661133,0.6634731292724609,0.03163433074951172
207,476556320.0,0.7685613632202148,-3.055093765258789,8.590657234191895,-0.10226821899414062,-0.22903823852539062,-0.07989692687988281,-0.05994701385498047,-0.7451295852661133,0.6634731292724609,0.03163433074951172
208,476556448.0,1.139674186706543,-5.940195083618164,8.831281661987305,0.7244014739990234,-0.6487655639648438,1.6533403396606445,-0.08985614776611328,-0.7458200454711914,0.6598472595214844,0.017435073852539062
209,476556480.0,1.608952522277832,-5.849212646484375,9.66808032989502,0.8213434219360352,-0.7201404571533203,1.9771909713745117,-0.08985614776611328,-0.7458200454711914,0.6598472595214844,0.017435073852539062
210,476556480.0,1.638880729675293,-4.531164169311523,10.755081176757812,0.8213434219360352,-0.7201404571533203,1.9771909713745117,-0.08985614776611328,-0.7458200454711914,0.6598472595214844,0.017435073852539062
211,476556512.0,1.5383214950561523,-4.237865447998047,10.844866752624512,1.2922048568725586,-0.6423740386962891,2.597193717956543,-0.08985614776611328,-0.7458200454711914,0.6598472595214844,0.017435073852539062
212,476556544.0,1.4293813705444336,-3.711125373840332,11.297384262084961,1.2922048568725586,-0.6423740386962891,2.597193717956543,-0.08985614776611328,-0.7458200454711914,0.6598472595214844,0.017435073852539062
213,476556544.0,1.5838127136230469,-2.6337013244628906,12.264671325683594,1.2922048568725586,-0.6423740386962891,2.597193717956543,-0.08985614776611328,-0.7458200454711914,0.6598472595214844,0.017435073852539062
214,476556576.0,2.124917984008789,-2.529550552368164,13.17569351196289,1.2922048568725586,-0.6423740386962891,2.597193717956543,-0.08985614776611328,-0.7458200454711914,0.6598472595214844,0.017435073852539062
215,476556576.0,2.4505395889282227,0.6392707824707031,14.530852317810059,1.2922048568725586,-0.6423740386962891,2.597193717956543,-0.08985614776611328,-0.7458200454711914,0.6598472595214844,0.017435073852539062
216,476556608.0,3.1400909423828125,2.753415107727051,15.613064765930176,1.2922048568725586,-0.6423740386962891,2.597193717956543,-0.08985614776611328,-0.7458200454711914,0.6598472595214844,0.017435073852539062
217,476556640.0,3.616551399230957,3.700350761413574,16.0919189453125,0.9907255172729492,1.390212059020996,2.5662994384765625,-0.0019855499267578125,-0.9042549133300781,0.4240732192993164,-0.04928779602050781
218,476556640.0,3.5926084518432617,3.363955497741699,15.573559761047363,0.9907255172729492,1.390212059020996,2.5662994384765625,-0.0019855499267578125,-0.9042549133300781,0.4240732192993164,-0.04928779602050781
219,476556672.0,3.1999473571777344,2.697150230407715,15.223995208740234,0.9790077209472656,2.421419143676758,2.045370101928711,0.013551712036132812,-0.914698600769043,0.4024944305419922,-0.03366374969482422
220,476556704.0,3.51479434967041,4.818477630615234,15.46581745147705,0.6796588897705078,2.873105049133301,1.6054019927978516,0.04790496826171875,-0.9282503128051758,0.3687448501586914,0.010703086853027344
221,476556704.0,3.617748260498047,5.700767517089844,14.621834754943848,0.6796588897705078,2.873105049133301,1.6054019927978516,0.04790496826171875,-0.9282503128051758,0.3687448501586914,0.010703086853027344
222,476556736.0,2.3858938217163086,4.952556610107422,12.710006713867188,0.15872859954833984,3.440908432006836,1.268768310546875,0.061758995056152344,-0.9315738677978516,0.35575389862060547,0.042510032653808594
223,476556864.0,-1.169602394104004,4.7227067947387695,4.883122444152832,0.7233362197875977,2.436333656311035,-1.6181859970092773,0.14065265655517578,-0.8859548568725586,0.3526029586791992,0.2664165496826172
224,476556864.0,-1.857956886291504,4.486870765686035,4.288145065307617,0.7233362197875977,2.436333656311035,-1.6181859970092773,0.14065265655517578,-0.8859548568725586,0.3526029586791992,0.2664165496826172
225,476556864.0,-1.169602394104004,4.7227067947387695,4.883122444152832,0.7233362197875977,2.436333656311035,-1.6181859970092773,0.14065265655517578,-0.8859548568725586,0.3526029586791992,0.2664165496826172
226,476556864.0,-1.857956886291504,4.486870765686035,4.288145065307617,0.7233362197875977,2.436333656311035,-1.6181859970092773,0.14065265655517578,-0.8859548568725586,0.3526029586791992,0.2664165496826172
227,476556896.0,-2.091398239135742,3.650071144104004,3.8835134506225586,0.5337133407592773,2.0528268814086914,-1.9558849334716797,0.15580081939697266,-0.8583774566650391,0.38190746307373047,0.30504322052001953
228,476556896.0,-2.3116722106933594,2.598984718322754,2.9174232482910156,0.5337133407592773,2.0528268814086914,-1.9558849334716797,0.15580081939697266,-0.8583774566650391,0.38190746307373047,0.30504322052001953
229,476556896.0,-2.091398239135742,3.650071144104004,3.8835134506225586,0.5337133407592773,2.0528268814086914,-1.9558849334716797,0.15580081939697266,-0.8583774566650391,0.38190746307373047,0.30504322052001953
230,476556896.0,-2.3116722106933594,2.598984718322754,2.9174232482910156,0.5337133407592773,2.0528268814086914,-1.9558849334716797,0.15580081939697266,-0.8583774566650391,0.38190746307373047,0.30504322052001953
231,476556928.0,-2.715106964111328,1.3791017532348633,2.071046829223633,0.019174575805664062,1.209111213684082,-2.4832067489624023,0.15614604949951172,-0.8442211151123047,0.39977550506591797,0.3210115432739258
232,476556928.0,-2.715106964111328,1.3791017532348633,2.071046829223633,0.019174575805664062,1.209111213684082,-2.4832067489624023,0.15614604949951172,-0.8442211151123047,0.39977550506591797,0.3210115432739258
233,476556960.0,-3.22149658203125,0.6991281509399414,1.4976186752319336,0.019174575805664062,1.209111213684082,-2.4832067489624023,0.152435302734375,-0.8303241729736328,0.4192829132080078,0.33395862579345703
234,476556960.0,-3.22149658203125,0.6991281509399414,1.4976186752319336,0.019174575805664062,1.209111213684082,-2.4832067489624023,0.152435302734375,-0.8303241729736328,0.4192829132080078,0.33395862579345703
235,476557056.0,-3.520780563354492,-2.5247621536254883,3.9744958877563477,0.019174575805664062,1.209111213684082,-2.4832067489624023,0.152435302734375,-0.8303241729736328,0.4192829132080078,0.33395862579345703
236,476557056.0,-3.1077680587768555,-3.2598047256469727,4.8112945556640625,0.019174575805664062,1.209111213684082,-2.4832067489624023,0.152435302734375,-0.8303241729736328,0.4192829132080078,0.33395862579345703
237,476557056.0,-3.520780563354492,-2.5247621536254883,3.9744958877563477,0.019174575805664062,1.209111213684082,-2.4832067489624023,0.152435302734375,-0.8303241729736328,0.4192829132080078,0.33395862579345703
238,476557056.0,-3.1077680587768555,-3.2598047256469727,4.8112945556640625,0.019174575805664062,1.209111213684082,-2.4832067489624023,0.152435302734375,-0.8303241729736328,0.4192829132080078,0.33395862579345703
239,476557088.0,-3.059882164001465,-3.933793067932129,5.357189178466797,0.019174575805664062,1.209111213684082,-2.4832067489624023,0.152435302734375,-0.8303241729736328,0.4192829132080078,0.33395862579345703
240,476557088.0,-3.059882164001465,-3.933793067932129,5.357189178466797,0.019174575805664062,1.209111213684082,-2.4832067489624023,0.152435302734375,-0.8303241729736328,0.4192829132080078,0.33395862579345703
241,476557120.0,-2.7989063262939453,-5.043539047241211,5.332049369812012,0.019174575805664062,1.209111213684082,-2.4832067489624023,0.152435302734375,-0.8303241729736328,0.4192829132080078,0.33395862579345703
242,476557120.0,-2.2398433685302734,-5.776186943054199,5.591828346252441,0.019174575805664062,1.209111213684082,-2.4832067489624023,0.152435302734375,-0.8303241729736328,0.4192829132080078,0.33395862579345703
243,476557120.0,-2.7989063262939453,-5.043539047241211,5.332049369812012,0.019174575805664062,1.209111213684082,-2.4832067489624023,0.152435302734375,-0.8303241729736328,0.4192829132080078,0.33395862579345703
244,476557120.0,-2.2398433685302734,-5.776186943054199,5.591828346252441,0.019174575805664062,1.209111213684082,-2.4832067489624023,0.152435302734375,-0.8303241729736328,0.4192829132080078,0.33395862579345703
245,476557152.0,-2.460116386413574,-6.160468101501465,6.287364959716797,0.5433006286621094,-2.3479137420654297,-1.9462966918945312,0.152435302734375,-0.8303241729736328,0.4192829132080078,0.33395862579345703
246,476557152.0,-2.460116386413574,-6.160468101501465,6.287364959716797,0.5433006286621094,-2.3479137420654297,-1.9462966918945312,0.152435302734375,-0.8303241729736328,0.4192829132080078,0.33395862579345703
247,476557184.0,-2.752218246459961,-5.628939628601074,7.157683372497559,-0.19921016693115234,-2.475749969482422,-1.1973934173583984,0.152435302734375,-0.8303241729736328,0.4192829132080078,0.33395862579345703
248,476557184.0,-2.281743049621582,-5.760624885559082,8.28658390045166,-0.19921016693115234,-2.475749969482422,-1.1973934173583984,0.152435302734375,-0.8303241729736328,0.4192829132080078,0.33395862579345703
249,476557216.0,-1.3755102157592773,-7.178034782409668,9.062329292297363,-0.24501800537109375,-2.31595516204834,-0.7957763671875,0.152435302734375,-0.8303241729736328,0.4192829132080078,0.33395862579345703
250,476557216.0,-0.9577093124389648,-8.559531211853027,9.794977188110352,-0.24501800537109375,-2.31595516204834,-0.7957763671875,0.152435302734375,-0.8303241729736328,0.4192829132080078,0.33395862579345703
251,476557248.0,-0.6811704635620117,-8.933038711547852,10.152921676635742,-0.052199363708496094,-2.256298065185547,-0.35367774963378906,0.152435302734375,-0.8303241729736328,0.4192829132080078,0.33395862579345703
252,476557280.0,-1.1277027130126953,-7.556330680847168,11.62659740447998,-0.052199363708496094,-2.256298065185547,-0.35367774963378906,0.152435302734375,-0.8303241729736328,0.4192829132080078,0.33395862579345703
253,476557280.0,-1.2905139923095703,-4.44497013092041,13.734756469726562,-0.052199363708496094,-2.256298065185547,-0.35367774963378906,0.152435302734375,-0.8303241729736328,0.4192829132080078,0.33395862579345703
254,476557312.0,-1.4593095779418945,-6.159271240234375,12.243123054504395,-0.052199363708496094,-2.256298065185547,-0.35367774963378906,0.152435302734375,-0.8303241729736328,0.4192829132080078,0.33395862579345703
255,476557344.0,-1.635289192199707,-7.54555606842041,11.108237266540527,0.66900634765625,-1.2240257263183594,0.8394536972045898,0.152435302734375,-0.8303241729736328,0.4192829132080078,0.33395862579345703
256,476557344.0,-0.897852897644043,-5.296134948730469,12.300585746765137,0.66900634765625,-1.2240257263183594,0.8394536972045898,0.152435302734375,-0.8303241729736328,0.4192829132080078,0.33395862579345703
257,476557472.0,0.4070262908935547,-1.2749509811401367,11.201613426208496,-0.05965614318847656,0.00852203369140625,0.6029577255249023,-0.11152172088623047,-0.7676153182983398,0.624241828918457,0.0933074951171875
258,476557472.0,0.4070262908935547,-1.2749509811401367,11.201613426208496,-0.05965614318847656,0.00852203369140625,0.6029577255249023,-0.11152172088623047,-0.7676153182983398,0.624241828918457,0.0933074951171875
259,476557504.0,0.4393491744995117,-1.5586719512939453,10.615015983581543,-0.07244014739990234,0.11824703216552734,0.46872997283935547,-0.11139202117919922,-0.7742185592651367,0.6153945922851562,0.09723567962646484
260,476557504.0,0.23224449157714844,-2.218295097351074,9.61780071258545,-0.07244014739990234,0.11824703216552734,0.46872997283935547,-0.11139202117919922,-0.7742185592651367,0.6153945922851562,0.09723567962646484
261,476557504.0,0.4393491744995117,-1.5586719512939453,10.615015983581543,-0.07244014739990234,0.11824703216552734,0.46872997283935547,-0.11139202117919922,-0.7742185592651367,0.6153945922851562,0.09723567962646484
262,476557504.0,0.23224449157714844,-2.218295097351074,9.61780071258545,-0.07244014739990234,0.11824703216552734,0.46872997283935547,-0.11139202117919922,-0.7742185592651367,0.6153945922851562,0.09723567962646484
263,476557536.0,0.35315513610839844,-2.10336971282959,9.274222373962402,0.02982807159423828,0.08948421478271484,0.3590049743652344,-0.10953617095947266,-0.7787933349609375,0.6095247268676758,0.0998678207397461
264,476557536.0,0.5698366165161133,-1.5610666275024414,9.243097305297852,0.02982807159423828,0.08948421478271484,0.3590049743652344,-0.10953617095947266,-0.7787933349609375,0.6095247268676758,0.0998678207397461
265,476557536.0,0.35315513610839844,-2.10336971282959,9.274222373962402,0.02982807159423828,0.08948421478271484,0.3590049743652344,-0.10953617095947266,-0.7787933349609375,0.6095247268676758,0.0998678207397461
266,476557536.0,0.5698366165161133,-1.5610666275024414,9.243097305297852,0.02982807159423828,0.08948421478271484,0.3590049743652344,-0.10953617095947266,-0.7787933349609375,0.6095247268676758,0.0998678207397461
267,476557664.0,-0.3052692413330078,-2.2745609283447266,9.154508590698242,-0.10013771057128906,-0.08948421478271484,-0.05859088897705078,-0.110443115234375,-0.7835407257080078,0.6022748947143555,0.10569477081298828
268,476557696.0,-0.25379276275634766,-2.596590042114258,9.068314552307129,0.0287628173828125,-0.1331615447998047,-0.11292076110839844,-0.1122121810913086,-0.7825908660888672,0.6034832000732422,0.10366630554199219
269,476557696.0,-0.1580219268798828,-2.5307483673095703,9.069512367248535,0.0287628173828125,-0.1331615447998047,-0.11292076110839844,-0.1122121810913086,-0.7825908660888672,0.6034832000732422,0.10366630554199219
270,476557728.0,-0.08978462219238281,-2.0530900955200195,9.421470642089844,0.12037849426269531,-0.15872859954833984,-0.12463951110839844,-0.11225509643554688,-0.7820730209350586,0.6045188903808594,0.1013784408569336
271,476557760.0,-0.07422161102294922,-2.4230051040649414,9.698009490966797,0.12037849426269531,-0.15872859954833984,-0.12463951110839844,-0.11264419555664062,-0.781641960144043,0.605381965637207,0.09952259063720703
272,476557760.0,0.010773658752441406,-2.818060874938965,9.642940521240234,0.12037849426269531,-0.15872859954833984,-0.12463951110839844,-0.11264419555664062,-0.781641960144043,0.605381965637207,0.09952259063720703
273,476557760.0,0.010773658752441406,-2.818060874938965,9.642940521240234,0.12037849426269531,-0.15872859954833984,-0.12463951110839844,-0.11264419555664062,-0.781641960144043,0.605381965637207,0.09952259063720703
274,476557792.0,0.13288211822509766,-2.6779956817626953,9.712374687194824,0.12037849426269531,-0.15872859954833984,-0.12463951110839844,-0.11264419555664062,-0.781641960144043,0.605381965637207,0.09952259063720703
275,476557792.0,0.13288211822509766,-2.6779956817626953,9.712374687194824,0.12037849426269531,-0.15872859954833984,-0.12463951110839844,-0.11264419555664062,-0.781641960144043,0.605381965637207,0.09952259063720703
276,476557824.0,0.15323352813720703,-2.9258031845092773,9.670475006103516,0.12037849426269531,-0.15872859954833984,-0.12463951110839844,-0.11264419555664062,-0.781641960144043,0.605381965637207,0.09952259063720703
277,476557824.0,-0.028730392456054688,-2.7941179275512695,9.57590103149414,0.12037849426269531,-0.15872859954833984,-0.12463951110839844,-0.11264419555664062,-0.781641960144043,0.605381965637207,0.09952259063720703
278,476557824.0,0.15323352813720703,-2.9258031845092773,9.670475006103516,0.12037849426269531,-0.15872859954833984,-0.12463951110839844,-0.11264419555664062,-0.781641960144043,0.605381965637207,0.09952259063720703
279,476557824.0,-0.028730392456054688,-2.7941179275512695,9.57590103149414,0.12037849426269531,-0.15872859954833984,-0.12463951110839844,-0.11264419555664062,-0.781641960144043,0.605381965637207,0.09952259063720703
280,476557856.0,-0.037110328674316406,-2.974885940551758,9.59505558013916,-0.007456779479980469,-0.030893325805664062,-0.07883167266845703,-0.11264419555664062,-0.781641960144043,0.605381965637207,0.09952259063720703
281,476557856.0,-0.037110328674316406,-2.974885940551758,9.59505558013916,-0.007456779479980469,-0.030893325805664062,-0.07883167266845703,-0.11264419555664062,-0.781641960144043,0.605381965637207,0.09952259063720703
282,476557952.0,0.01197052001953125,-3.0119972229003906,9.47653865814209,0.013848304748535156,0.007456779479980469,-0.031958580017089844,-0.11264419555664062,-0.781641960144043,0.605381965637207,0.09952259063720703
283,476557984.0,-0.20830154418945312,-2.9222116470336914,9.609420776367188,0.04687213897705078,0.03835010528564453,-0.012783050537109375,-0.11264419555664062,-0.781641960144043,0.605381965637207,0.09952259063720703
284,476558016.0,-0.21428680419921875,-2.7043323516845703,9.69681167602539,-0.021305084228515625,0.06498241424560547,-0.03835010528564453,-0.11264419555664062,-0.781641960144043,0.605381965637207,0.09952259063720703
285,476558016.0,-0.11971282958984375,-2.6947555541992188,9.460975646972656,-0.021305084228515625,0.06498241424560547,-0.03835010528564453,-0.11264419555664062,-0.781641960144043,0.605381965637207,0.09952259063720703
286,476558048.0,-0.25379276275634766,-2.7905263900756836,9.486115455627441,-0.0745706558227539,0.12037849426269531,-0.06817817687988281,-0.11264419555664062,-0.781641960144043,0.605381965637207,0.09952259063720703
287,476558080.0,-0.2992839813232422,-2.846792221069336,9.482524871826172,-0.0745706558227539,0.12037849426269531,-0.06817817687988281,-0.11264419555664062,-0.781641960144043,0.605381965637207,0.09952259063720703
288,476558080.0,-0.3651266098022461,-2.9293947219848633,9.432244300842285,-0.0745706558227539,0.12037849426269531,-0.06817817687988281,-0.11264419555664062,-0.781641960144043,0.605381965637207,0.09952259063720703
289,476558080.0,-0.2992839813232422,-2.846792221069336,9.482524871826172,-0.0745706558227539,0.12037849426269531,-0.06817817687988281,-0.11264419555664062,-0.781641960144043,0.605381965637207,0.09952259063720703
290,476558080.0,-0.3651266098022461,-2.9293947219848633,9.432244300842285,-0.0745706558227539,0.12037849426269531,-0.06817817687988281,-0.11264419555664062,-0.781641960144043,0.605381965637207,0.09952259063720703
291,476558080.0,-0.2992839813232422,-2.846792221069336,9.482524871826172,-0.0745706558227539,0.12037849426269531,-0.06817817687988281,-0.11264419555664062,-0.781641960144043,0.605381965637207,0.09952259063720703
292,476558080.0,-0.3651266098022461,-2.9293947219848633,9.432244300842285,-0.0745706558227539,0.12037849426269531,-0.06817817687988281,-0.11264419555664062,-0.781641960144043,0.605381965637207,0.09952259063720703
293,476558112.0,-0.3866748809814453,-3.0419254302978516,9.292180061340332,-0.0745706558227539,0.12037849426269531,-0.06817817687988281,-0.11264419555664062,-0.781641960144043,0.605381965637207,0.09952259063720703
294,476558112.0,-0.2789325714111328,-2.973689079284668,9.21556282043457,-0.0745706558227539,0.12037849426269531,-0.06817817687988281,-0.11264419555664062,-0.781641960144043,0.605381965637207,0.09952259063720703
295,476558112.0,-0.3866748809814453,-3.0419254302978516,9.292180061340332,-0.0745706558227539,0.12037849426269531,-0.06817817687988281,-0.11264419555664062,-0.781641960144043,0.605381965637207,0.09952259063720703
296,476558112.0,-0.2789325714111328,-2.973689079284668,9.21556282043457,-0.0745706558227539,0.12037849426269531,-0.06817817687988281,-0.11264419555664062,-0.781641960144043,0.605381965637207,0.09952259063720703
297,476558112.0,-0.3866748809814453,-3.0419254302978516,9.292180061340332,-0.0745706558227539,0.12037849426269531,-0.06817817687988281,-0.11264419555664062,-0.781641960144043,0.605381965637207,0.09952259063720703
298,476558112.0,-0.2789325714111328,-2.973689079284668,9.21556282043457,-0.0745706558227539,0.12037849426269531,-0.06817817687988281,-0.11264419555664062,-0.781641960144043,0.605381965637207,0.09952259063720703
299,476558144.0,-0.2633695602416992,-3.053896903991699,9.190423011779785,-0.0745706558227539,0.12037849426269531,-0.06817817687988281,-0.11264419555664062,-0.781641960144043,0.605381965637207,0.09952259063720703
300,476558144.0,-0.2633695602416992,-3.053896903991699,9.190423011779785,-0.0745706558227539,0.12037849426269531,-0.06817817687988281,-0.11264419555664062,-0.781641960144043,0.605381965637207,0.09952259063720703
301,476558144.0,-0.2633695602416992,-3.053896903991699,9.190423011779785,-0.0745706558227539,0.12037849426269531,-0.06817817687988281,-0.11264419555664062,-0.781641960144043,0.605381965637207,0.09952259063720703
302,476558368.0,-0.1364736557006836,-2.759401321411133,9.318516731262207,0.05539512634277344,-0.04367637634277344,-0.0063915252685546875,-0.1053934097290039,-0.7713699340820312,0.6181564331054688,0.10824108123779297
303,476558368.0,-0.1364736557006836,-2.759401321411133,9.318516731262207,0.05539512634277344,-0.04367637634277344,-0.0063915252685546875,-0.1053934097290039,-0.7713699340820312,0.6181564331054688,0.10824108123779297
304,476558400.0,-0.16520404815673828,-2.711515426635742,9.390344619750977,0.021305084228515625,-0.04687213897705078,-0.011717796325683594,-0.1053934097290039,-0.7713699340820312,0.6181564331054688,0.10824108123779297
305,476558400.0,-0.18316173553466797,-2.8563690185546875,9.33647346496582,0.021305084228515625,-0.04687213897705078,-0.011717796325683594,-0.1053934097290039,-0.7713699340820312,0.6181564331054688,0.10824108123779297
306,476558400.0,-0.16520404815673828,-2.711515426635742,9.390344619750977,0.021305084228515625,-0.04687213897705078,-0.011717796325683594,-0.1053934097290039,-0.7713699340820312,0.6181564331054688,0.10824108123779297
307,476558400.0,-0.18316173553466797,-2.8563690185546875,9.33647346496582,0.021305084228515625,-0.04687213897705078,-0.011717796325683594,-0.1053934097290039,-0.7713699340820312,0.6181564331054688,0.10824108123779297
308,476558432.0,-0.2262582778930664,-2.9210147857666016,9.293376922607422,0.05006885528564453,-0.061786651611328125,-0.021305084228515625,-0.1053934097290039,-0.7713699340820312,0.6181564331054688,0.10824108123779297
309,476558432.0,-0.1759786605834961,-2.900663375854492,9.292180061340332,0.05006885528564453,-0.061786651611328125,-0.021305084228515625,-0.1053934097290039,-0.7713699340820312,0.6181564331054688,0.10824108123779297
310,476558432.0,-0.2262582778930664,-2.9210147857666016,9.293376922607422,0.05006885528564453,-0.061786651611328125,-0.021305084228515625,-0.1053934097290039,-0.7713699340820312,0.6181564331054688,0.10824108123779297
311,476558432.0,-0.1759786605834961,-2.900663375854492,9.292180061340332,0.05006885528564453,-0.061786651611328125,-0.021305084228515625,-0.1053934097290039,-0.7713699340820312,0.6181564331054688,0.10824108123779297
312,476558560.0,-0.09098243713378906,-2.715106964111328,9.608223915100098,0.040480613708496094,-0.024501800537109375,-0.011717796325683594,-0.1059112548828125,-0.7715425491333008,0.6191921234130859,0.10081768035888672
313,476558592.0,-0.08858776092529297,-2.84439754486084,9.534001350402832,-0.0031957626342773438,0.01597881317138672,-0.020239830017089844,-0.1059112548828125,-0.7715425491333008,0.6191921234130859,0.10081768035888672
314,476558592.0,-0.09098243713378906,-2.8851003646850586,9.460975646972656,-0.0031957626342773438,0.01597881317138672,-0.020239830017089844,-0.1059112548828125,-0.7715425491333008,0.6191921234130859,0.10081768035888672
315,476558624.0,-0.07182788848876953,-2.8348207473754883,9.428653717041016,0.01810932159423828,0.014913558959960938,-0.005326271057128906,-0.1059112548828125,-0.7715425491333008,0.6191921234130859,0.10081768035888672
316,476558656.0,-0.0945730209350586,-2.8611574172973633,9.367599487304688,0.01810932159423828,0.014913558959960938,-0.005326271057128906,-0.1059112548828125,-0.7715425491333008,0.6191921234130859,0.10081768035888672
317,476558656.0,-0.18196487426757812,-2.942563056945801,9.381964683532715,0.01810932159423828,0.014913558959960938,-0.005326271057128906,-0.1059112548828125,-0.7715425491333008,0.6191921234130859,0.10081768035888672
318,476558688.0,-0.16640186309814453,-2.882706642150879,9.3855562210083,0.01810932159423828,0.014913558959960938,-0.005326271057128906,-0.1059112548828125,-0.7715425491333008,0.6191921234130859,0.10081768035888672
319,476558720.0,-0.11253070831298828,-2.874326705932617,9.353233337402344,0.01810932159423828,0.014913558959960938,-0.005326271057128906,-0.1059112548828125,-0.7715425491333008,0.6191921234130859,0.10081768035888672
320,476558720.0,-0.12689590454101562,-2.84439754486084,9.317319869995117,0.01810932159423828,0.014913558959960938,-0.005326271057128906,-0.1059112548828125,-0.7715425491333008,0.6191921234130859,0.10081768035888672
321,476558752.0,-0.11612224578857422,-2.8024978637695312,9.415484428405762,0.031958580017089844,0.0031957626342773438,0.014913558959960938,-0.1059112548828125,-0.7715425491333008,0.6191921234130859,0.10081768035888672
322,476558752.0,-0.12450218200683594,-2.7402467727661133,9.416682243347168,0.031958580017089844,0.0031957626342773438,0.014913558959960938,-0.1059112548828125,-0.7715425491333008,0.6191921234130859,0.10081768035888672
323,476558784.0,-0.12210750579833984,-2.755809783935547,9.40471076965332,0.023435592651367188,0.009587287902832031,0.010652542114257812,-0.1059112548828125,-0.7715425491333008,0.6191921234130859,0.10081768035888672
324,476558816.0,-0.11612224578857422,-2.6468706130981445,9.443018913269043,0.0,0.01597881317138672,0.0170440673828125,-0.1059112548828125,-0.7715425491333008,0.6191921234130859,0.10081768035888672
325,476558816.0,-0.22984981536865234,-2.6372928619384766,9.488510131835938,0.0,0.01597881317138672,0.0170440673828125,-0.1059112548828125,-0.7715425491333008,0.6191921234130859,0.10081768035888672
326,476558848.0,-0.18316173553466797,-2.6708126068115234,9.45499038696289,-0.00852203369140625,0.021305084228515625,0.0063915252685546875,-0.1059112548828125,-0.7715425491333008,0.6191921234130859,0.10081768035888672
327,476558848.0,-0.12450218200683594,-2.630110740661621,9.438230514526367,-0.00852203369140625,0.021305084228515625,0.0063915252685546875,-0.1059112548828125,-0.7715425491333008,0.6191921234130859,0.10081768035888672
328,476558880.0,-0.08379936218261719,-2.624124526977539,9.396330833435059,-0.00852203369140625,0.021305084228515625,0.0063915252685546875,-0.1059112548828125,-0.7715425491333008,0.6191921234130859,0.10081768035888672
329,476558912.0,-0.09098243713378906,-2.687572479248047,9.330488204956055,-0.00852203369140625,0.021305084228515625,0.0063915252685546875,-0.1059112548828125,-0.7715425491333008,0.6191921234130859,0.10081768035888672
330,476558912.0,-0.10175609588623047,-2.850383758544922,9.223942756652832,-0.00852203369140625,0.021305084228515625,0.0063915252685546875,-0.1059112548828125,-0.7715425491333008,0.6191921234130859,0.10081768035888672
331,476558944.0,-0.04309654235839844,-2.7929210662841797,9.16648006439209,-0.0063915252685546875,0.031958580017089844,-0.02769756317138672,-0.1059112548828125,-0.7715425491333008,0.6191921234130859,0.10081768035888672
332,476559072.0,-0.16640186309814453,-2.7330636978149414,9.429850578308105,0.0,-0.033023834228515625,0.0010652542114257812,-0.10448646545410156,-0.7708091735839844,0.6204442977905273,0.10017013549804688
333,476559072.0,-0.12929058074951172,-2.6815872192382812,9.452595710754395,0.0,-0.033023834228515625,0.0010652542114257812,-0.10448646545410156,-0.7708091735839844,0.6204442977905273,0.10017013549804688
334,476559104.0,-0.09098243713378906,-2.711515426635742,9.49449634552002,0.0,-0.033023834228515625,0.0010652542114257812,-0.10448646545410156,-0.7708091735839844,0.6204442977905273,0.10017013549804688
335,476559136.0,-0.08379936218261719,-2.847989082336426,9.398724555969238,0.0,-0.033023834228515625,0.0010652542114257812,-0.10448646545410156,-0.7708091735839844,0.6204442977905273,0.10017013549804688
336,476559136.0,-0.08858776092529297,-2.753415107727051,9.49449634552002,0.0,-0.033023834228515625,0.0010652542114257812,-0.10448646545410156,-0.7708091735839844,0.6204442977905273,0.10017013549804688
337,476559168.0,-0.147247314453125,-2.7462329864501953,9.498086929321289,-0.011717796325683594,0.0,-0.0010652542114257812,-0.10448646545410156,-0.7708091735839844,0.6204442977905273,0.10017013549804688
338,476559168.0,-0.18555545806884766,-2.749823570251465,9.502876281738281,-0.011717796325683594,0.0,-0.0010652542114257812,-0.10448646545410156,-0.7708091735839844,0.6204442977905273,0.10017013549804688
339,476559200.0,-0.147247314453125,-2.759401321411133,9.419075965881348,-0.03515434265136719,0.0031957626342773438,-0.011717796325683594,-0.10448646545410156,-0.7708091735839844,0.6204442977905273,0.10017013549804688
340,476559232.0,-0.16161346435546875,-2.753415107727051,9.408302307128906,-0.020239830017089844,-0.0021305084228515625,-0.01597881317138672,-0.10448646545410156,-0.7708091735839844,0.6204442977905273,0.10017013549804688
341,476559232.0,-0.14126205444335938,-2.814469337463379,9.368796348571777,-0.020239830017089844,-0.0021305084228515625,-0.01597881317138672,-0.10448646545410156,-0.7708091735839844,0.6204442977905273,0.10017013549804688
342,476559360.0,-0.11372756958007812,-2.7378530502319336,9.489706993103027,0.012783050537109375,-0.005326271057128906,-0.021305084228515625,-0.10569572448730469,-0.7698163986206055,0.6216955184936523,0.09818458557128906
343,476559360.0,-0.11372756958007812,-2.7378530502319336,9.489706993103027,0.012783050537109375,-0.005326271057128906,-0.021305084228515625,-0.10569572448730469,-0.7698163986206055,0.6216955184936523,0.09818458557128906
344,476559392.0,-0.06464481353759766,-2.814469337463379,9.37478256225586,0.012783050537109375,-0.005326271057128906,-0.021305084228515625,-0.10569572448730469,-0.7698163986206055,0.6216955184936523,0.09818458557128906
345,476559392.0,-0.07182788848876953,-2.8312292098999023,9.422667503356934,0.012783050537109375,-0.005326271057128906,-0.021305084228515625,-0.10569572448730469,-0.7698163986206055,0.6216955184936523,0.09818458557128906
346,476559392.0,-0.06464481353759766,-2.814469337463379,9.37478256225586,0.012783050537109375,-0.005326271057128906,-0.021305084228515625,-0.10569572448730469,-0.7698163986206055,0.6216955184936523,0.09818458557128906
347,476559392.0,-0.07182788848876953,-2.8312292098999023,9.422667503356934,0.012783050537109375,-0.005326271057128906,-0.021305084228515625,-0.10569572448730469,-0.7698163986206055,0.6216955184936523,0.09818458557128906
348,476559424.0,-0.10654449462890625,-2.875523567199707,9.346051216125488,0.012783050537109375,-0.005326271057128906,-0.021305084228515625,-0.10569572448730469,-0.7698163986206055,0.6216955184936523,0.09818458557128906
349,476559424.0,-0.10654449462890625,-2.875523567199707,9.346051216125488,0.012783050537109375,-0.005326271057128906,-0.021305084228515625,-0.10569572448730469,-0.7698163986206055,0.6216955184936523,0.09818458557128906
350,476559456.0,-0.14365577697753906,-2.8635520935058594,9.367599487304688,0.022370338439941406,-0.0063915252685546875,-0.012783050537109375,-0.10569572448730469,-0.7698163986206055,0.6216955184936523,0.09818458557128906
351,476559456.0,-0.14365577697753906,-2.8635520935058594,9.367599487304688,0.022370338439941406,-0.0063915252685546875,-0.012783050537109375,-0.10569572448730469,-0.7698163986206055,0.6216955184936523,0.09818458557128906
352,476559552.0,-0.11612224578857422,-2.751021385192871,9.433442115783691,0.0170440673828125,-0.0063915252685546875,-0.020239830017089844,-0.10556602478027344,-0.7686080932617188,0.6234216690063477,0.09701919555664062
353,476559584.0,-0.09936237335205078,-2.778554916381836,9.393936157226562,0.0170440673828125,-0.0063915252685546875,-0.020239830017089844,-0.10556602478027344,-0.7685213088989258,0.6235942840576172,0.09701919555664062
354,476559616.0,-0.14006423950195312,-2.7749643325805664,9.419075965881348,0.0170440673828125,-0.0063915252685546875,-0.020239830017089844,-0.10560894012451172,-0.768305778503418,0.6238107681274414,0.09697628021240234
355,476559616.0,-0.08499622344970703,-2.751021385192871,9.450201988220215,0.0170440673828125,-0.0063915252685546875,-0.020239830017089844,-0.10560894012451172,-0.768305778503418,0.6238107681274414,0.09697628021240234
356,476559648.0,-0.10415077209472656,-2.7905263900756836,9.401119232177734,0.0170440673828125,-0.0063915252685546875,-0.020239830017089844,-0.10560894012451172,-0.7681760787963867,0.6239395141601562,0.09706306457519531
357,476559648.0,-0.07661628723144531,-2.785737991333008,9.358022689819336,0.0170440673828125,-0.0063915252685546875,-0.020239830017089844,-0.10560894012451172,-0.7681760787963867,0.6239395141601562,0.09706306457519531
358,476559648.0,-0.07661628723144531,-2.785737991333008,9.358022689819336,0.0170440673828125,-0.0063915252685546875,-0.020239830017089844,-0.10560894012451172,-0.7681760787963867,0.6239395141601562,0.09706306457519531
359,476559648.0,-0.07661628723144531,-2.785737991333008,9.358022689819336,0.0170440673828125,-0.0063915252685546875,-0.020239830017089844,-0.10560894012451172,-0.7681760787963867,0.6239395141601562,0.09706306457519531
360,476559680.0,-0.11612224578857422,-2.7989063262939453,9.37597942352295,0.0170440673828125,-0.0063915252685546875,-0.020239830017089844,-0.10560894012451172,-0.7681760787963867,0.6239395141601562,0.09706306457519531
361,476559680.0,-0.11612224578857422,-2.7989063262939453,9.37597942352295,0.0170440673828125,-0.0063915252685546875,-0.020239830017089844,-0.10560894012451172,-0.7681760787963867,0.6239395141601562,0.09706306457519531
362,476559680.0,-0.11612224578857422,-2.7989063262939453,9.37597942352295,0.0170440673828125,-0.0063915252685546875,-0.020239830017089844,-0.10560894012451172,-0.7681760787963867,0.6239395141601562,0.09706306457519531
363,476559712.0,-0.147247314453125,-2.8288354873657227,9.341261863708496,0.0170440673828125,-0.0063915252685546875,-0.020239830017089844,-0.10560894012451172,-0.7681760787963867,0.6239395141601562,0.09706306457519531
364,476559712.0,-0.15562725067138672,-2.770174980163574,9.312531471252441,0.0170440673828125,-0.0063915252685546875,-0.020239830017089844,-0.10560894012451172,-0.7681760787963867,0.6239395141601562,0.09706306457519531
365,476559712.0,-0.147247314453125,-2.8288354873657227,9.341261863708496,0.0170440673828125,-0.0063915252685546875,-0.020239830017089844,-0.10560894012451172,-0.7681760787963867,0.6239395141601562,0.09706306457519531
366,476559712.0,-0.15562725067138672,-2.770174980163574,9.312531471252441,0.0170440673828125,-0.0063915252685546875,-0.020239830017089844,-0.10560894012451172,-0.7681760787963867,0.6239395141601562,0.09706306457519531
367,476559712.0,-0.147247314453125,-2.8288354873657227,9.341261863708496,0.0170440673828125,-0.0063915252685546875,-0.020239830017089844,-0.10560894012451172,-0.7681760787963867,0.6239395141601562,0.09706306457519531
368,476559712.0,-0.15562725067138672,-2.770174980163574,9.312531471252441,0.0170440673828125,-0.0063915252685546875,-0.020239830017089844,-0.10560894012451172,-0.7681760787963867,0.6239395141601562,0.09706306457519531
369,476559744.0,-0.09337615966796875,-2.7402467727661133,9.324501991271973,-0.0031957626342773438,-0.011717796325683594,0.0,-0.10560894012451172,-0.7681760787963867,0.6239395141601562,0.09706306457519531
370,476559744.0,-0.09337615966796875,-2.7402467727661133,9.324501991271973,-0.0031957626342773438,-0.011717796325683594,0.0,-0.10560894012451172,-0.7681760787963867,0.6239395141601562,0.09706306457519531
371,476559744.0,-0.09337615966796875,-2.7402467727661133,9.324501991271973,-0.0031957626342773438,-0.011717796325683594,0.0,-0.10560894012451172,-0.7681760787963867,0.6239395141601562,0.09706306457519531
372,476559872.0,-0.08739089965820312,-2.663630485534668,9.475341796875,0.012783050537109375,-0.019174575805664062,0.004261016845703125,-0.10560894012451172,-0.7681760787963867,0.6239395141601562,0.09706306457519531
373,476559872.0,0.0131683349609375,-2.6839818954467773,9.490904808044434,0.012783050537109375,-0.019174575805664062,0.004261016845703125,-0.10560894012451172,-0.7681760787963867,0.6239395141601562,0.09706306457519531
374,476559904.0,0.0,-2.649264335632324,9.457385063171387,0.012783050537109375,-0.019174575805664062,0.004261016845703125,-0.10560894012451172,-0.7681760787963867,0.6239395141601562,0.09706306457519531
375,476559936.0,0.0131683349609375,-2.6432790756225586,9.484918594360352,-0.03515434265136719,0.019174575805664062,-0.025567054748535156,-0.10560894012451172,-0.7681760787963867,0.6239395141601562,0.09706306457519531
376,476559936.0,0.014365196228027344,-2.693558692932129,9.409499168395996,-0.03515434265136719,0.019174575805664062,-0.025567054748535156,-0.10560894012451172,-0.7681760787963867,0.6239395141601562,0.09706306457519531
377,476559968.0,-0.04429340362548828,-2.727078437805176,9.4071044921875,-0.014913558959960938,0.01597881317138672,-0.033023834228515625,-0.10560894012451172,-0.7681760787963867,0.6239395141601562,0.09706306457519531
378,476559968.0,-0.0023937225341796875,-2.7103185653686523,9.446610450744629,-0.014913558959960938,0.01597881317138672,-0.033023834228515625,-0.10560894012451172,-0.7681760787963867,0.6239395141601562,0.09706306457519531
379,476560000.0,-0.05387115478515625,-2.697150230407715,9.391542434692383,-0.05965614318847656,0.023435592651367188,-0.02769756317138672,-0.10560894012451172,-0.7681760787963867,0.6239395141601562,0.09706306457519531
380,476560032.0,-0.08379936218261719,-2.8240461349487305,9.262250900268555,-0.03728485107421875,0.01597881317138672,-0.03621959686279297,-0.10560894012451172,-0.7681760787963867,0.6239395141601562,0.09706306457519531
381,476560032.0,-0.0658416748046875,-2.812075614929199,9.301756858825684,-0.03728485107421875,0.01597881317138672,-0.03621959686279297,-0.10560894012451172,-0.7681760787963867,0.6239395141601562,0.09706306457519531
382,476560064.0,-0.06464481353759766,-2.818060874938965,9.312531471252441,0.007456779479980469,-0.009587287902832031,-0.04474163055419922,-0.10560894012451172,-0.7681760787963867,0.6239395141601562,0.09706306457519531
383,476560064.0,-0.046688079833984375,-2.8779172897338867,9.352036476135254,0.007456779479980469,-0.009587287902832031,-0.04474163055419922,-0.10560894012451172,-0.7681760787963867,0.6239395141601562,0.09706306457519531
384,476560096.0,-0.04549121856689453,-2.8515806198120117,9.389147758483887,-0.01810932159423828,-0.010652542114257812,-0.02982807159423828,-0.10560894012451172,-0.7681760787963867,0.6239395141601562,0.09706306457519531
385,476560128.0,-0.0395050048828125,-2.882706642150879,9.369993209838867,-0.007456779479980469,-0.0063915252685546875,-0.026632308959960938,-0.10560894012451172,-0.7681760787963867,0.6239395141601562,0.09706306457519531
386,476560128.0,-0.03591346740722656,-2.84439754486084,9.415484428405762,-0.007456779479980469,-0.0063915252685546875,-0.026632308959960938,-0.10560894012451172,-0.7681760787963867,0.6239395141601562,0.09706306457519531
387,476560160.0,-0.09816455841064453,-2.8874950408935547,9.466961860656738,-0.007456779479980469,-0.0063915252685546875,-0.026632308959960938,-0.10560894012451172,-0.7681760787963867,0.6239395141601562,0.09706306457519531
388,476560192.0,-0.08619308471679688,-2.7929210662841797,9.439427375793457,-0.007456779479980469,-0.0063915252685546875,-0.026632308959960938,-0.10560894012451172,-0.7681760787963867,0.6239395141601562,0.09706306457519531
389,476560192.0,-0.09577083587646484,-2.8192577362060547,9.445413589477539,-0.007456779479980469,-0.0063915252685546875,-0.026632308959960938,-0.10560894012451172,-0.7681760787963867,0.6239395141601562,0.09706306457519531
390,476560224.0,-0.0790109634399414,-2.8575668334960938,9.380767822265625,-0.007456779479980469,-0.0063915252685546875,-0.026632308959960938,-0.10560894012451172,-0.7681760787963867,0.6239395141601562,0.09706306457519531
391,476560224.0,-0.12450218200683594,-2.934183120727539,9.337671279907227,-0.007456779479980469,-0.0063915252685546875,-0.026632308959960938,-0.10560894012451172,-0.7681760787963867,0.6239395141601562,0.09706306457519531
392,476560352.0,-0.15562725067138672,-2.9246063232421875,9.316122055053711,-0.019174575805664062,0.012783050537109375,-0.014913558959960938,-0.10914802551269531,-0.7637739181518555,0.62860107421875,0.09766674041748047
393,476560384.0,-0.08858776092529297,-2.9281978607177734,9.33647346496582,-0.019174575805664062,0.012783050537109375,-0.014913558959960938,-0.10914802551269531,-0.7637739181518555,0.62860107421875,0.09766674041748047
394,476560384.0,-0.05865955352783203,-2.9940404891967773,9.298165321350098,-0.019174575805664062,0.012783050537109375,-0.014913558959960938,-0.10914802551269531,-0.7637739181518555,0.62860107421875,0.09766674041748047
395,476560416.0,-0.0682363510131836,-2.9820690155029297,9.30774211883545,-0.019174575805664062,0.012783050537109375,-0.014913558959960938,-0.10914802551269531,-0.7637739181518555,0.62860107421875,0.09766674041748047
396,476560448.0,-0.08978462219238281,-2.932986259460449,9.344853401184082,-0.0170440673828125,-0.01597881317138672,0.022370338439941406,-0.10914802551269531,-0.7637739181518555,0.62860107421875,0.09766674041748047
397,476560448.0,-0.0682363510131836,-2.940169334411621,9.393936157226562,-0.0170440673828125,-0.01597881317138672,0.022370338439941406,-0.10914802551269531,-0.7637739181518555,0.62860107421875,0.09766674041748047
398,476560480.0,0.005985260009765625,-2.934183120727539,9.399922370910645,0.0,-0.023435592651367188,0.031958580017089844,-0.10914802551269531,-0.7637739181518555,0.62860107421875,0.09766674041748047
399,476560512.0,-0.014365196228027344,-2.8671436309814453,9.413090705871582,0.013848304748535156,-0.0170440673828125,0.03621959686279297,-0.10914802551269531,-0.7637739181518555,0.62860107421875,0.09766674041748047
400,476560512.0,-0.04309654235839844,-2.7366552352905273,9.438230514526367,0.013848304748535156,-0.0170440673828125,0.03621959686279297,-0.10914802551269531,-0.7637739181518555,0.62860107421875,0.09766674041748047
401,476560544.0,-0.02035045623779297,-2.72109317779541,9.50646686553955,-0.01597881317138672,-0.005326271057128906,0.02769756317138672,-0.10914802551269531,-0.7637739181518555,0.62860107421875,0.09766674041748047
402,476560672.0,-0.033519744873046875,-2.806089401245117,9.433442115783691,0.021305084228515625,-0.0063915252685546875,0.005326271057128906,-0.11014080047607422,-0.7653274536132812,0.6266155242919922,0.09727859497070312
403,476560672.0,-0.046688079833984375,-2.8851003646850586,9.389147758483887,0.021305084228515625,-0.0063915252685546875,0.005326271057128906,-0.11014080047607422,-0.7653274536132812,0.6266155242919922,0.09727859497070312
404,476560704.0,-0.023941993713378906,-2.7989063262939453,9.434638977050781,0.021305084228515625,-0.0063915252685546875,0.005326271057128906,-0.11005401611328125,-0.7653274536132812,0.6266155242919922,0.09727859497070312
405,476560704.0,-0.02035045623779297,-2.8779172897338867,9.384359359741211,0.021305084228515625,-0.0063915252685546875,0.005326271057128906,-0.11005401611328125,-0.7653274536132812,0.6266155242919922,0.09727859497070312
406,476560736.0,-0.06225109100341797,-2.8623552322387695,9.390344619750977,0.021305084228515625,-0.0063915252685546875,0.005326271057128906,-0.11009788513183594,-0.7653274536132812,0.6266155242919922,0.09749412536621094
407,476560768.0,-0.040701866149902344,-2.8611574172973633,9.38675308227539,0.021305084228515625,-0.0063915252685546875,0.005326271057128906,-0.11009788513183594,-0.7653274536132812,0.6266155242919922,0.09749412536621094
408,476560768.0,-0.028730392456054688,-2.836017608642578,9.4537935256958,0.021305084228515625,-0.0063915252685546875,0.005326271057128906,-0.11009788513183594,-0.7653274536132812,0.6266155242919922,0.09749412536621094
409,476560768.0,-0.040701866149902344,-2.8611574172973633,9.38675308227539,0.021305084228515625,-0.0063915252685546875,0.005326271057128906,-0.11009788513183594,-0.7653274536132812,0.6266155242919922,0.09749412536621094
410,476560768.0,-0.028730392456054688,-2.836017608642578,9.4537935256958,0.021305084228515625,-0.0063915252685546875,0.005326271057128906,-0.11009788513183594,-0.7653274536132812,0.6266155242919922,0.09749412536621094
411,476560800.0,-0.037110328674316406,-2.818060874938965,9.416682243347168,0.021305084228515625,-0.0063915252685546875,0.005326271057128906,-0.11009788513183594,-0.7653274536132812,0.6266155242919922,0.09749412536621094
412,476560800.0,-0.037110328674316406,-2.818060874938965,9.416682243347168,0.021305084228515625,-0.0063915252685546875,0.005326271057128906,-0.11009788513183594,-0.7653274536132812,0.6266155242919922,0.09749412536621094
413,476560832.0,-0.041899681091308594,-2.79172420501709,9.42745590209961,-0.0031957626342773438,0.01810932159423828,-0.005326271057128906,-0.11009788513183594,-0.7653274536132812,0.6266155242919922,0.09749412536621094
414,476560832.0,-0.04788494110107422,-2.779752731323242,9.392739295959473,-0.0031957626342773438,0.01810932159423828,-0.005326271057128906,-0.11009788513183594,-0.7653274536132812,0.6266155242919922,0.09749412536621094
415,476560832.0,-0.041899681091308594,-2.79172420501709,9.42745590209961,-0.0031957626342773438,0.01810932159423828,-0.005326271057128906,-0.11009788513183594,-0.7653274536132812,0.6266155242919922,0.09749412536621094
416,476560832.0,-0.04788494110107422,-2.779752731323242,9.392739295959473,-0.0031957626342773438,0.01810932159423828,-0.005326271057128906,-0.11009788513183594,-0.7653274536132812,0.6266155242919922,0.09749412536621094
417,476560960.0,-0.04788494110107422,-2.8839035034179688,9.360416412353516,-0.005326271057128906,0.012783050537109375,-0.021305084228515625,-0.11009788513183594,-0.7653274536132812,0.6266155242919922,0.09749412536621094
418,476560992.0,-0.0790109634399414,-2.9150285720825195,9.294573783874512,0.004261016845703125,0.0063915252685546875,-0.0063915252685546875,-0.11009788513183594,-0.7653274536132812,0.6266155242919922,0.09749412536621094
419,476560992.0,-0.09936237335205078,-2.91263484954834,9.33527660369873,0.004261016845703125,0.0063915252685546875,-0.0063915252685546875,-0.11009788513183594,-0.7653274536132812,0.6266155242919922,0.09749412536621094
420,476561024.0,-0.08260154724121094,-2.8958749771118164,9.409499168395996,-0.01597881317138672,0.00852203369140625,0.0010652542114257812,-0.11009788513183594,-0.7653274536132812,0.6266155242919922,0.09749412536621094
421,476561024.0,-0.1077423095703125,-2.8707351684570312,9.395133018493652,-0.01597881317138672,0.00852203369140625,0.0010652542114257812,-0.11009788513183594,-0.7653274536132812,0.6266155242919922,0.09749412536621094
422,476561056.0,-0.1185159683227539,-2.874326705932617,9.366402626037598,-0.01597881317138672,0.00852203369140625,0.0010652542114257812,-0.11009788513183594,-0.7653274536132812,0.6266155242919922,0.09749412536621094
423,476561056.0,-0.1185159683227539,-2.874326705932617,9.366402626037598,-0.01597881317138672,0.00852203369140625,0.0010652542114257812,-0.11009788513183594,-0.7653274536132812,0.6266155242919922,0.09749412536621094
424,476561088.0,-0.10175609588623047,-2.806089401245117,9.482524871826172,-0.01597881317138672,0.00852203369140625,0.0010652542114257812,-0.11009788513183594,-0.7653274536132812,0.6266155242919922,0.09749412536621094
425,476561088.0,-0.14844417572021484,-2.7761611938476562,9.49569320678711,-0.01597881317138672,0.00852203369140625,0.0010652542114257812,-0.11009788513183594,-0.7653274536132812,0.6266155242919922,0.09749412536621094
426,476561088.0,-0.10175609588623047,-2.806089401245117,9.482524871826172,-0.01597881317138672,0.00852203369140625,0.0010652542114257812,-0.11009788513183594,-0.7653274536132812,0.6266155242919922,0.09749412536621094
427,476561088.0,-0.14844417572021484,-2.7761611938476562,9.49569320678711,-0.01597881317138672,0.00852203369140625,0.0010652542114257812,-0.11009788513183594,-0.7653274536132812,0.6266155242919922,0.09749412536621094
428,476561120.0,-0.08260154724121094,-2.727078437805176,9.471750259399414,-0.01597881317138672,0.00852203369140625,0.0010652542114257812,-0.11009788513183594,-0.7653274536132812,0.6266155242919922,0.09749412536621094
429,476561120.0,-0.08260154724121094,-2.727078437805176,9.471750259399414,-0.01597881317138672,0.00852203369140625,0.0010652542114257812,-0.11009788513183594,-0.7653274536132812,0.6266155242919922,0.09749412536621094
430,476561152.0,-0.1053476333618164,-2.6983470916748047,9.487313270568848,-0.04687213897705078,0.06604766845703125,-0.042611122131347656,-0.11009788513183594,-0.7653274536132812,0.6266155242919922,0.09749412536621094
431,476561152.0,-0.1053476333618164,-2.6983470916748047,9.487313270568848,-0.04687213897705078,0.06604766845703125,-0.042611122131347656,-0.11009788513183594,-0.7653274536132812,0.6266155242919922,0.09749412536621094
432,476561152.0,-0.13527584075927734,-2.679192543029785,9.492101669311523,-0.04687213897705078,0.06604766845703125,-0.042611122131347656,-0.11009788513183594,-0.7653274536132812,0.6266155242919922,0.09749412536621094
433,476561184.0,-0.1364736557006836,-2.6037731170654297,9.518438339233398,-0.05113410949707031,0.0692434310913086,-0.06711292266845703,-0.11009788513183594,-0.7653274536132812,0.6266155242919922,0.09749412536621094
434,476561184.0,-0.05267333984375,-2.7953147888183594,9.393936157226562,-0.05113410949707031,0.0692434310913086,-0.06711292266845703,-0.11009788513183594,-0.7653274536132812,0.6266155242919922,0.09749412536621094
435,476561216.0,-0.1628103256225586,-3.0491085052490234,8.998881340026855,-0.05113410949707031,0.031958580017089844,-0.11398601531982422,-0.11009788513183594,-0.7653274536132812,0.6266155242919922,0.09749412536621094
436,476561248.0,-0.09816455841064453,-3.22269344329834,8.895927429199219,-0.05113410949707031,0.031958580017089844,-0.11398601531982422,-0.11009788513183594,-0.7653274536132812,0.6266155242919922,0.09749412536621094
437,476561248.0,-0.03591346740722656,-3.404658317565918,8.757059097290039,-0.05113410949707031,0.031958580017089844,-0.11398601531982422,-0.11009788513183594,-0.7653274536132812,0.6266155242919922,0.09749412536621094
438,476561280.0,0.1496419906616211,-2.995237350463867,8.916278839111328,-0.05113410949707031,0.031958580017089844,-0.11398601531982422,-0.11009788513183594,-0.7653274536132812,0.6266155242919922,0.09749412536621094
439,476561280.0,0.19034481048583984,-3.2202987670898438,8.75466537475586,-0.05113410949707031,0.031958580017089844,-0.11398601531982422,-0.11009788513183594,-0.7653274536132812,0.6266155242919922,0.09749412536621094
440,476561312.0,0.03112506866455078,-3.714716911315918,8.478126525878906,-0.05113410949707031,0.031958580017089844,-0.11398601531982422,-0.11009788513183594,-0.7653274536132812,0.6266155242919922,0.09749412536621094
441,476561344.0,0.0011968612670898438,-4.545530319213867,8.018425941467285,-0.014913558959960938,-0.2780418395996094,0.12677001953125,-0.11009788513183594,-0.7653274536132812,0.6266155242919922,0.09749412536621094
442,476561344.0,-0.1711902618408203,-5.226700782775879,7.561119079589844,-0.014913558959960938,-0.2780418395996094,0.12677001953125,-0.11009788513183594,-0.7653274536132812,0.6266155242919922,0.09749412536621094
443,476561344.0,-0.1711902618408203,-5.226700782775879,7.561119079589844,-0.014913558959960938,-0.2780418395996094,0.12677001953125,-0.11009788513183594,-0.7653274536132812,0.6266155242919922,0.09749412536621094
444,476561376.0,-0.2442159652709961,-5.918646812438965,7.452179908752441,0.3334379196166992,-0.6551570892333984,0.5731296539306641,-0.11009788513183594,-0.7653274536132812,0.6266155242919922,0.09749412536621094
445,476561376.0,-0.2442159652709961,-5.918646812438965,7.452179908752441,0.3334379196166992,-0.6551570892333984,0.5731296539306641,-0.11009788513183594,-0.7653274536132812,0.6266155242919922,0.09749412536621094
446,476561408.0,0.1975269317626953,-6.270605087280273,7.972934722900391,0.4836444854736328,-0.8501062393188477,0.9374608993530273,-0.11009788513183594,-0.7653274536132812,0.6266155242919922,0.09749412536621094
447,476561408.0,0.6608190536499023,-6.542355537414551,7.885542869567871,0.4836444854736328,-0.8501062393188477,0.9374608993530273,-0.11009788513183594,-0.7653274536132812,0.6266155242919922,0.09749412536621094
448,476561408.0,0.1975269317626953,-6.270605087280273,7.972934722900391,0.4836444854736328,-0.8501062393188477,0.9374608993530273,-0.11009788513183594,-0.7653274536132812,0.6266155242919922,0.09749412536621094
449,476561408.0,0.6608190536499023,-6.542355537414551,7.885542869567871,0.4836444854736328,-0.8501062393188477,0.9374608993530273,-0.11009788513183594,-0.7653274536132812,0.6266155242919922,0.09749412536621094
450,476561440.0,0.7446193695068359,-6.811711311340332,7.9118804931640625,1.0077705383300781,-1.147324562072754,1.8237876892089844,-0.11613941192626953,-0.8001995086669922,0.5858745574951172,0.05424976348876953
451,476561440.0,0.7446193695068359,-6.811711311340332,7.9118804931640625,1.0077705383300781,-1.147324562072754,1.8237876892089844,-0.11613941192626953,-0.8001995086669922,0.5858745574951172,0.05424976348876953
452,476561568.0,1.5419120788574219,-2.1177358627319336,13.604268074035645,1.428563117980957,-0.9001750946044922,2.9956140518188477,-0.08959770202636719,-0.8654117584228516,0.4929542541503906,-0.000518798828125
453,476561568.0,1.9944305419921875,-0.7386331558227539,14.427899360656738,1.428563117980957,-0.9001750946044922,2.9956140518188477,-0.08959770202636719,-0.8654117584228516,0.4929542541503906,-0.000518798828125
454,476561600.0,2.339205741882324,1.9297847747802734,15.192870140075684,1.428563117980957,-0.9001750946044922,2.9956140518188477,-0.08959770202636719,-0.8654117584228516,0.4929542541503906,-0.000518798828125
455,476561600.0,2.927000045776367,2.9545345306396484,15.380820274353027,1.428563117980957,-0.9001750946044922,2.9956140518188477,-0.08959770202636719,-0.8654117584228516,0.4929542541503906,-0.000518798828125
456,476561632.0,3.124527931213379,2.197943687438965,14.639792442321777,0.5390396118164062,1.8909015655517578,2.0155410766601562,-0.08959770202636719,-0.8654117584228516,0.4929542541503906,-0.000518798828125
457,476561664.0,2.718698501586914,2.8036956787109375,13.841301918029785,0.7212057113647461,2.3223466873168945,1.6022062301635742,-0.08959770202636719,-0.8654117584228516,0.4929542541503906,-0.000518798828125
458,476561664.0,2.5307483673095703,4.205543518066406,13.899961471557617,0.7212057113647461,2.3223466873168945,1.6022062301635742,-0.08959770202636719,-0.8654117584228516,0.4929542541503906,-0.000518798828125
459,476561696.0,2.160832405090332,4.667637825012207,13.222381591796875,0.29615211486816406,3.0733814239501953,0.9118938446044922,-0.08959770202636719,-0.8654117584228516,0.4929542541503906,-0.000518798828125
460,476561728.0,1.6257123947143555,4.416238784790039,11.778634071350098,0.3685922622680664,3.387643814086914,0.0980072021484375,-0.08959770202636719,-0.8654117584228516,0.4929542541503906,-0.000518798828125
461,476561728.0,0.9852437973022461,4.429408073425293,10.580299377441406,0.3685922622680664,3.387643814086914,0.0980072021484375,-0.08959770202636719,-0.8654117584228516,0.4929542541503906,-0.000518798828125
462,476561760.0,0.46329212188720703,4.976499557495117,9.864411354064941,0.37817955017089844,3.397231101989746,-0.35367774963378906,-0.08959770202636719,-0.8654117584228516,0.4929542541503906,-0.000518798828125
463,476561760.0,0.3208322525024414,4.180402755737305,8.90550422668457,0.37817955017089844,3.397231101989746,-0.35367774963378906,-0.08959770202636719,-0.8654117584228516,0.4929542541503906,-0.000518798828125
464,476561792.0,-0.4597005844116211,3.4728946685791016,8.129758834838867,0.21732044219970703,3.2363719940185547,-1.0706233978271484,-0.08959770202636719,-0.8654117584228516,0.4929542541503906,-0.000518798828125
465,476561824.0,-1.2067136764526367,3.555497169494629,7.332466125488281,0.10226821899414062,3.021182060241699,-1.416844367980957,-0.08959770202636719,-0.8654117584228516,0.4929542541503906,-0.000518798828125
466,476561824.0,-1.6724004745483398,3.240650177001953,6.318490028381348,0.10226821899414062,3.021182060241699,-1.416844367980957,-0.08959770202636719,-0.8654117584228516,0.4929542541503906,-0.000518798828125
467,476561856.0,-1.971684455871582,1.262979507446289,4.215120315551758,0.26738929748535156,2.426746368408203,-1.8759870529174805,-0.08959770202636719,-0.8654117584228516,0.4929542541503906,-0.000518798828125
468,476561888.0,-2.53194522857666,1.3946647644042969,3.117344856262207,0.5326480865478516,1.591552734375,-2.4437904357910156,-0.08959770202636719,-0.8654117584228516,0.4929542541503906,-0.000518798828125
469,476561888.0,-2.9030580520629883,1.7729597091674805,3.46212100982666,0.5326480865478516,1.591552734375,-2.4437904357910156,-0.08959770202636719,-0.8654117584228516,0.4929542541503906,-0.000518798828125
470,476561920.0,-2.9210147857666016,0.32442378997802734,2.8659467697143555,0.3622007369995117,1.151585578918457,-2.5652341842651367,-0.08959770202636719,-0.8654117584228516,0.4929542541503906,-0.000518798828125
471,476561920.0,-3.0143909454345703,-0.5770196914672852,2.1823806762695312,0.3622007369995117,1.151585578918457,-2.5652341842651367,-0.08959770202636719,-0.8654117584228516,0.4929542541503906,-0.000518798828125
472,476561952.0,-3.1041765213012695,-0.9110212326049805,1.5299406051635742,0.4442281723022461,0.15766334533691406,-2.798534393310547,-0.08959770202636719,-0.8654117584228516,0.4929542541503906,-0.000518798828125
473,476561984.0,-3.5746517181396484,-1.5814180374145508,1.0307350158691406,0.449554443359375,-0.33663368225097656,-2.8805627822875977,-0.08959770202636719,-0.8654117584228516,0.4929542541503906,-0.000518798828125
474,476561984.0,-3.671619415283203,-2.4289913177490234,1.1863622665405273,0.449554443359375,-0.33663368225097656,-2.8805627822875977,-0.08959770202636719,-0.8654117584228516,0.4929542541503906,-0.000518798828125
475,476562016.0,-3.0143909454345703,-3.2598047256469727,2.281743049621582,0.6732673645019531,-1.316706657409668,-2.9647207260131836,-0.08959770202636719,-0.8654117584228516,0.4929542541503906,-0.000518798828125
476,476562048.0,-3.0155887603759766,-3.7961225509643555,3.0969934463500977,0.5454311370849609,-2.029390335083008,-2.7942733764648438,-0.08959770202636719,-0.8654117584228516,0.4929542541503906,-0.000518798828125
477,476562048.0,-2.84320068359375,-5.2099409103393555,3.7877416610717773,0.5454311370849609,-2.029390335083008,-2.7942733764648438,-0.08959770202636719,-0.8654117584228516,0.4929542541503906,-0.000518798828125
478,476562048.0,-2.84320068359375,-5.2099409103393555,3.7877416610717773,0.5454311370849609,-2.029390335083008,-2.7942733764648438,-0.08959770202636719,-0.8654117584228516,0.4929542541503906,-0.000518798828125
479,476562080.0,-2.711515426635742,-6.787768363952637,4.4389848709106445,0.4793834686279297,-2.3116941452026367,-2.6685686111450195,-0.08959770202636719,-0.8654117584228516,0.4929542541503906,-0.000518798828125
480,476562080.0,-2.806089401245117,-6.670449256896973,4.975302696228027,0.4793834686279297,-2.3116941452026367,-2.6685686111450195,-0.08959770202636719,-0.8654117584228516,0.4929542541503906,-0.000518798828125
481,476562080.0,-2.711515426635742,-6.787768363952637,4.4389848709106445,0.4793834686279297,-2.3116941452026367,-2.6685686111450195,-0.08959770202636719,-0.8654117584228516,0.4929542541503906,-0.000518798828125
482,476562080.0,-2.806089401245117,-6.670449256896973,4.975302696228027,0.4793834686279297,-2.3116941452026367,-2.6685686111450195,-0.08959770202636719,-0.8654117584228516,0.4929542541503906,-0.000518798828125
483,476562112.0,-2.4768762588500977,-6.037162780761719,6.122159957885742,0.054329872131347656,-2.7900123596191406,-2.208359718322754,-0.08959770202636719,-0.8654117584228516,0.4929542541503906,-0.000518798828125
484,476562112.0,-2.4768762588500977,-6.037162780761719,6.122159957885742,0.054329872131347656,-2.7900123596191406,-2.208359718322754,-0.08959770202636719,-0.8654117584228516,0.4929542541503906,-0.000518798828125
485,476562144.0,-1.7825374603271484,-6.827274322509766,7.478516578674316,0.054329872131347656,-2.7900123596191406,-2.208359718322754,-0.08959770202636719,-0.8654117584228516,0.4929542541503906,-0.000518798828125
486,476562144.0,-1.7825374603271484,-6.827274322509766,7.478516578674316,0.054329872131347656,-2.7900123596191406,-2.208359718322754,-0.08959770202636719,-0.8654117584228516,0.4929542541503906,-0.000518798828125
487,476562240.0,-0.16999340057373047,-6.627351760864258,12.821340560913086,-0.334503173828125,-2.102895736694336,0.5912389755249023,-0.08959770202636719,-0.8654117584228516,0.4929542541503906,-0.000518798828125
488,476562272.0,-0.7362394332885742,-8.074690818786621,10.843669891357422,-0.10226821899414062,-1.5201778411865234,0.9385261535644531,-0.08959770202636719,-0.8654117584228516,0.4929542541503906,-0.000518798828125
489,476562304.0,-0.033519744873046875,-6.646506309509277,11.50808048248291,0.48151397705078125,-1.428563117980957,1.0855369567871094,-0.08959770202636719,-0.8654117584228516,0.4929542541503906,-0.000518798828125
490,476562304.0,0.42977142333984375,-3.689577102661133,14.237554550170898,0.48151397705078125,-1.428563117980957,1.0855369567871094,-0.08959770202636719,-0.8654117584228516,0.4929542541503906,-0.000518798828125
491,476562336.0,0.3938579559326172,-2.6360960006713867,13.95742416381836,0.19388389587402344,-0.7616872787475586,1.1803483963012695,-0.08959770202636719,-0.8654117584228516,0.4929542541503906,-0.000518798828125
492,476562368.0,0.059856414794921875,-3.226284980773926,12.26706600189209,0.5251913070678711,-0.40161609649658203,0.9385261535644531,-0.08959770202636719,-0.8654117584228516,0.4929542541503906,-0.000518798828125
493,476562368.0,0.20351314544677734,-3.3040990829467773,11.485335350036621,0.5251913070678711,-0.40161609649658203,0.9385261535644531,-0.08959770202636719,-0.8654117584228516,0.4929542541503906,-0.000518798828125
494,476562368.0,0.059856414794921875,-3.226284980773926,12.26706600189209,0.5251913070678711,-0.40161609649658203,0.9385261535644531,-0.08959770202636719,-0.8654117584228516,0.4929542541503906,-0.000518798828125
495,476562368.0,0.20351314544677734,-3.3040990829467773,11.485335350036621,0.5251913070678711,-0.40161609649658203,0.9385261535644531,-0.08959770202636719,-0.8654117584228516,0.4929542541503906,-0.000518798828125
496,476562400.0,0.5746250152587891,-3.03354549407959,11.413507461547852,0.6253290176391602,-0.2652587890625,0.8458452224731445,-0.08959770202636719,-0.8654117584228516,0.4929542541503906,-0.000518798828125
497,476562400.0,0.610539436340332,-1.3886785507202148,12.122212409973145,0.6253290176391602,-0.2652587890625,0.8458452224731445,-0.08959770202636719,-0.8654117584228516,0.4929542541503906,-0.000518798828125
498,476562400.0,0.5746250152587891,-3.03354549407959,11.413507461547852,0.6253290176391602,-0.2652587890625,0.8458452224731445,-0.08959770202636719,-0.8654117584228516,0.4929542541503906,-0.000518798828125
499,476562400.0,0.610539436340332,-1.3886785507202148,12.122212409973145,0.6253290176391602,-0.2652587890625,0.8458452224731445,-0.08959770202636719,-0.8654117584228516,0.4929542541503906,-0.000518798828125
500,476562432.0,0.9349641799926758,-1.1408710479736328,11.498503684997559,0.10439872741699219,0.11185550689697266,0.6402425765991211,-0.08959770202636719,-0.8654117584228516,0.4929542541503906,-0.000518798828125
501,476562432.0,0.9349641799926758,-1.1408710479736328,11.498503684997559,0.10439872741699219,0.11185550689697266,0.6402425765991211,-0.08959770202636719,-0.8654117584228516,0.4929542541503906,-0.000518798828125
502,476562560.0,0.4285745620727539,-3.1185426712036133,8.621782302856445,0.12890052795410156,0.2428874969482422,0.22264671325683594,-0.08959770202636719,-0.8654117584228516,0.4929542541503906,-0.000518798828125
503,476562560.0,0.26935577392578125,-3.402263641357422,8.481718063354492,0.12890052795410156,0.2428874969482422,0.22264671325683594,-0.08959770202636719,-0.8654117584228516,0.4929542541503906,-0.000518798828125
504,476562592.0,0.3256206512451172,-3.059882164001465,8.68642807006836,0.12890052795410156,0.2428874969482422,0.22264671325683594,-0.08959770202636719,-0.8654117584228516,0.4929542541503906,-0.000518798828125
505,476562624.0,0.3711118698120117,-2.497227668762207,8.910292625427246,0.12890052795410156,0.2428874969482422,0.22264671325683594,-0.08959770202636719,-0.8654117584228516,0.4929542541503906,-0.000518798828125
506,476562624.0,0.2765378952026367,-2.572648048400879,8.933038711547852,0.12890052795410156,0.2428874969482422,0.22264671325683594,-0.08959770202636719,-0.8654117584228516,0.4929542541503906,-0.000518798828125
507,476562656.0,0.13527584075927734,-2.9461545944213867,8.779805183410645,-0.09694194793701172,0.0809621810913086,0.041545867919921875,-0.08959770202636719,-0.8654117584228516,0.4929542541503906,-0.000518798828125
508,476562656.0,0.007182121276855469,-3.150864601135254,8.808536529541016,-0.09694194793701172,0.0809621810913086,0.041545867919921875,-0.08959770202636719,-0.8654117584228516,0.4929542541503906,-0.000518798828125
509,476562688.0,-0.03112506866455078,-3.1149511337280273,8.893532752990723,0.0063915252685546875,0.0031957626342773438,0.01810932159423828,-0.08959770202636719,-0.8654117584228516,0.4929542541503906,-0.000518798828125
510,476562720.0,-0.06703948974609375,-2.9533376693725586,8.967755317687988,0.04687213897705078,-0.009587287902832031,0.0170440673828125,-0.08959770202636719,-0.8654117584228516,0.4929542541503906,-0.000518798828125
511,476562720.0,-0.0658416748046875,-2.8958749771118164,9.09465217590332,0.04687213897705078,-0.009587287902832031,0.0170440673828125,-0.08959770202636719,-0.8654117584228516,0.4929542541503906,-0.000518798828125
512,476562752.0,-0.03471660614013672,-3.057488441467285,9.228731155395508,0.004261016845703125,-0.01810932159423828,-0.005326271057128906,-0.08959770202636719,-0.8654117584228516,0.4929542541503906,-0.000518798828125
513,476562784.0,-0.05865955352783203,-3.184385299682617,9.119791984558105,0.03941535949707031,-0.02982807159423828,-0.00852203369140625,-0.08959770202636719,-0.8654117584228516,0.4929542541503906,-0.000518798828125
514,476562784.0,-0.08260154724121094,-2.9880542755126953,9.366402626037598,0.03941535949707031,-0.02982807159423828,-0.00852203369140625,-0.08959770202636719,-0.8654117584228516,0.4929542541503906,-0.000518798828125
515,476562816.0,-0.0658416748046875,-3.065868377685547,9.42506217956543,0.012783050537109375,-0.021305084228515625,-0.011717796325683594,-0.08959770202636719,-0.8654117584228516,0.4929542541503906,-0.000518798828125
516,476562816.0,-0.16161346435546875,-3.091008186340332,9.428653717041016,0.012783050537109375,-0.021305084228515625,-0.011717796325683594,-0.08959770202636719,-0.8654117584228516,0.4929542541503906,-0.000518798828125
517,476562944.0,-0.040701866149902344,-3.155653953552246,9.275420188903809,0.033023834228515625,0.030893325805664062,-0.0010652542114257812,-0.08959770202636719,-0.8654117584228516,0.4929542541503906,-0.000518798828125
518,476562976.0,-0.0395050048828125,-3.1065711975097656,9.173663139343262,0.042611122131347656,0.025567054748535156,0.0,-0.08959770202636719,-0.8654117584228516,0.4929542541503906,-0.000518798828125
519,476562976.0,0.022745132446289062,-2.9940404891967773,9.227534294128418,0.042611122131347656,0.025567054748535156,0.0,-0.08959770202636719,-0.8654117584228516,0.4929542541503906,-0.000518798828125
520,476563008.0,0.14605045318603516,-2.8779172897338867,9.177254676818848,-0.033023834228515625,0.031958580017089844,-0.005326271057128906,-0.08959770202636719,-0.8654117584228516,0.4929542541503906,-0.000518798828125
521,476563040.0,0.010773658752441406,-3.095796585083008,9.034794807434082,-0.033023834228515625,0.031958580017089844,-0.005326271057128906,-0.12597942352294922,-0.8052492141723633,0.5719337463378906,0.0925741195678711
522,476563136.0,0.0,-3.1688222885131836,9.364007949829102,0.05539512634277344,-0.07989692687988281,-0.040480613708496094,-0.1287851333618164,-0.8043861389160156,0.5726242065429688,0.09227180480957031
523,476563168.0,0.016759872436523438,-3.069459915161133,9.441822052001953,0.01810932159423828,-0.0745706558227539,-0.011717796325683594,-0.1287851333618164,-0.8043861389160156,0.5726242065429688,0.09227180480957031
524,476563200.0,0.004788398742675781,-3.0862197875976562,9.516044616699219,-0.04687213897705078,-0.060721397399902344,-0.010652542114257812,-0.1287851333618164,-0.8043861389160156,0.5726242065429688,0.09227180480957031
525,476563200.0,0.09816455841064453,-3.249030113220215,9.449005126953125,-0.04687213897705078,-0.060721397399902344,-0.010652542114257812,-0.1287851333618164,-0.8043861389160156,0.5726242065429688,0.09227180480957031
526,476563232.0,0.07661628723144531,-3.20473575592041,9.486115455627441,0.05646038055419922,-0.034089088439941406,-0.0031957626342773438,-0.1287851333618164,-0.8043861389160156,0.5726242065429688,0.09227180480957031
527,476563264.0,0.0945730209350586,-3.0766429901123047,9.5651273727417,0.031958580017089844,0.0063915252685546875,0.022370338439941406,-0.1287851333618164,-0.8043861389160156,0.5726242065429688,0.09227180480957031
528,476563264.0,0.05027961730957031,-3.1041765213012695,9.530409812927246,0.031958580017089844,0.0063915252685546875,0.022370338439941406,-0.1287851333618164,-0.8043861389160156,0.5726242065429688,0.09227180480957031
529,476563296.0,0.06105327606201172,-3.1077680587768555,9.484918594360352,0.01810932159423828,0.01810932159423828,0.01810932159423828,-0.1287851333618164,-0.8043861389160156,0.5726242065429688,0.09227180480957031
530,476563296.0,-0.0023937225341796875,-3.091008186340332,9.433442115783691,0.01810932159423828,0.01810932159423828,0.01810932159423828,-0.1287851333618164,-0.8043861389160156,0.5726242065429688,0.09227180480957031
531,476563328.0,-0.03471660614013672,-3.1472740173339844,9.30654525756836,-0.0063915252685546875,0.033023834228515625,0.019174575805664062,-0.1287851333618164,-0.8043861389160156,0.5726242065429688,0.09227180480957031
532,476563456.0,-0.06703948974609375,-2.970097541809082,9.316122055053711,-0.0063915252685546875,0.033023834228515625,0.019174575805664062,-0.12740421295166016,-0.805206298828125,0.5723228454589844,0.08873271942138672
533,476563456.0,-0.02154827117919922,-2.9820690155029297,9.301756858825684,-0.0063915252685546875,0.033023834228515625,0.019174575805664062,-0.12740421295166016,-0.805206298828125,0.5723228454589844,0.08873271942138672
534,476563488.0,-0.03591346740722656,-2.9844627380371094,9.330488204956055,-0.0063915252685546875,0.033023834228515625,0.019174575805664062,-0.12740421295166016,-0.805206298828125,0.5723228454589844,0.08873271942138672
535,476563488.0,-0.07422161102294922,-2.9557313919067383,9.311333656311035,-0.0063915252685546875,0.033023834228515625,0.019174575805664062,-0.12740421295166016,-0.805206298828125,0.5723228454589844,0.08873271942138672
536,476563488.0,0.005985260009765625,-3.055093765258789,9.420273780822754,-0.0063915252685546875,0.033023834228515625,0.019174575805664062,-0.12740421295166016,-0.805206298828125,0.5723228454589844,0.08873271942138672
537,476563520.0,0.040701866149902344,-3.123331069946289,9.440624237060547,-0.0063915252685546875,0.033023834228515625,0.019174575805664062,-0.12740421295166016,-0.805206298828125,0.5723228454589844,0.08873271942138672
538,476563520.0,0.08499622344970703,-3.0766429901123047,9.42625904083252,-0.0063915252685546875,0.033023834228515625,0.019174575805664062,-0.12740421295166016,-0.805206298828125,0.5723228454589844,0.08873271942138672
539,476563520.0,0.07422161102294922,-3.1065711975097656,9.411893844604492,-0.0063915252685546875,0.033023834228515625,0.019174575805664062,-0.12740421295166016,-0.805206298828125,0.5723228454589844,0.08873271942138672
540,476563552.0,0.07541942596435547,-3.124527931213379,9.349641799926758,-0.0063915252685546875,0.033023834228515625,0.019174575805664062,-0.12740421295166016,-0.805206298828125,0.5723228454589844,0.08873271942138672
541,476563552.0,0.06943321228027344,-3.0766429901123047,9.378373146057129,-0.0063915252685546875,0.033023834228515625,0.019174575805664062,-0.12740421295166016,-0.805206298828125,0.5723228454589844,0.08873271942138672
542,476563552.0,0.05865955352783203,-3.1939620971679688,9.277813911437988,-0.0063915252685546875,0.033023834228515625,0.019174575805664062,-0.12740421295166016,-0.805206298828125,0.5723228454589844,0.08873271942138672
543,476563584.0,0.016759872436523438,-3.2394533157348633,9.279010772705078,0.04687213897705078,0.025567054748535156,0.0010652542114257812,-0.12740421295166016,-0.805206298828125,0.5723228454589844,0.08873271942138672
544,476563584.0,0.027533531188964844,-3.0503053665161133,9.35682487487793,0.04687213897705078,0.025567054748535156,0.0010652542114257812,-0.12740421295166016,-0.805206298828125,0.5723228454589844,0.08873271942138672
545,476563616.0,0.0,-3.0060110092163086,9.348444938659668,0.02769756317138672,0.02982807159423828,0.0,-0.12740421295166016,-0.805206298828125,0.5723228454589844,0.08873271942138672
546,476563648.0,0.02035045623779297,-2.937774658203125,9.364007949829102,-0.01597881317138672,0.040480613708496094,-0.011717796325683594,-0.12740421295166016,-0.805206298828125,0.5723228454589844,0.08873271942138672
547,476563648.0,0.009576797485351562,-3.0096025466918945,9.320911407470703,-0.01597881317138672,0.040480613708496094,-0.011717796325683594,-0.12740421295166016,-0.805206298828125,0.5723228454589844,0.08873271942138672
548,476563680.0,-0.02154827117919922,-3.0742483139038086,9.258659362792969,-0.01597881317138672,0.040480613708496094,-0.011717796325683594,-0.12740421295166016,-0.805206298828125,0.5723228454589844,0.08873271942138672
549,476563712.0,-0.0035905838012695312,-3.059882164001465,9.280208587646484,-0.01597881317138672,0.040480613708496094,-0.011717796325683594,-0.12740421295166016,-0.805206298828125,0.5723228454589844,0.08873271942138672
550,476563712.0,0.0,-2.9473514556884766,9.289785385131836,-0.01597881317138672,0.040480613708496094,-0.011717796325683594,-0.12740421295166016,-0.805206298828125,0.5723228454589844,0.08873271942138672
551,476563744.0,0.0,-2.9760828018188477,9.30654525756836,-0.040480613708496094,0.05113410949707031,-0.020239830017089844,-0.12740421295166016,-0.805206298828125,0.5723228454589844,0.08873271942138672
552,476563744.0,-0.06344795227050781,-3.089811325073242,9.21675968170166,-0.040480613708496094,0.05113410949707031,-0.020239830017089844,-0.12740421295166016,-0.805206298828125,0.5723228454589844,0.08873271942138672
553,476563776.0,-0.09936237335205078,-3.123331069946289,9.174860000610352,-0.013848304748535156,0.03941535949707031,-0.020239830017089844,-0.12740421295166016,-0.805206298828125,0.5723228454589844,0.08873271942138672
554,476563808.0,-0.05267333984375,-3.0993881225585938,9.217957496643066,-0.009587287902832031,0.020239830017089844,-0.024501800537109375,-0.12740421295166016,-0.805206298828125,0.5723228454589844,0.08873271942138672
555,476563808.0,-0.040701866149902344,-3.088613510131836,9.217957496643066,-0.009587287902832031,0.020239830017089844,-0.024501800537109375,-0.12740421295166016,-0.805206298828125,0.5723228454589844,0.08873271942138672
556,476563840.0,-0.037110328674316406,-3.120936393737793,9.124580383300781,-0.031958580017089844,0.023435592651367188,-0.01810932159423828,-0.12740421295166016,-0.805206298828125,0.5723228454589844,0.08873271942138672
557,476563872.0,-0.04309654235839844,-3.15206241607666,9.074300765991211,-0.031958580017089844,0.023435592651367188,-0.01810932159423828,-0.12740421295166016,-0.805206298828125,0.5723228454589844,0.08873271942138672
558,476563872.0,-0.11731910705566406,-3.1963558197021484,9.059934616088867,-0.031958580017089844,0.023435592651367188,-0.01810932159423828,-0.12740421295166016,-0.805206298828125,0.5723228454589844,0.08873271942138672
559,476563904.0,-0.016759872436523438,-3.089811325073242,9.137748718261719,-0.031958580017089844,0.023435592651367188,-0.01810932159423828,-0.12740421295166016,-0.805206298828125,0.5723228454589844,0.08873271942138672
