,timestamp,accel_x,accel_y,accel_z,gyro_x,gyro_y,gyro_z,ori_scalar,ori_x,ori_y,ori_z
0,475561536.0,-1.070240021,0.549485207,9.830891609,-0.368592262,0.177904129,-0.267389297,0.039662361,0.253037453,0.966617584,-0.004359245
1,475561632.0,-0.877501488,0.454912186,9.835680008,-0.368592262,0.177904129,-0.267389297,0.039662361,0.253037453,0.966617584,-0.004359245
2,475561632.0,-0.707508087,0.472868919,9.93384552,-0.368592262,0.177904129,-0.267389297,0.039662361,0.253037453,0.966617584,-0.004359245
3,475561664.0,-0.772152901,0.077813148,9.678854942,-0.368592262,0.177904129,-0.267389297,0.039662361,0.253037453,0.966617584,-0.004359245
4,475561664.0,-0.974469185,-0.068236351,9.791385651,-0.368592262,0.177904129,-0.267389297,0.039662361,0.253037453,0.966617584,-0.004359245
5,475561696.0,-0.66321373,0.183161736,10.02482796,-0.368592262,0.177904129,-0.267389297,0.039662361,0.253037453,0.966617584,-0.004359245
6,475561728.0,-0.604554176,0.232244492,9.806948662,-0.368592262,0.177904129,-0.267389297,0.039662361,0.253037453,0.966617584,-0.004359245
7,475561728.0,-1.015172005,0.037110329,9.607027054,-0.368592262,0.177904129,-0.267389297,0.039662361,0.253037453,0.966617584,-0.004359245
8,475561760.0,-1.249811172,0.050279617,9.61540699,-0.368592262,0.177904129,-0.267389297,0.039662361,0.253037453,0.966617584,-0.004359245
9,475561792.0,-1.091789246,-0.153233528,9.609420776,-0.368592262,0.177904129,-0.267389297,0.039662361,0.253037453,0.966617584,-0.004359245
10,475561792.0,-1.027143478,-0.361535072,9.409499168,-0.368592262,0.177904129,-0.267389297,0.039662361,0.253037453,0.966617584,-0.004359245
11,475561824.0,-1.167208672,-0.286115646,9.476538658,-0.368592262,0.177904129,-0.267389297,0.040913582,0.254245758,0.966272354,-0.001899719
12,475561952.0,-1.828028679,-0.891866684,9.806948662,-0.074570656,-0.106529236,-0.004261017,0.036468506,0.252950668,0.966790199,0.001682281
13,475561952.0,-1.568249702,-0.843981743,9.799765587,-0.074570656,-0.106529236,-0.004261017,0.036468506,0.252950668,0.966790199,0.001682281
14,475561984.0,-1.158828735,-0.889472961,9.83208847,-0.074570656,-0.106529236,-0.004261017,0.036468506,0.252950668,0.966790199,0.001682281
15,475561984.0,-0.83919239,-1.04270649,9.737514496,-0.074570656,-0.106529236,-0.004261017,0.036468506,0.252950668,0.966790199,0.001682281
16,475562016.0,-1.003200531,-1.004397392,9.966168404,-0.074570656,-0.106529236,-0.004261017,0.036468506,0.252950668,0.966790199,0.001682281
17,475562144.0,-0.924189568,-0.353155136,9.947013855,-0.024501801,-0.013848305,0.057525635,0.036943436,0.250922203,0.967178345,0.014500618
18,475562144.0,-1.034326553,-0.478854179,9.873988152,-0.024501801,-0.013848305,0.057525635,0.036943436,0.250922203,0.967178345,0.014500618
19,475562176.0,-1.02834034,-0.31843853,9.870396614,0.019174576,-0.038350105,0.007456779,0.036943436,0.250922203,0.967178345,0.014500618
20,475562208.0,-0.93496418,-0.2573843,9.791385651,-0.035154343,-0.010652542,-0.030893326,0.036943436,0.250922203,0.967178345,0.014500618
21,475562208.0,-0.939752579,-0.378294945,9.717163086,-0.035154343,-0.010652542,-0.030893326,0.036943436,0.250922203,0.967178345,0.014500618
22,475562336.0,-0.984045982,-0.95531559,9.927859306,0.012783051,-0.040480614,-0.049003601,0.038712502,0.253166199,0.966487885,0.015148163
23,475562368.0,-1.003200531,-0.830812454,10.00567341,0.052199364,-0.047938347,-0.037284851,0.038712502,0.253166199,0.966487885,0.015148163
24,475562368.0,-0.90024662,-0.640467644,9.9805336,0.052199364,-0.047938347,-0.037284851,0.038712502,0.253166199,0.966487885,0.015148163
25,475562400.0,-0.962497711,-0.573428154,10.01764488,-0.027697563,0.006391525,-0.039415359,0.038712502,0.253166199,0.966487885,0.015148163
26,475562432.0,-1.04270649,-0.778139114,9.972153664,0.02023983,0.010652542,-0.061786652,0.038712502,0.253166199,0.966487885,0.015148163
27,475562432.0,-0.905035019,-0.726661682,9.908705711,0.02023983,0.010652542,-0.061786652,0.038712502,0.253166199,0.966487885,0.015148163
28,475562464.0,-0.902641296,-0.512373924,9.907507896,0.02023983,0.010652542,-0.061786652,0.040050507,0.256748199,0.96549511,0.015881538
29,475562464.0,-0.998412132,-0.660819054,9.895536423,0.02023983,0.010652542,-0.061786652,0.040050507,0.256748199,0.96549511,0.015881538
30,475562496.0,-0.96728611,-0.918204308,9.618998528,0.02023983,0.010652542,-0.061786652,0.041086197,0.257266045,0.965322495,0.016486168
31,475562528.0,-0.926584244,-0.681170464,9.68244648,-0.029828072,0.023435593,-0.060721397,0.041690826,0.257784843,0.965149879,0.016486168
32,475562656.0,-0.885881424,-0.600962639,9.783005714,0.001065254,-0.014913559,-0.062851906,0.043244362,0.261668205,0.964027405,0.018126488
33,475562688.0,-1.024748802,-0.627299309,9.788991928,0.001065254,-0.014913559,-0.062851906,0.043805122,0.262833595,0.963639259,0.019032478
34,475562688.0,-0.957709312,-0.713493347,9.775823593,0.001065254,-0.014913559,-0.062851906,0.043805122,0.262833595,0.963639259,0.019032478
35,475562720.0,-0.912218094,-0.809264183,9.877579689,0.001065254,-0.014913559,-0.062851906,0.044150352,0.2641716,0.963251114,0.019463539
36,475562720.0,-0.87989521,-0.733844757,9.894339561,0.001065254,-0.014913559,-0.062851906,0.044150352,0.2641716,0.963251114,0.019463539
37,475562752.0,-0.992425919,-0.772152901,9.836876869,-0.030893326,0.002130508,-0.057525635,0.044365883,0.26477623,0.963078499,0.019852638
38,475562880.0,-0.966089249,-0.858346939,9.66209507,-0.014913559,-0.008522034,-0.049003601,0.045143127,0.267192841,0.962388039,0.020628929
39,475562880.0,-0.966089249,-0.790110588,9.721952438,-0.014913559,-0.008522034,-0.049003601,0.045143127,0.267192841,0.962388039,0.020628929
40,475562912.0,-1.023551941,-0.836798668,9.666883469,-0.014913559,-0.008522034,-0.049003601,0.045143127,0.267192841,0.962388039,0.020628929
41,475562944.0,-1.073831558,-0.907429695,9.741106033,-0.014913559,-0.008522034,-0.049003601,0.045143127,0.267192841,0.962388039,0.020628929
42,475562944.0,-0.899049759,-0.810461044,9.790188789,-0.014913559,-0.008522034,-0.049003601,0.045143127,0.267192841,0.962388039,0.020628929
43,475563072.0,-1.047494888,-0.912218094,9.838074684,-0.040480614,-0.005326271,-0.013848305,0.048121452,0.270256996,0.961222649,0.02550602
44,475563104.0,-0.924189568,-0.790110588,9.876382828,-0.040480614,-0.005326271,-0.013848305,0.048294067,0.270645142,0.961092949,0.02585125
45,475563104.0,-1.009186745,-0.691945076,9.897931099,-0.040480614,-0.005326271,-0.013848305,0.048294067,0.270645142,0.961092949,0.02585125
46,475563136.0,-0.948132515,-0.849967003,9.86680603,-0.040480614,-0.005326271,-0.013848305,0.048552513,0.270861626,0.961050034,0.02619648
47,475563168.0,-0.804475784,-0.855952263,9.784203529,-0.03195858,-0.004261017,-0.035154343,0.048595428,0.271077156,0.961007118,0.02641201
48,475563264.0,-0.882289886,-1.043903351,9.74948597,-0.024501801,-0.018109322,-0.045806885,0.049070358,0.273407936,0.960229874,0.028958321
49,475563296.0,-0.823630333,-0.996017456,9.805751801,-0.024501801,-0.018109322,-0.045806885,0.049286842,0.273968697,0.960014343,0.029778481
50,475563328.0,-0.89426136,-1.076226234,9.891945839,-0.024501801,-0.018109322,-0.045806885,0.049977303,0.274573326,0.959754944,0.03133297
51,475563328.0,-0.905035019,-1.169602394,9.811737061,-0.024501801,-0.018109322,-0.045806885,0.049977303,0.274573326,0.959754944,0.03133297
52,475563360.0,-0.82722187,-0.948132515,9.805751801,-0.055395126,0.017044067,0.001065254,0.050149918,0.274573326,0.959754944,0.03176403
53,475563456.0,-0.841587067,-0.945737839,9.829694748,-0.12677002,0.018109322,-0.036219597,0.054206848,0.276212692,0.958806038,0.037892342
54,475563488.0,-0.834403992,-0.913414955,9.8931427,-0.12677002,0.018109322,-0.036219597,0.055112839,0.276903152,0.958546638,0.039057732
55,475563520.0,-0.812855721,-1.006792068,9.839271545,-0.12677002,0.018109322,-0.036219597,0.057961464,0.278931618,0.957553864,0.043374062
56,475563520.0,-0.63687706,-1.146857262,9.713571548,-0.12677002,0.018109322,-0.036219597,0.057961464,0.278931618,0.957553864,0.043374062
57,475563552.0,-0.885881424,-1.225868225,9.689629555,-0.12677002,0.018109322,-0.036219597,0.05973053,0.280313492,0.956950188,0.045747757
58,475563584.0,-0.921794891,-1.286922455,9.669278145,-0.12677002,0.018109322,-0.036219597,0.05973053,0.280313492,0.956950188,0.045747757
59,475563584.0,-0.821235657,-1.347975731,9.59505558,-0.12677002,0.018109322,-0.036219597,0.05973053,0.280313492,0.956950188,0.045747757
60,475563616.0,-0.809264183,-1.318047523,9.559141159,-0.12677002,0.018109322,-0.036219597,0.05973053,0.280313492,0.956950188,0.045747757
61,475563616.0,-0.901443481,-1.497618675,9.506466866,-0.12677002,0.018109322,-0.036219597,0.05973053,0.280313492,0.956950188,0.045747757
62,475563648.0,-1.17798233,-1.668808937,9.423864365,-0.273780823,0.073505402,-0.13955307,0.05973053,0.280313492,0.956950188,0.045747757
63,475563776.0,-1.122914314,-1.740636826,9.823708534,-0.013848305,-0.049003601,-0.033023834,0.05973053,0.280313492,0.956950188,0.045747757
64,475563776.0,-1.270162582,-1.879505157,9.923070908,-0.013848305,-0.049003601,-0.033023834,0.05973053,0.280313492,0.956950188,0.045747757
65,475563776.0,-1.122914314,-1.740636826,9.823708534,-0.013848305,-0.049003601,-0.033023834,0.05973053,0.280313492,0.956950188,0.045747757
66,475563776.0,-1.270162582,-1.879505157,9.923070908,-0.013848305,-0.049003601,-0.033023834,0.05973053,0.280313492,0.956950188,0.045747757
67,475563808.0,-1.024748802,-1.82922554,10.01764488,0.044741631,-0.059656143,0.011717796,0.05973053,0.280313492,0.956950188,0.045747757
68,475563808.0,-1.024748802,-1.82922554,10.01764488,0.044741631,-0.059656143,0.011717796,0.05973053,0.280313492,0.956950188,0.045747757
69,475563840.0,-0.974469185,-1.675992012,9.932647705,0.021305084,-0.025567055,0.006391525,0.05973053,0.280313492,0.956950188,0.045747757
70,475563840.0,-0.851163864,-1.684371948,9.908705711,0.021305084,-0.025567055,0.006391525,0.05973053,0.280313492,0.956950188,0.045747757
71,475563840.0,-0.974469185,-1.675992012,9.932647705,0.021305084,-0.025567055,0.006391525,0.05973053,0.280313492,0.956950188,0.045747757
72,475563840.0,-0.851163864,-1.684371948,9.908705711,0.021305084,-0.025567055,0.006391525,0.05973053,0.280313492,0.956950188,0.045747757
73,475563872.0,-0.889472961,-1.774157524,9.833285332,0.021305084,-0.025567055,0.006391525,0.05973053,0.280313492,0.956950188,0.045747757
74,475563904.0,-0.978060722,-1.823239326,9.672869682,0.021305084,-0.025567055,0.006391525,0.05973053,0.280313492,0.956950188,0.045747757
75,475563904.0,-0.974469185,-1.76218605,9.577097893,0.021305084,-0.025567055,0.006391525,0.05973053,0.280313492,0.956950188,0.045747757
76,475563936.0,-0.986440659,-1.671203613,9.517241478,0.021305084,-0.025567055,0.006391525,0.05973053,0.280313492,0.956950188,0.045747757
77,475563936.0,-0.931372643,-1.486844063,9.409499168,0.021305084,-0.025567055,0.006391525,0.05973053,0.280313492,0.956950188,0.045747757
78,475563968.0,-0.939752579,-1.525152206,9.453793526,-0.026632309,0.0,0.025567055,0.05973053,0.280313492,0.956950188,0.045747757
79,475564000.0,-0.9469347,-1.605360985,9.553155899,-0.017044067,-0.008522034,0.010652542,0.05973053,0.280313492,0.956950188,0.045747757
80,475564000.0,-1.045100212,-1.582614899,9.526818275,-0.017044067,-0.008522034,0.010652542,0.05973053,0.280313492,0.956950188,0.045747757
81,475564032.0,-1.088197708,-1.523955345,9.551958084,-0.006391525,-0.043676376,-0.003195763,0.05973053,0.280313492,0.956950188,0.045747757
82,475564064.0,-0.887078285,-1.459309578,9.551958084,-0.006391525,-0.043676376,-0.003195763,0.05973053,0.280313492,0.956950188,0.045747757
83,475564064.0,-0.815250397,-1.472478867,9.568717957,-0.006391525,-0.043676376,-0.003195763,0.05973053,0.280313492,0.956950188,0.045747757
84,475564064.0,-0.815250397,-1.472478867,9.568717957,-0.006391525,-0.043676376,-0.003195763,0.05973053,0.280313492,0.956950188,0.045747757
85,475564096.0,-0.909824371,-1.699934959,9.535198212,-0.006391525,-0.043676376,-0.003195763,0.05973053,0.280313492,0.956950188,0.045747757
86,475564096.0,-0.976863861,-1.719088554,9.585478783,-0.006391525,-0.043676376,-0.003195763,0.05973053,0.280313492,0.956950188,0.045747757
87,475564096.0,-0.909824371,-1.699934959,9.535198212,-0.006391525,-0.043676376,-0.003195763,0.05973053,0.280313492,0.956950188,0.045747757
88,475564096.0,-0.976863861,-1.719088554,9.585478783,-0.006391525,-0.043676376,-0.003195763,0.05973053,0.280313492,0.956950188,0.045747757
89,475564128.0,-0.85355854,-1.552686691,9.689629555,-0.006391525,-0.043676376,-0.003195763,0.05973053,0.280313492,0.956950188,0.045747757
90,475564128.0,-0.85355854,-1.552686691,9.689629555,-0.006391525,-0.043676376,-0.003195763,0.05973053,0.280313492,0.956950188,0.045747757
91,475564160.0,-0.763772964,-1.553883553,9.727937698,-0.113986015,-0.027697563,-0.08309269,0.05973053,0.280313492,0.956950188,0.045747757
92,475564160.0,-0.763772964,-1.553883553,9.727937698,-0.113986015,-0.027697563,-0.08309269,0.05973053,0.280313492,0.956950188,0.045747757
93,475564384.0,-0.723070145,-1.927391052,9.585478783,-0.079896927,-0.024501801,-0.077766418,0.067499161,0.298482895,0.948879242,0.077253342
94,475564384.0,-0.982849121,-1.919011116,9.486115456,-0.079896927,-0.024501801,-0.077766418,0.067499161,0.298482895,0.948879242,0.077253342
95,475564384.0,-0.723070145,-1.927391052,9.585478783,-0.079896927,-0.024501801,-0.077766418,0.067499161,0.298482895,0.948879242,0.077253342
96,475564384.0,-0.982849121,-1.919011116,9.486115456,-0.079896927,-0.024501801,-0.077766418,0.067499161,0.298482895,0.948879242,0.077253342
97,475564384.0,-0.723070145,-1.927391052,9.585478783,-0.079896927,-0.024501801,-0.077766418,0.067499161,0.298482895,0.948879242,0.077253342
98,475564384.0,-0.982849121,-1.919011116,9.486115456,-0.079896927,-0.024501801,-0.077766418,0.067499161,0.298482895,0.948879242,0.077253342
99,475564416.0,-0.915809631,-1.881899834,9.579492569,-0.079896927,-0.024501801,-0.077766418,0.067499161,0.298482895,0.948879242,0.077253342
100,475564416.0,-0.915809631,-1.93696785,9.686038017,-0.079896927,-0.024501801,-0.077766418,0.067499161,0.298482895,0.948879242,0.077253342
101,475564416.0,-0.915809631,-1.881899834,9.579492569,-0.079896927,-0.024501801,-0.077766418,0.067499161,0.298482895,0.948879242,0.077253342
102,475564416.0,-0.915809631,-1.93696785,9.686038017,-0.079896927,-0.024501801,-0.077766418,0.067499161,0.298482895,0.948879242,0.077253342
103,475564416.0,-0.915809631,-1.881899834,9.579492569,-0.079896927,-0.024501801,-0.077766418,0.067499161,0.298482895,0.948879242,0.077253342
104,475564416.0,-0.915809631,-1.93696785,9.686038017,-0.079896927,-0.024501801,-0.077766418,0.067499161,0.298482895,0.948879242,0.077253342
105,475564448.0,-0.958906174,-2.017175674,9.630970001,-0.079896927,-0.024501801,-0.077766418,0.067499161,0.298482895,0.948879242,0.077253342
106,475564448.0,-0.958906174,-2.017175674,9.630970001,-0.079896927,-0.024501801,-0.077766418,0.067499161,0.298482895,0.948879242,0.077253342
107,475564448.0,-0.958906174,-2.017175674,9.630970001,-0.079896927,-0.024501801,-0.077766418,0.067499161,0.298482895,0.948879242,0.077253342
108,475564480.0,-1.089394569,-1.980064392,9.672869682,-0.079896927,-0.024501801,-0.077766418,0.067499161,0.298482895,0.948879242,0.077253342
109,475564480.0,-1.009186745,-1.987247467,9.687234879,-0.079896927,-0.024501801,-0.077766418,0.067499161,0.298482895,0.948879242,0.077253342
110,475564512.0,-0.92059803,-1.892673492,9.754274368,-0.079896927,-0.024501801,-0.077766418,0.067499161,0.298482895,0.948879242,0.077253342
111,475564544.0,-0.841587067,-1.998022079,9.761457443,0.034089088,-0.028762817,-0.024501801,0.067499161,0.298482895,0.948879242,0.077253342
112,475564544.0,-0.83320713,-1.993233681,9.818920135,0.034089088,-0.028762817,-0.024501801,0.067499161,0.298482895,0.948879242,0.077253342
113,475564576.0,-0.907429695,-2.078229904,9.763852119,0.040480614,-0.026632309,0.004261017,0.067499161,0.298482895,0.948879242,0.077253342
114,475564576.0,-0.895458221,-2.045907021,9.767443657,0.040480614,-0.026632309,0.004261017,0.067499161,0.298482895,0.948879242,0.077253342
115,475564608.0,-0.826024055,-1.89027977,9.670475006,0.066047668,-0.026632309,0.022370338,0.067499161,0.298482895,0.948879242,0.077253342
116,475564640.0,-0.785321236,-1.891476631,9.718360901,0.036219597,-0.005326271,0.010652542,0.067499161,0.298482895,0.948879242,0.077253342
117,475564640.0,-0.752999306,-1.860350609,9.707586288,0.036219597,-0.005326271,0.010652542,0.067499161,0.298482895,0.948879242,0.077253342
118,475564768.0,-0.615327835,-1.954924583,9.593858719,0.036219597,-0.005326271,0.010652542,0.063874245,0.30085659,0.948318481,0.077943802
119,475564800.0,-0.6895504,-1.903448105,9.647729874,0.036219597,-0.005326271,0.010652542,0.063874245,0.30085659,0.948318481,0.077943802
120,475564800.0,-0.74461937,-1.851970673,9.60104084,0.036219597,-0.005326271,0.010652542,0.063874245,0.30085659,0.948318481,0.077943802
121,475564832.0,-0.854755402,-1.799297333,9.605829239,0.036219597,-0.005326271,0.010652542,0.063874245,0.30085659,0.948318481,0.077943802
122,475564832.0,-0.830812454,-1.765777588,9.523226738,0.036219597,-0.005326271,0.010652542,0.063874245,0.30085659,0.948318481,0.077943802
123,475564864.0,-0.666805267,-1.867533684,9.581887245,-0.002130508,0.013848305,-0.003195763,0.063874245,0.30085659,0.948318481,0.077943802
124,475564896.0,-0.688353539,-1.929784775,9.651320457,-0.033023834,0.006391525,-0.009587288,0.063874245,0.30085659,0.948318481,0.077943802
125,475564896.0,-0.720676422,-2.026753426,9.565127373,-0.033023834,0.006391525,-0.009587288,0.063874245,0.30085659,0.948318481,0.077943802
126,475564928.0,-0.735041618,-1.999218941,9.593858719,-0.018109322,-0.011717796,0.017044067,0.063874245,0.30085659,0.948318481,0.077943802
127,475564960.0,-0.811658859,-1.895068169,9.659700394,-0.018109322,-0.011717796,0.017044067,0.063874245,0.30085659,0.948318481,0.077943802
128,475564960.0,-0.903838158,-1.850773811,9.658503532,-0.018109322,-0.011717796,0.017044067,0.063874245,0.30085659,0.948318481,0.077943802
129,475564992.0,-0.888275146,-1.726271629,9.705191612,-0.018109322,-0.011717796,0.017044067,0.063874245,0.30085659,0.948318481,0.077943802
130,475564992.0,-0.83320713,-1.666414261,9.759062767,-0.018109322,-0.011717796,0.017044067,0.063874245,0.30085659,0.948318481,0.077943802
131,475565024.0,-0.787715912,-1.667612076,9.747092247,-0.018109322,-0.011717796,0.017044067,0.063874245,0.30085659,0.948318481,0.077943802
132,475565056.0,-0.735041618,-1.822042465,9.785400391,0.039415359,-0.038350105,-0.010652542,0.063874245,0.30085659,0.948318481,0.077943802
133,475565056.0,-0.697930336,-1.753806114,9.805751801,0.039415359,-0.038350105,-0.010652542,0.063874245,0.30085659,0.948318481,0.077943802
134,475565088.0,-0.682368279,-1.745426178,9.745894432,0.055395126,-0.03195858,0.018109322,0.063874245,0.30085659,0.948318481,0.077943802
135,475565120.0,-0.696733475,-1.611346245,9.66808033,0.041545868,0.008522034,0.004261017,0.063874245,0.30085659,0.948318481,0.077943802
136,475565120.0,-0.821235657,-1.5778265,9.65610981,0.041545868,0.008522034,0.004261017,0.063874245,0.30085659,0.948318481,0.077943802
137,475565152.0,-0.803278923,-1.64486599,9.568717957,0.041545868,0.008522034,0.004261017,0.063874245,0.30085659,0.948318481,0.077943802
138,475565152.0,-0.85355854,-1.781339645,9.506466866,0.041545868,0.008522034,0.004261017,0.063874245,0.30085659,0.948318481,0.077943802
139,475565152.0,-0.85355854,-1.781339645,9.506466866,0.041545868,0.008522034,0.004261017,0.063874245,0.30085659,0.948318481,0.077943802
140,475565184.0,-0.75060463,-1.920207977,9.438230515,0.041545868,0.008522034,0.004261017,0.063874245,0.30085659,0.948318481,0.077943802
141,475565184.0,-0.75060463,-1.920207977,9.438230515,0.041545868,0.008522034,0.004261017,0.063874245,0.30085659,0.948318481,0.077943802
142,475565216.0,-0.699128151,-1.954924583,9.43104744,0.041545868,0.008522034,0.004261017,0.063874245,0.30085659,0.948318481,0.077943802
143,475565216.0,-0.707508087,-1.987247467,9.486115456,0.041545868,0.008522034,0.004261017,0.063874245,0.30085659,0.948318481,0.077943802
144,475565216.0,-0.699128151,-1.954924583,9.43104744,0.041545868,0.008522034,0.004261017,0.063874245,0.30085659,0.948318481,0.077943802
145,475565216.0,-0.707508087,-1.987247467,9.486115456,0.041545868,0.008522034,0.004261017,0.063874245,0.30085659,0.948318481,0.077943802
146,475565248.0,-0.809264183,-1.989642143,9.498086929,-0.03195858,-0.011717796,0.001065254,0.063874245,0.30085659,0.948318481,0.077943802
147,475565248.0,-0.809264183,-1.989642143,9.498086929,-0.03195858,-0.011717796,0.001065254,0.063874245,0.30085659,0.948318481,0.077943802
148,475565376.0,-0.784124374,-1.842393875,9.736317635,-0.010652542,-0.026632309,0.02023983,0.062838554,0.29921627,0.949008942,0.077166557
149,475565376.0,-0.720676422,-1.817254066,9.741106033,-0.010652542,-0.026632309,0.02023983,0.062838554,0.29921627,0.949008942,0.077166557
150,475565408.0,-0.733844757,-1.774157524,9.757865906,-0.010652542,-0.026632309,0.02023983,0.062838554,0.29921627,0.949008942,0.077166557
151,475565440.0,-0.708704948,-1.819648743,9.719557762,-0.03195858,0.003195763,0.021305084,0.062838554,0.29921627,0.949008942,0.077166557
152,475565440.0,-0.626102448,-1.811268806,9.720754623,-0.03195858,0.003195763,0.021305084,0.062838554,0.29921627,0.949008942,0.077166557
153,475565472.0,-0.627299309,-1.830422401,9.644138336,-0.036219597,0.009587288,0.023435593,0.062838554,0.29921627,0.949008942,0.077166557
154,475565472.0,-0.651242256,-1.832817078,9.684841156,-0.036219597,0.009587288,0.023435593,0.062838554,0.29921627,0.949008942,0.077166557
155,475565472.0,-0.627299309,-1.830422401,9.644138336,-0.036219597,0.009587288,0.023435593,0.062838554,0.29921627,0.949008942,0.077166557
156,475565472.0,-0.651242256,-1.832817078,9.684841156,-0.036219597,0.009587288,0.023435593,0.062838554,0.29921627,0.949008942,0.077166557
157,475565472.0,-0.627299309,-1.830422401,9.644138336,-0.036219597,0.009587288,0.023435593,0.062838554,0.29921627,0.949008942,0.077166557
158,475565472.0,-0.651242256,-1.832817078,9.684841156,-0.036219597,0.009587288,0.023435593,0.062838554,0.29921627,0.949008942,0.077166557
159,475565504.0,-0.599765778,-1.874716759,9.693221092,-0.044741631,0.002130508,0.03195858,0.062838554,0.29921627,0.949008942,0.077166557
160,475565504.0,-0.599765778,-1.874716759,9.693221092,-0.044741631,0.002130508,0.03195858,0.062838554,0.29921627,0.949008942,0.077166557
161,475565504.0,-0.599765778,-1.874716759,9.693221092,-0.044741631,0.002130508,0.03195858,0.062838554,0.29921627,0.949008942,0.077166557
162,475565536.0,-0.685958862,-1.813662529,9.639349937,-0.015978813,-0.010652542,0.015978813,0.062838554,0.29921627,0.949008942,0.077166557
163,475565536.0,-0.644059181,-1.756199837,9.638152122,-0.015978813,-0.010652542,0.015978813,0.062838554,0.29921627,0.949008942,0.077166557
164,475565536.0,-0.685958862,-1.813662529,9.639349937,-0.015978813,-0.010652542,0.015978813,0.062838554,0.29921627,0.949008942,0.077166557
165,475565536.0,-0.644059181,-1.756199837,9.638152122,-0.015978813,-0.010652542,0.015978813,0.062838554,0.29921627,0.949008942,0.077166557
166,475565536.0,-0.685958862,-1.813662529,9.639349937,-0.015978813,-0.010652542,0.015978813,0.062838554,0.29921627,0.949008942,0.077166557
167,475565536.0,-0.644059181,-1.756199837,9.638152122,-0.015978813,-0.010652542,0.015978813,0.062838554,0.29921627,0.949008942,0.077166557
168,475565664.0,-0.609342575,-1.816057205,9.786597252,-0.039415359,0.039415359,-0.018109322,0.062838554,0.29921627,0.949008942,0.077166557
169,475565664.0,-0.609342575,-1.816057205,9.786597252,-0.039415359,0.039415359,-0.018109322,0.062838554,0.29921627,0.949008942,0.077166557
170,475565696.0,-0.707508087,-1.811268806,9.761457443,-0.022370338,0.035154343,-0.02023983,0.062838554,0.29921627,0.949008942,0.077166557
171,475565696.0,-0.731450081,-1.879505157,9.70279789,-0.022370338,0.035154343,-0.02023983,0.062838554,0.29921627,0.949008942,0.077166557
172,475565696.0,-0.707508087,-1.811268806,9.761457443,-0.022370338,0.035154343,-0.02023983,0.062838554,0.29921627,0.949008942,0.077166557
173,475565696.0,-0.731450081,-1.879505157,9.70279789,-0.022370338,0.035154343,-0.02023983,0.062838554,0.29921627,0.949008942,0.077166557
174,475565728.0,-0.688353539,-1.823239326,9.692023277,0.010652542,0.026632309,-0.026632309,0.062838554,0.29921627,0.949008942,0.077166557
175,475565728.0,-0.688353539,-1.823239326,9.692023277,0.010652542,0.026632309,-0.026632309,0.062838554,0.29921627,0.949008942,0.077166557
176,475565760.0,-0.720676422,-1.739439964,9.699206352,0.010652542,0.026632309,-0.026632309,0.062838554,0.29921627,0.949008942,0.077166557
177,475565760.0,-0.720676422,-1.739439964,9.699206352,0.010652542,0.026632309,-0.026632309,0.062838554,0.29921627,0.949008942,0.077166557
178,475565760.0,-0.794898987,-1.817254066,9.633363724,0.010652542,0.026632309,-0.026632309,0.062838554,0.29921627,0.949008942,0.077166557
179,475565792.0,-0.815250397,-1.965699196,9.583084106,0.010652542,0.026632309,-0.026632309,0.062838554,0.29921627,0.949008942,0.077166557
180,475565792.0,-0.712296486,-1.880702019,9.596252441,0.010652542,0.026632309,-0.026632309,0.062838554,0.29921627,0.949008942,0.077166557
181,475565824.0,-0.690748215,-1.85556221,9.645335197,0.010652542,0.026632309,-0.026632309,0.062838554,0.29921627,0.949008942,0.077166557
182,475565856.0,-0.791307449,-1.901053429,9.597449303,-0.014913559,0.02023983,-0.030893326,0.062838554,0.29921627,0.949008942,0.077166557
183,475565952.0,-0.841587067,-2.041118622,9.620195389,0.009587288,0.005326271,-0.038350105,0.062838554,0.29921627,0.949008942,0.077166557
184,475565952.0,-0.841587067,-2.041118622,9.620195389,0.009587288,0.005326271,-0.038350105,0.062838554,0.29921627,0.949008942,0.077166557
185,475565984.0,-0.760181427,-1.863942146,9.53400135,0.007456779,0.0,-0.040480614,0.062838554,0.29921627,0.949008942,0.077166557
186,475565984.0,-0.760181427,-1.863942146,9.53400135,0.007456779,0.0,-0.040480614,0.062838554,0.29921627,0.949008942,0.077166557
187,475566016.0,-0.752999306,-1.865139961,9.613012314,-0.040480614,0.022370338,-0.038350105,0.062838554,0.29921627,0.949008942,0.077166557
188,475566016.0,-0.702718735,-2.026753426,9.520833015,-0.040480614,0.022370338,-0.038350105,0.062838554,0.29921627,0.949008942,0.077166557
189,475566016.0,-0.752999306,-1.865139961,9.613012314,-0.040480614,0.022370338,-0.038350105,0.062838554,0.29921627,0.949008942,0.077166557
190,475566016.0,-0.702718735,-2.026753426,9.520833015,-0.040480614,0.022370338,-0.038350105,0.062838554,0.29921627,0.949008942,0.077166557
191,475566048.0,-0.697930336,-1.86992836,9.671671867,-0.009587288,0.024501801,-0.03195858,0.062838554,0.29921627,0.949008942,0.077166557
192,475566048.0,-0.697930336,-1.86992836,9.671671867,-0.009587288,0.024501801,-0.03195858,0.062838554,0.29921627,0.949008942,0.077166557
193,475566080.0,-0.75658989,-1.923799515,9.768640518,-0.009587288,0.024501801,-0.03195858,0.062838554,0.29921627,0.949008942,0.077166557
194,475566080.0,-0.860741615,-1.889081955,9.773428917,-0.009587288,0.024501801,-0.03195858,0.062838554,0.29921627,0.949008942,0.077166557
195,475566112.0,-0.878698349,-1.9226017,9.703994751,-0.009587288,0.024501801,-0.03195858,0.062838554,0.29921627,0.949008942,0.077166557
196,475566112.0,-0.913414955,-1.987247467,9.592660904,-0.009587288,0.024501801,-0.03195858,0.062838554,0.29921627,0.949008942,0.077166557
197,475566144.0,-0.865530014,-1.872322083,9.627378464,0.007456779,0.030893326,-0.047938347,0.062838554,0.29921627,0.949008942,0.077166557
198,475566176.0,-0.774547577,-1.89626503,9.707586288,-0.014913559,0.045806885,-0.039415359,0.062838554,0.29921627,0.949008942,0.077166557
199,475566176.0,-0.843981743,-1.914221764,9.659700394,-0.014913559,0.045806885,-0.039415359,0.062838554,0.29921627,0.949008942,0.077166557
200,475566208.0,-0.845178604,-1.897461891,9.675263405,-0.02023983,0.046872139,-0.040480614,0.062838554,0.29921627,0.949008942,0.077166557
201,475566208.0,-0.832010269,-1.913024902,9.664489746,-0.02023983,0.046872139,-0.040480614,0.062838554,0.29921627,0.949008942,0.077166557
202,475566240.0,-0.805672646,-1.919011116,9.714769363,-0.035154343,0.053264618,-0.054329872,0.062838554,0.29921627,0.949008942,0.077166557
203,475566368.0,-0.895458221,-1.770565987,9.686038017,-0.094810486,0.073505402,-0.111855507,0.075267792,0.311084747,0.943786621,0.082604408
204,475566368.0,-0.828418732,-1.556278229,9.761457443,-0.094810486,0.073505402,-0.111855507,0.075267792,0.311084747,0.943786621,0.082604408
205,475566400.0,-0.87989521,-1.596981049,9.599843979,-0.094810486,0.073505402,-0.111855507,0.075267792,0.311084747,0.943786621,0.082604408
206,475566432.0,-0.8595438,-1.755002975,9.539987564,-0.094810486,0.073505402,-0.111855507,0.075267792,0.311084747,0.943786621,0.082604408
207,475566432.0,-0.820038795,-1.448535919,9.557944298,-0.094810486,0.073505402,-0.111855507,0.075267792,0.311084747,0.943786621,0.082604408
208,475566560.0,0.138867378,-4.765803337,8.370384216,-0.12677002,0.046872139,-0.55288887,0.088301659,0.342202187,0.929156303,0.108499527
209,475566560.0,0.138867378,-4.765803337,8.370384216,-0.12677002,0.046872139,-0.55288887,0.088301659,0.342202187,0.929156303,0.108499527
210,475566592.0,-0.002393723,-6.730305672,7.000858307,-0.12677002,0.046872139,-0.55288887,0.088301659,0.342202187,0.929156303,0.108499527
211,475566592.0,-0.733844757,-7.937020302,6.361587524,-0.12677002,0.046872139,-0.55288887,0.088301659,0.342202187,0.929156303,0.108499527
212,475566592.0,-0.002393723,-6.730305672,7.000858307,-0.12677002,0.046872139,-0.55288887,0.088301659,0.342202187,0.929156303,0.108499527
213,475566592.0,-0.733844757,-7.937020302,6.361587524,-0.12677002,0.046872139,-0.55288887,0.088301659,0.342202187,0.929156303,0.108499527
214,475566624.0,-0.871515274,-7.977723122,6.677631378,-0.12677002,0.046872139,-0.55288887,0.088301659,0.342202187,0.929156303,0.108499527
215,475566624.0,-0.871515274,-7.977723122,6.677631378,-0.12677002,0.046872139,-0.55288887,0.088301659,0.342202187,0.929156303,0.108499527
216,475566656.0,-1.221079826,-7.867586136,7.176837921,-0.12677002,0.046872139,-0.55288887,0.088301659,0.342202187,0.929156303,0.108499527
217,475566656.0,-1.221079826,-7.867586136,7.176837921,-0.12677002,0.046872139,-0.55288887,0.088301659,0.342202187,0.929156303,0.108499527
218,475566656.0,-0.975666046,-7.931034088,7.551542282,-0.12677002,0.046872139,-0.55288887,0.088301659,0.342202187,0.929156303,0.108499527
219,475566688.0,-0.847572327,-7.665269852,8.391932487,-0.12677002,0.046872139,-0.55288887,0.088301659,0.342202187,0.929156303,0.108499527
220,475566688.0,-1.341990471,-5.500845909,10.90113258,-0.12677002,0.046872139,-0.55288887,0.088301659,0.342202187,0.929156303,0.108499527
221,475566720.0,-1.174390793,-4.110969543,12.6118412,-0.12677002,0.046872139,-0.55288887,0.088301659,0.342202187,0.929156303,0.108499527
222,475566752.0,-1.436564445,-3.069459915,12.45860767,0.765948296,-0.530517578,3.089360237,0.088301659,0.342202187,0.929156303,0.108499527
223,475566848.0,1.828028679,4.31567955,15.07674694,1.464782715,0.822408676,2.798534393,0.06344223,0.034137726,0.997173309,0.021146774
224,475566880.0,1.115731239,5.303318024,14.09389782,1.464782715,0.822408676,2.798534393,0.085539818,0.019377708,0.996051788,0.012947083
225,475566912.0,1.19833374,5.655276299,13.84609032,1.464782715,0.822408676,2.798534393,0.140005112,0.005911827,0.990009308,0.015363693
226,475566912.0,1.607754707,4.698763847,12.55318165,1.464782715,0.822408676,2.798534393,0.140005112,0.005911827,0.990009308,0.015363693
227,475566944.0,1.169602394,4.40307045,10.80177021,0.206666946,2.913586617,-0.067112923,0.169611931,0.004790306,0.985347748,0.017607689
228,475567072.0,-1.806479454,2.369133949,4.532361984,0.640242577,1.56598568,-2.511969566,0.169611931,0.004790306,0.985347748,0.017607689
229,475567072.0,-1.887885094,1.109745979,4.01160717,0.640242577,1.56598568,-2.511969566,0.169611931,0.004790306,0.985347748,0.017607689
230,475567072.0,-1.806479454,2.369133949,4.532361984,0.640242577,1.56598568,-2.511969566,0.169611931,0.004790306,0.985347748,0.017607689
231,475567072.0,-1.887885094,1.109745979,4.01160717,0.640242577,1.56598568,-2.511969566,0.169611931,0.004790306,0.985347748,0.017607689
232,475567104.0,-1.574234962,-0.249004364,3.411841393,0.594434738,0.782992363,-3.061662674,0.169611931,0.004790306,0.985347748,0.017607689
233,475567104.0,-1.772959709,-1.765777588,2.997631073,0.594434738,0.782992363,-3.061662674,0.169611931,0.004790306,0.985347748,0.017607689
234,475567104.0,-1.574234962,-0.249004364,3.411841393,0.594434738,0.782992363,-3.061662674,0.169611931,0.004790306,0.985347748,0.017607689
235,475567104.0,-1.772959709,-1.765777588,2.997631073,0.594434738,0.782992363,-3.061662674,0.169611931,0.004790306,0.985347748,0.017607689
236,475567136.0,-2.068653107,-2.815666199,3.009602547,0.564606667,0.386702538,-3.183106422,0.169611931,0.004790306,0.985347748,0.017607689
237,475567136.0,-2.068653107,-2.815666199,3.009602547,0.564606667,0.386702538,-3.183106422,0.169611931,0.004790306,0.985347748,0.017607689
238,475567264.0,-2.280546188,-7.070292473,4.954951286,0.471925735,-2.045370102,-1.950558662,0.169611931,0.004790306,0.985347748,0.017607689
239,475567264.0,-2.196746826,-7.276200294,6.276590347,0.471925735,-2.045370102,-1.950558662,0.169611931,0.004790306,0.985347748,0.017607689
240,475567296.0,-2.876720428,-7.267820358,7.065504074,-0.142749786,-2.18705368,-1.169695854,0.169611931,0.004790306,0.985347748,0.017607689
241,475567328.0,-3.7865448,-8.261444092,6.900299072,-0.233299255,-2.292518616,-0.71587944,0.169611931,0.004790306,0.985347748,0.017607689
242,475567328.0,-2.903058052,-8.195601463,7.817306519,-0.233299255,-2.292518616,-0.71587944,0.169611931,0.004790306,0.985347748,0.017607689
243,475567360.0,-1.717891693,-6.951776505,10.5731163,0.145945549,-2.192380905,0.185360909,0.169611931,0.004790306,0.985347748,0.017607689
244,475567392.0,-1.758594513,-6.638126373,12.08150959,-0.110790253,-1.870660782,0.680724144,0.169611931,0.004790306,0.985347748,0.017607689
245,475567392.0,-2.694755554,-7.391125679,11.79659081,-0.110790253,-1.870660782,0.680724144,0.169611931,0.004790306,0.985347748,0.017607689
246,475567424.0,-3.104176521,-7.55513382,11.82771683,-0.279107094,-1.641622543,1.282616615,0.169611931,0.004790306,0.985347748,0.017607689
247,475567424.0,-2.71750164,-6.51841259,12.86324024,-0.279107094,-1.641622543,1.282616615,0.169611931,0.004790306,0.985347748,0.017607689
248,475567456.0,-2.369133949,-5.269798279,13.37202358,0.316392899,-1.166500092,1.47117424,0.169611931,0.004790306,0.985347748,0.017607689
249,475567488.0,-2.157240868,-3.324449539,13.37441826,0.028762817,-0.973680496,1.538288116,0.169611931,0.004790306,0.985347748,0.017607689
250,475567488.0,-1.623317719,-2.118932724,13.8101759,0.028762817,-0.973680496,1.538288116,0.169611931,0.004790306,0.985347748,0.017607689
251,475567520.0,-1.284527779,-2.094989777,12.77345467,0.015978813,-0.387767792,1.350795746,0.169611931,0.004790306,0.985347748,0.017607689
252,475567552.0,-1.175588608,-1.652049065,11.99052715,0.015978813,-0.387767792,1.350795746,0.169611931,0.004790306,0.985347748,0.017607689
253,475567552.0,-0.738633156,-0.705113411,11.72955132,0.015978813,-0.387767792,1.350795746,0.169611931,0.004790306,0.985347748,0.017607689
254,475567552.0,-1.016368866,-1.13129425,11.80736542,0.015978813,-0.387767792,1.350795746,0.169611931,0.004790306,0.985347748,0.017607689
255,475567584.0,-0.147247314,-0.348366737,11.79539394,0.015978813,-0.387767792,1.350795746,0.169611931,0.004790306,0.985347748,0.017607689
256,475567584.0,-0.179570198,-0.693141937,11.05675983,0.015978813,-0.387767792,1.350795746,0.169611931,0.004790306,0.985347748,0.017607689
257,475567584.0,-0.393857956,-0.482445717,11.85525036,0.015978813,-0.387767792,1.350795746,0.169611931,0.004790306,0.985347748,0.017607689
258,475567584.0,-0.105347633,-0.377098083,11.4613924,0.015978813,-0.387767792,1.350795746,0.169611931,0.004790306,0.985347748,0.017607689
259,475567616.0,-0.265764236,-1.010383606,9.972153664,0.015978813,-0.387767792,1.350795746,0.169611931,0.004790306,0.985347748,0.017607689
260,475567616.0,-0.227456093,-0.985243797,10.56353951,0.015978813,-0.387767792,1.350795746,0.169611931,0.004790306,0.985347748,0.017607689
261,475567616.0,-0.229849815,-1.055874825,9.602238655,0.015978813,-0.387767792,1.350795746,0.169611931,0.004790306,0.985347748,0.017607689
262,475567648.0,-0.239426613,-1.25340271,9.36999321,0.210927963,0.237560272,0.442097664,0.169611931,0.004790306,0.985347748,0.017607689
263,475567744.0,-0.851163864,-2.560676575,8.842056274,-0.013848305,0.157663345,0.181099892,0.169611931,0.004790306,0.985347748,0.017607689
264,475567744.0,-0.925386429,-2.400259972,8.888744354,-0.013848305,0.157663345,0.181099892,0.169611931,0.004790306,0.985347748,0.017607689
265,475567776.0,-0.949329376,-2.317657471,8.940220833,-0.013848305,0.157663345,0.181099892,0.169611931,0.004790306,0.985347748,0.017607689
266,475567776.0,-0.958906174,-2.317657471,8.934235573,-0.013848305,0.157663345,0.181099892,0.169611931,0.004790306,0.985347748,0.017607689
267,475567776.0,-0.93496418,-2.333220482,8.949798584,-0.013848305,0.157663345,0.181099892,0.169611931,0.004790306,0.985347748,0.017607689
268,475567808.0,-1.053480148,-2.434976578,8.723539352,-0.013848305,0.157663345,0.181099892,0.169611931,0.004790306,0.985347748,0.017607689
269,475567808.0,-1.037917137,-2.354768753,8.833676338,-0.013848305,0.157663345,0.181099892,0.169611931,0.004790306,0.985347748,0.017607689
270,475567808.0,-1.045100212,-2.548705101,8.711567879,-0.013848305,0.157663345,0.181099892,0.169611931,0.004790306,0.985347748,0.017607689
271,475567840.0,-1.034326553,-2.603773117,8.792973518,0.007456779,-0.027697563,-0.015978813,0.082647324,0.236420631,0.961653709,0.111908913
272,475567936.0,-1.146857262,-2.463707924,9.300559998,-0.03195858,-0.072440147,-0.028762817,0.080533028,0.236637115,0.961524963,0.113764763
273,475567968.0,-1.092986107,-2.610956192,9.362811089,-0.03195858,-0.072440147,-0.028762817,0.080533028,0.236637115,0.961524963,0.113764763
274,475567968.0,-1.100169182,-2.760598183,9.307742119,-0.03195858,-0.072440147,-0.028762817,0.080533028,0.236637115,0.961524963,0.113764763
275,475568000.0,-1.086999893,-2.655250549,9.360416412,-0.03195858,-0.072440147,-0.028762817,0.080533028,0.236637115,0.961524963,0.113764763
276,475568000.0,-1.112139702,-2.496030807,9.403513908,-0.03195858,-0.072440147,-0.028762817,0.080533028,0.236637115,0.961524963,0.113764763
277,475568032.0,-1.089394569,-2.528353691,9.481327057,-0.03195858,-0.072440147,-0.028762817,0.080533028,0.236637115,0.961524963,0.113764763
278,475568064.0,-1.149250984,-2.674404144,9.579492569,-0.03195858,-0.072440147,-0.028762817,0.080533028,0.236637115,0.961524963,0.113764763
279,475568064.0,-1.112139702,-2.637292862,9.629772186,-0.03195858,-0.072440147,-0.028762817,0.080533028,0.236637115,0.961524963,0.113764763
280,475568096.0,-1.127702713,-2.672010422,9.488510132,-0.03195858,-0.072440147,-0.028762817,0.080533028,0.236637115,0.961524963,0.113764763
281,475568128.0,-1.126505852,-2.440962791,9.555549622,-0.03195858,-0.072440147,-0.028762817,0.080533028,0.236637115,0.961524963,0.113764763
282,475568128.0,-1.095379829,-2.330825806,9.646532059,-0.03195858,-0.072440147,-0.028762817,0.080533028,0.236637115,0.961524963,0.113764763
283,475568160.0,-1.069043159,-2.710318565,9.532804489,-0.054329872,-0.042611122,-0.035154343,0.080533028,0.236637115,0.961524963,0.113764763
284,475568160.0,-1.069043159,-2.710318565,9.532804489,-0.054329872,-0.042611122,-0.035154343,0.080533028,0.236637115,0.961524963,0.113764763
285,475568192.0,-1.046298027,-2.801301003,9.614209175,0.051134109,-0.044741631,-0.038350105,0.080533028,0.236637115,0.961524963,0.113764763
286,475568192.0,-1.116929054,-2.577436447,9.610618591,0.051134109,-0.044741631,-0.038350105,0.080533028,0.236637115,0.961524963,0.113764763
287,475568192.0,-1.046298027,-2.801301003,9.614209175,0.051134109,-0.044741631,-0.038350105,0.080533028,0.236637115,0.961524963,0.113764763
288,475568192.0,-1.116929054,-2.577436447,9.610618591,0.051134109,-0.044741631,-0.038350105,0.080533028,0.236637115,0.961524963,0.113764763
289,475568224.0,-1.1456604,-2.51279068,9.669278145,-0.055395126,-0.012783051,-0.038350105,0.080533028,0.236637115,0.961524963,0.113764763
290,475568224.0,-1.092986107,-2.565464973,9.684841156,-0.055395126,-0.012783051,-0.038350105,0.080533028,0.236637115,0.961524963,0.113764763
291,475568224.0,-1.1456604,-2.51279068,9.669278145,-0.055395126,-0.012783051,-0.038350105,0.080533028,0.236637115,0.961524963,0.113764763
292,475568224.0,-1.092986107,-2.565464973,9.684841156,-0.055395126,-0.012783051,-0.038350105,0.080533028,0.236637115,0.961524963,0.113764763
293,475568448.0,-1.040311813,-2.581027985,9.25626564,-0.068178177,0.017044067,-0.013848305,0.074059486,0.241168022,0.960532188,0.117045403
294,475568480.0,-0.968483925,-2.637292862,9.359219551,-0.068178177,0.017044067,-0.013848305,0.074059486,0.241168022,0.960532188,0.117045403
295,475568480.0,-0.939752579,-2.595393181,9.377176285,-0.068178177,0.017044067,-0.013848305,0.074059486,0.241168022,0.960532188,0.117045403
296,475568512.0,-0.952920914,-2.500819206,9.504073143,-0.068178177,0.017044067,-0.013848305,0.074059486,0.241168022,0.960532188,0.117045403
297,475568512.0,-1.003200531,-2.632504463,9.435835838,-0.068178177,0.017044067,-0.013848305,0.074059486,0.241168022,0.960532188,0.117045403
298,475568544.0,-1.061860085,-2.637292862,9.452595711,-0.025567055,0.001065254,-0.049003601,0.074059486,0.241168022,0.960532188,0.117045403
299,475568544.0,-1.061860085,-2.637292862,9.452595711,-0.025567055,0.001065254,-0.049003601,0.074059486,0.241168022,0.960532188,0.117045403
300,475568576.0,-1.030735016,-2.820455551,9.312531471,0.005326271,-0.005326271,-0.040480614,0.074059486,0.241168022,0.960532188,0.117045403
301,475568576.0,-1.018763542,-2.748626709,9.391542435,0.005326271,-0.005326271,-0.040480614,0.074059486,0.241168022,0.960532188,0.117045403
302,475568576.0,-1.030735016,-2.820455551,9.312531471,0.005326271,-0.005326271,-0.040480614,0.074059486,0.241168022,0.960532188,0.117045403
303,475568576.0,-1.018763542,-2.748626709,9.391542435,0.005326271,-0.005326271,-0.040480614,0.074059486,0.241168022,0.960532188,0.117045403
304,475568608.0,-1.107351303,-2.615744591,9.617800713,-0.057525635,0.008522034,-0.027697563,0.074059486,0.241168022,0.960532188,0.117045403
305,475568608.0,-1.045100212,-2.857566833,9.422667503,-0.057525635,0.008522034,-0.027697563,0.074059486,0.241168022,0.960532188,0.117045403
306,475568608.0,-1.107351303,-2.615744591,9.617800713,-0.057525635,0.008522034,-0.027697563,0.074059486,0.241168022,0.960532188,0.117045403
307,475568608.0,-1.045100212,-2.857566833,9.422667503,-0.057525635,0.008522034,-0.027697563,0.074059486,0.241168022,0.960532188,0.117045403
308,475568640.0,-1.156434059,-2.900663376,9.392739296,-0.057525635,0.008522034,-0.027697563,0.074059486,0.241168022,0.960532188,0.117045403
309,475568672.0,-1.113337517,-2.873128891,9.449005127,-0.057525635,0.008522034,-0.027697563,0.074059486,0.241168022,0.960532188,0.117045403
310,475568672.0,-0.956512451,-2.67679882,9.542381287,-0.057525635,0.008522034,-0.027697563,0.074059486,0.241168022,0.960532188,0.117045403
311,475568704.0,-1.00200367,-2.666024208,9.520833015,-0.057525635,0.008522034,-0.027697563,0.074059486,0.241168022,0.960532188,0.117045403
312,475568736.0,-1.027143478,-2.680390358,9.478933334,-0.043676376,-0.005326271,0.009587288,0.074059486,0.241168022,0.960532188,0.117045403
313,475568736.0,-1.040311813,-2.822849274,9.395133018,-0.043676376,-0.005326271,0.009587288,0.074059486,0.241168022,0.960532188,0.117045403
314,475568736.0,-0.986440659,-2.75820446,9.447807312,-0.043676376,-0.005326271,0.009587288,0.074059486,0.241168022,0.960532188,0.117045403
315,475568768.0,-1.04270649,-2.742641449,9.329291344,-0.006391525,-0.036219597,0.008522034,0.074059486,0.241168022,0.960532188,0.117045403
316,475568768.0,-0.956512451,-2.525959015,9.474144936,-0.006391525,-0.036219597,0.008522034,0.074059486,0.241168022,0.960532188,0.117045403
317,475568768.0,-1.091789246,-2.839609146,9.359219551,-0.006391525,-0.036219597,0.008522034,0.074059486,0.241168022,0.960532188,0.117045403
318,475568768.0,-0.979257584,-2.59419632,9.395133018,-0.006391525,-0.036219597,0.008522034,0.074059486,0.241168022,0.960532188,0.117045403
319,475568800.0,-0.991229057,-2.687572479,9.385556221,-0.036219597,-0.013848305,0.009587288,0.074059486,0.241168022,0.960532188,0.117045403
320,475568800.0,-0.96130085,-2.578633308,9.457385063,-0.036219597,-0.013848305,0.009587288,0.074059486,0.241168022,0.960532188,0.117045403
321,475568800.0,-1.013975143,-2.809680939,9.274222374,-0.036219597,-0.013848305,0.009587288,0.074059486,0.241168022,0.960532188,0.117045403
322,475568832.0,-0.994820595,-2.83122921,9.31731987,0.006391525,-0.019174576,0.001065254,0.074059486,0.241168022,0.960532188,0.117045403
323,475568832.0,-0.948132515,-2.75820446,9.486115456,0.006391525,-0.019174576,0.001065254,0.074059486,0.241168022,0.960532188,0.117045403
324,475568832.0,-0.96130085,-2.83122921,9.433442116,0.006391525,-0.019174576,0.001065254,0.074059486,0.241168022,0.960532188,0.117045403
325,475568864.0,-0.968483925,-2.648067474,9.499284744,0.006391525,-0.019174576,0.001065254,0.074059486,0.241168022,0.960532188,0.117045403
326,475568960.0,-0.954117775,-2.773766518,9.39034462,0.006391525,-0.019174576,0.001065254,0.074059486,0.241168022,0.960532188,0.117045403
327,475568960.0,-0.924189568,-2.796512604,9.389147758,0.006391525,-0.019174576,0.001065254,0.074059486,0.241168022,0.960532188,0.117045403
328,475568992.0,-0.915809631,-2.857566833,9.347248077,0.006391525,-0.019174576,0.001065254,0.074059486,0.241168022,0.960532188,0.117045403
329,475569024.0,-0.895458221,-2.906648636,9.274222374,0.006391525,-0.019174576,0.001065254,0.074059486,0.241168022,0.960532188,0.117045403
330,475569024.0,-0.896655083,-2.785737991,9.340065002,0.006391525,-0.019174576,0.001065254,0.074059486,0.241168022,0.960532188,0.117045403
331,475569056.0,-0.864333153,-2.709121704,9.474144936,0.043676376,-0.051134109,0.02023983,0.074059486,0.241168022,0.960532188,0.117045403
332,475569184.0,-0.885881424,-2.705530167,9.519636154,0.039415359,-0.028762817,-0.010652542,0.073369026,0.242980957,0.959496498,0.122310638
333,475569184.0,-0.852361679,-2.683981895,9.531606674,0.039415359,-0.028762817,-0.010652542,0.073369026,0.242980957,0.959496498,0.122310638
334,475569216.0,-0.830812454,-2.655250549,9.471750259,0.039415359,-0.028762817,-0.010652542,0.073369026,0.242980957,0.959496498,0.122310638
335,475569216.0,-0.931372643,-2.705530167,9.487313271,0.039415359,-0.028762817,-0.010652542,0.073369026,0.242980957,0.959496498,0.122310638
336,475569248.0,-0.85355854,-2.650461197,9.496890068,0.059656143,-0.007456779,-0.02023983,0.073369026,0.242980957,0.959496498,0.122310638
337,475569280.0,-0.83320713,-2.581027985,9.443018913,0.023435593,0.007456779,-0.014913559,0.073369026,0.242980957,0.959496498,0.122310638
338,475569280.0,-0.843981743,-2.582224846,9.405907631,0.023435593,0.007456779,-0.014913559,0.073369026,0.242980957,0.959496498,0.122310638
339,475569312.0,-0.848770142,-2.656447411,9.426259041,0.014913559,0.002130508,-0.021305084,0.073369026,0.242980957,0.959496498,0.122310638
340,475569344.0,-0.818841934,-2.639687538,9.440624237,0.046872139,0.006391525,-0.027697563,0.073369026,0.242980957,0.959496498,0.122310638
341,475569344.0,-0.790110588,-2.539128304,9.383162498,0.046872139,0.006391525,-0.027697563,0.073369026,0.242980957,0.959496498,0.122310638
342,475569376.0,-0.707508087,-2.541522026,9.398724556,-0.008522034,0.012783051,-0.026632309,0.073369026,0.242980957,0.959496498,0.122310638
343,475569376.0,-0.738633156,-2.658841133,9.401119232,-0.008522034,0.012783051,-0.026632309,0.073369026,0.242980957,0.959496498,0.122310638
344,475569408.0,-0.809264183,-2.662432671,9.377176285,0.001065254,0.010652542,-0.030893326,0.073369026,0.242980957,0.959496498,0.122310638
345,475569440.0,-0.861938477,-2.575041771,9.335276604,0.007456779,0.008522034,-0.034089088,0.073369026,0.242980957,0.959496498,0.122310638
346,475569440.0,-0.895458221,-2.597787857,9.350839615,0.007456779,0.008522034,-0.034089088,0.073369026,0.242980957,0.959496498,0.122310638
347,475569472.0,-0.906232834,-2.658841133,9.354431152,0.007456779,0.008522034,-0.034089088,0.073369026,0.242980957,0.959496498,0.122310638
348,475569504.0,-0.885881424,-2.655250549,9.395133018,0.007456779,0.008522034,-0.034089088,0.073369026,0.242980957,0.959496498,0.122310638
349,475569504.0,-0.948132515,-2.655250549,9.41069603,0.007456779,0.008522034,-0.034089088,0.073369026,0.242980957,0.959496498,0.122310638
350,475569536.0,-0.945737839,-2.722290039,9.428653717,0.007456779,0.008522034,-0.034089088,0.073369026,0.242980957,0.959496498,0.122310638
351,475569536.0,-0.911021233,-2.709121704,9.428653717,0.007456779,0.008522034,-0.034089088,0.073369026,0.242980957,0.959496498,0.122310638
352,475569568.0,-0.90024662,-2.677995682,9.529212952,0.025567055,-0.018109322,-0.006391525,0.073369026,0.242980957,0.959496498,0.122310638
353,475569600.0,-0.913414955,-2.603773117,9.573507309,-0.002130508,-0.007456779,-0.011717796,0.073369026,0.242980957,0.959496498,0.122310638
354,475569600.0,-0.952920914,-2.552296638,9.551958084,-0.002130508,-0.007456779,-0.011717796,0.073369026,0.242980957,0.959496498,0.122310638
355,475569632.0,-0.94094944,-2.688770294,9.481327057,-0.021305084,0.006391525,-0.012783051,0.073369026,0.242980957,0.959496498,0.122310638
356,475569664.0,-0.881093025,-2.652855873,9.407104492,-0.021305084,0.006391525,-0.012783051,0.073369026,0.242980957,0.959496498,0.122310638
357,475569664.0,-0.931372643,-2.59419632,9.535198212,-0.021305084,0.006391525,-0.012783051,0.073369026,0.242980957,0.959496498,0.122310638
358,475569696.0,-0.95531559,-2.609759331,9.481327057,-0.021305084,0.006391525,-0.012783051,0.073369026,0.242980957,0.959496498,0.122310638
359,475569696.0,-0.871515274,-2.632504463,9.454990387,-0.021305084,0.006391525,-0.012783051,0.073369026,0.242980957,0.959496498,0.122310638
360,475569728.0,-0.885881424,-2.701938629,9.35802269,-0.021305084,0.006391525,-0.012783051,0.073369026,0.242980957,0.959496498,0.122310638
361,475569760.0,-0.878698349,-2.748626709,9.35802269,0.012783051,0.001065254,0.004261017,0.073196411,0.246952057,0.958806038,0.119979858
362,475569856.0,-0.863135338,-2.675601959,9.535198212,-0.004261017,-0.002130508,0.006391525,0.073541641,0.246735573,0.958762169,0.120238304
363,475569888.0,-0.909824371,-2.628912926,9.493298531,-0.004261017,-0.002130508,0.006391525,0.073541641,0.246735573,0.958762169,0.120238304
364,475569920.0,-0.851163864,-2.715106964,9.420273781,-0.004261017,-0.002130508,0.006391525,0.073541641,0.246735573,0.958762169,0.120238304
365,475569920.0,-0.918204308,-2.700741768,9.421470642,-0.004261017,-0.002130508,0.006391525,0.073541641,0.246735573,0.958762169,0.120238304
366,475569952.0,-0.899049759,-2.630110741,9.451398849,0.014913559,-0.003195763,0.017044067,0.073541641,0.246735573,0.958762169,0.120238304
367,475569984.0,-0.927781105,-2.595393181,9.417879105,-0.022370338,0.001065254,0.015978813,0.073541641,0.246735573,0.958762169,0.120238304
368,475569984.0,-0.895458221,-2.589407921,9.379570961,-0.022370338,0.001065254,0.015978813,0.073541641,0.246735573,0.958762169,0.120238304
369,475569984.0,-0.927781105,-2.595393181,9.417879105,-0.022370338,0.001065254,0.015978813,0.073541641,0.246735573,0.958762169,0.120238304
370,475569984.0,-0.895458221,-2.589407921,9.379570961,-0.022370338,0.001065254,0.015978813,0.073541641,0.246735573,0.958762169,0.120238304
371,475569984.0,-0.927781105,-2.595393181,9.417879105,-0.022370338,0.001065254,0.015978813,0.073541641,0.246735573,0.958762169,0.120238304
372,475569984.0,-0.895458221,-2.589407921,9.379570961,-0.022370338,0.001065254,0.015978813,0.073541641,0.246735573,0.958762169,0.120238304
373,475570016.0,-0.90024662,-2.645672798,9.429850578,-0.026632309,-0.003195763,0.013848305,0.073541641,0.246735573,0.958762169,0.120238304
374,475570016.0,-0.860741615,-2.681587219,9.402316093,-0.026632309,-0.003195763,0.013848305,0.073541641,0.246735573,0.958762169,0.120238304
375,475570016.0,-0.90024662,-2.645672798,9.429850578,-0.026632309,-0.003195763,0.013848305,0.073541641,0.246735573,0.958762169,0.120238304
376,475570016.0,-0.860741615,-2.681587219,9.402316093,-0.026632309,-0.003195763,0.013848305,0.073541641,0.246735573,0.958762169,0.120238304
377,475570016.0,-0.90024662,-2.645672798,9.429850578,-0.026632309,-0.003195763,0.013848305,0.073541641,0.246735573,0.958762169,0.120238304
378,475570016.0,-0.860741615,-2.681587219,9.402316093,-0.026632309,-0.003195763,0.013848305,0.073541641,0.246735573,0.958762169,0.120238304
379,475570048.0,-0.931372643,-2.609759331,9.440624237,0.006391525,-0.017044067,0.011717796,0.073541641,0.246735573,0.958762169,0.120238304
380,475570048.0,-0.931372643,-2.609759331,9.440624237,0.006391525,-0.017044067,0.011717796,0.073541641,0.246735573,0.958762169,0.120238304
381,475570048.0,-0.931372643,-2.609759331,9.440624237,0.006391525,-0.017044067,0.011717796,0.073541641,0.246735573,0.958762169,0.120238304
382,475570176.0,-0.832010269,-2.604969978,9.416682243,-0.010652542,-0.009587288,-0.024501801,0.073541641,0.246735573,0.958762169,0.120238304
383,475570176.0,-0.808067322,-2.628912926,9.438230515,-0.010652542,-0.009587288,-0.024501801,0.073541641,0.246735573,0.958762169,0.120238304
384,475570208.0,-0.820038795,-2.7234869,9.378373146,-0.014913559,-0.019174576,-0.026632309,0.073541641,0.246735573,0.958762169,0.120238304
385,475570240.0,-0.812855721,-2.679192543,9.420273781,0.004261017,-0.02023983,-0.029828072,0.073541641,0.246735573,0.958762169,0.120238304
386,475570240.0,-0.810461044,-2.644475937,9.40471077,0.004261017,-0.02023983,-0.029828072,0.073541641,0.246735573,0.958762169,0.120238304
387,475570272.0,-0.791307449,-2.62053299,9.368796349,-0.018109322,-0.017044067,-0.027697563,0.073541641,0.246735573,0.958762169,0.120238304
388,475570304.0,-0.769759178,-2.718698502,9.422667503,0.011717796,-0.03195858,-0.021305084,0.073541641,0.246735573,0.958762169,0.120238304
389,475570304.0,-0.743421555,-2.85158062,9.493298531,0.011717796,-0.03195858,-0.021305084,0.073541641,0.246735573,0.958762169,0.120238304
390,475570336.0,-0.748209953,-2.673207283,9.500481606,0.014913559,-0.030893326,-0.014913559,0.073541641,0.246735573,0.958762169,0.120238304
391,475570336.0,-0.798490524,-2.652855873,9.482524872,0.014913559,-0.030893326,-0.014913559,0.073541641,0.246735573,0.958762169,0.120238304
392,475570368.0,-0.725464821,-2.633701324,9.471750259,0.014913559,-0.030893326,-0.014913559,0.073541641,0.246735573,0.958762169,0.120238304
393,475570400.0,-0.751801491,-2.670812607,9.516044617,0.014913559,-0.030893326,-0.014913559,0.073541641,0.246735573,0.958762169,0.120238304
394,475570400.0,-0.782927513,-2.683981895,9.571112633,0.014913559,-0.030893326,-0.014913559,0.073541641,0.246735573,0.958762169,0.120238304
395,475570432.0,-0.73025322,-2.613349915,9.57470417,0.014913559,-0.030893326,-0.014913559,0.073541641,0.246735573,0.958762169,0.120238304
396,475570432.0,-0.687156677,-2.618139267,9.506466866,0.014913559,-0.030893326,-0.014913559,0.073541641,0.246735573,0.958762169,0.120238304
397,475570464.0,-0.609342575,-2.640884399,9.468158722,0.014913559,-0.030893326,-0.014913559,0.073541641,0.246735573,0.958762169,0.120238304
398,475570496.0,-0.61652565,-2.622927666,9.57470417,0.014913559,-0.030893326,-0.014913559,0.073541641,0.246735573,0.958762169,0.120238304
399,475570496.0,-0.659622192,-2.524762154,9.492101669,0.014913559,-0.030893326,-0.014913559,0.073541641,0.246735573,0.958762169,0.120238304
400,475570528.0,-0.731450081,-2.502017021,9.39034462,0.014913559,-0.030893326,-0.014913559,0.073541641,0.246735573,0.958762169,0.120238304
401,475570560.0,-0.823630333,-2.650461197,9.300559998,-0.004261017,0.019174576,-0.051134109,0.073541641,0.246735573,0.958762169,0.120238304
402,475570560.0,-0.769759178,-2.642081261,9.325699806,-0.004261017,0.019174576,-0.051134109,0.073541641,0.246735573,0.958762169,0.120238304
403,475570560.0,-0.769759178,-2.642081261,9.325699806,-0.004261017,0.019174576,-0.051134109,0.073541641,0.246735573,0.958762169,0.120238304
404,475570560.0,-0.769759178,-2.642081261,9.325699806,-0.004261017,0.019174576,-0.051134109,0.073541641,0.246735573,0.958762169,0.120238304
405,475570592.0,-0.770956039,-2.728275299,9.402316093,0.008522034,0.0,-0.046872139,0.073541641,0.246735573,0.958762169,0.120238304
406,475570592.0,-0.788912773,-2.724683762,9.399922371,0.008522034,0.0,-0.046872139,0.073541641,0.246735573,0.958762169,0.120238304
407,475570592.0,-0.770956039,-2.728275299,9.402316093,0.008522034,0.0,-0.046872139,0.073541641,0.246735573,0.958762169,0.120238304
408,475570592.0,-0.788912773,-2.724683762,9.399922371,0.008522034,0.0,-0.046872139,0.073541641,0.246735573,0.958762169,0.120238304
409,475570592.0,-0.770956039,-2.728275299,9.402316093,0.008522034,0.0,-0.046872139,0.073541641,0.246735573,0.958762169,0.120238304
410,475570592.0,-0.788912773,-2.724683762,9.399922371,0.008522034,0.0,-0.046872139,0.073541641,0.246735573,0.958762169,0.120238304
411,475570624.0,-0.679973602,-2.729473114,9.387950897,-0.022370338,0.0,-0.045806885,0.073541641,0.246735573,0.958762169,0.120238304
412,475570624.0,-0.679973602,-2.729473114,9.387950897,-0.022370338,0.0,-0.045806885,0.073541641,0.246735573,0.958762169,0.120238304
413,475570624.0,-0.679973602,-2.729473114,9.387950897,-0.022370338,0.0,-0.045806885,0.073541641,0.246735573,0.958762169,0.120238304
414,475570656.0,-0.821235657,-2.778554916,9.387950897,-0.022370338,0.0,-0.045806885,0.073541641,0.246735573,0.958762169,0.120238304
415,475570656.0,-0.821235657,-2.778554916,9.387950897,-0.022370338,0.0,-0.045806885,0.073541641,0.246735573,0.958762169,0.120238304
416,475570656.0,-0.821235657,-2.778554916,9.387950897,-0.022370338,0.0,-0.045806885,0.073541641,0.246735573,0.958762169,0.120238304
417,475570880.0,-0.784124374,-2.668418884,9.466961861,-0.004261017,-0.003195763,0.009587288,0.069527626,0.252864838,0.957295418,0.121748924
418,475570880.0,-0.812855721,-2.698347092,9.482524872,-0.004261017,-0.003195763,0.009587288,0.069527626,0.252864838,0.957295418,0.121748924
419,475570912.0,-0.792504311,-2.725881577,9.445413589,-0.004261017,-0.003195763,0.009587288,0.069527626,0.252864838,0.957295418,0.121748924
420,475570912.0,-0.770956039,-2.731866837,9.419075966,-0.004261017,-0.003195763,0.009587288,0.069527626,0.252864838,0.957295418,0.121748924
421,475570944.0,-0.755393028,-2.649264336,9.494496346,-0.010652542,0.017044067,0.012783051,0.069527626,0.252864838,0.957295418,0.121748924
422,475570976.0,-0.745816231,-2.648067474,9.492101669,-0.025567055,0.02023983,0.014913559,0.070390701,0.252648354,0.957251549,0.122180939
423,475570976.0,-0.718281746,-2.687572479,9.523226738,-0.025567055,0.02023983,0.014913559,0.070390701,0.252648354,0.957251549,0.122180939
424,475571008.0,-0.725464821,-2.633701324,9.52801609,0.012783051,0.024501801,0.008522034,0.070606232,0.252562523,0.957251549,0.122051239
425,475571040.0,-0.708704948,-2.592999458,9.543578148,-0.008522034,0.033023834,0.007456779,0.071210861,0.252605438,0.957208633,0.121878624
426,475571040.0,-0.705113411,-2.596590042,9.451398849,-0.008522034,0.033023834,0.007456779,0.071210861,0.252605438,0.957208633,0.121878624
427,475571072.0,-0.752999306,-2.631307602,9.435835838,-0.008522034,0.033023834,0.007456779,0.071210861,0.252605438,0.957208633,0.121878624
428,475571072.0,-0.773350716,-2.571450233,9.440624237,-0.008522034,0.033023834,0.007456779,0.071210861,0.252605438,0.957208633,0.121878624
429,475571104.0,-0.767364502,-2.638490677,9.411893845,-0.008522034,0.033023834,0.007456779,0.071210861,0.252605438,0.957208633,0.121878624
430,475571136.0,-0.762576103,-2.655250549,9.379570961,-0.008522034,0.033023834,0.007456779,0.071210861,0.252605438,0.957208633,0.121878624
431,475571136.0,-0.793701172,-2.581027985,9.422667503,-0.008522034,0.033023834,0.007456779,0.071210861,0.252605438,0.957208633,0.121878624
432,475571264.0,-0.829615593,-2.461314201,9.705191612,-0.076701164,0.116116524,-0.131031036,0.071210861,0.252605438,0.957208633,0.121878624
433,475571264.0,-0.829615593,-2.461314201,9.705191612,-0.076701164,0.116116524,-0.131031036,0.071210861,0.252605438,0.957208633,0.121878624
434,475571264.0,-0.829615593,-2.461314201,9.705191612,-0.076701164,0.116116524,-0.131031036,0.071210861,0.252605438,0.957208633,0.121878624
435,475571296.0,-0.871515274,-2.427794456,9.737514496,-0.084157944,0.148076057,-0.166185379,0.071210861,0.252605438,0.957208633,0.121878624
436,475571296.0,-0.849967003,-2.535536766,9.799765587,-0.084157944,0.148076057,-0.166185379,0.071210861,0.252605438,0.957208633,0.121878624
437,475571296.0,-0.871515274,-2.427794456,9.737514496,-0.084157944,0.148076057,-0.166185379,0.071210861,0.252605438,0.957208633,0.121878624
438,475571296.0,-0.849967003,-2.535536766,9.799765587,-0.084157944,0.148076057,-0.166185379,0.071210861,0.252605438,0.957208633,0.121878624
439,475571296.0,-0.871515274,-2.427794456,9.737514496,-0.084157944,0.148076057,-0.166185379,0.071210861,0.252605438,0.957208633,0.121878624
440,475571296.0,-0.849967003,-2.535536766,9.799765587,-0.084157944,0.148076057,-0.166185379,0.071210861,0.252605438,0.957208633,0.121878624
441,475571328.0,-0.933766365,-2.324840546,9.791385651,-0.112920761,0.197079659,-0.235429764,0.071210861,0.252605438,0.957208633,0.121878624
442,475571328.0,-0.933766365,-2.324840546,9.791385651,-0.112920761,0.197079659,-0.235429764,0.071210861,0.252605438,0.957208633,0.121878624
443,475571328.0,-0.933766365,-2.324840546,9.791385651,-0.112920761,0.197079659,-0.235429764,0.071210861,0.252605438,0.957208633,0.121878624
444,475571360.0,-0.96130085,-2.543916702,9.657306671,-0.118247032,0.216255188,-0.25886631,0.071210861,0.252605438,0.957208633,0.121878624
445,475571360.0,-0.96130085,-2.543916702,9.657306671,-0.118247032,0.216255188,-0.25886631,0.071210861,0.252605438,0.957208633,0.121878624
446,475571360.0,-0.96130085,-2.543916702,9.657306671,-0.118247032,0.216255188,-0.25886631,0.071210861,0.252605438,0.957208633,0.121878624
447,475571552.0,-0.8595438,-5.704359055,7.255848885,-0.072440147,0.141683578,-0.245018005,0.083683968,0.280744553,0.948231697,0.122698784
448,475571584.0,-0.496811867,-5.668444633,7.133741379,-0.072440147,0.141683578,-0.245018005,0.083683968,0.280744553,0.948231697,0.122698784
449,475571616.0,-0.084996223,-6.29335022,7.303734779,-0.072440147,0.141683578,-0.245018005,0.083683968,0.280744553,0.948231697,0.122698784
450,475571616.0,-0.246609688,-5.71154213,8.036382675,-0.072440147,0.141683578,-0.245018005,0.083683968,0.280744553,0.948231697,0.122698784
451,475571648.0,-0.450122833,-5.591828346,9.432244301,0.722270966,-1.20058918,2.157225609,0.083683968,0.280744553,0.948231697,0.122698784
452,475571648.0,-0.653636932,-5.24465847,10.25587559,0.722270966,-1.20058918,2.157225609,0.083683968,0.280744553,0.948231697,0.122698784
453,475571648.0,-0.653636932,-5.24465847,10.25587559,0.722270966,-1.20058918,2.157225609,0.083683968,0.280744553,0.948231697,0.122698784
454,475571680.0,-0.512373924,-4.822069168,11.05915451,0.625329018,-1.001379013,2.544994354,0.083683968,0.280744553,0.948231697,0.122698784
455,475571680.0,-0.512373924,-4.822069168,11.05915451,0.625329018,-1.001379013,2.544994354,0.083683968,0.280744553,0.948231697,0.122698784
456,475571712.0,-0.4321661,-4.288145065,11.60026073,0.609349251,-0.803233147,2.688809395,0.083683968,0.280744553,0.948231697,0.122698784
457,475571712.0,-0.447729111,-3.494443893,11.83849049,0.609349251,-0.803233147,2.688809395,0.083683968,0.280744553,0.948231697,0.122698784
458,475571712.0,-0.4321661,-4.288145065,11.60026073,0.609349251,-0.803233147,2.688809395,0.083683968,0.280744553,0.948231697,0.122698784
459,475571712.0,-0.447729111,-3.494443893,11.83849049,0.609349251,-0.803233147,2.688809395,0.083683968,0.280744553,0.948231697,0.122698784
460,475571744.0,0.00598526,-1.726271629,12.98894024,1.194197655,-0.372853279,2.733551025,0.083683968,0.280744553,0.948231697,0.122698784
461,475571744.0,0.00598526,-1.726271629,12.98894024,1.194197655,-0.372853279,2.733551025,0.083683968,0.280744553,0.948231697,0.122698784
462,475571968.0,-0.130487442,3.173610687,8.836070061,0.724401474,1.655470848,1.495676041,0.185925484,-0.011221886,0.982025146,0.03038311
463,475571968.0,-0.428574562,3.300507545,7.203174591,0.724401474,1.655470848,1.495676041,0.185925484,-0.011221886,0.982025146,0.03038311
464,475571968.0,-0.130487442,3.173610687,8.836070061,0.724401474,1.655470848,1.495676041,0.185925484,-0.011221886,0.982025146,0.03038311
465,475571968.0,-0.428574562,3.300507545,7.203174591,0.724401474,1.655470848,1.495676041,0.185925484,-0.011221886,0.982025146,0.03038311
466,475571968.0,-0.130487442,3.173610687,8.836070061,0.724401474,1.655470848,1.495676041,0.185925484,-0.011221886,0.982025146,0.03038311
467,475571968.0,-0.428574562,3.300507545,7.203174591,0.724401474,1.655470848,1.495676041,0.185925484,-0.011221886,0.982025146,0.03038311
468,475572000.0,-1.034326553,2.589407921,5.547533989,0.724401474,1.655470848,1.495676041,0.185925484,-0.011221886,0.982025146,0.03038311
469,475572000.0,-1.034326553,2.589407921,5.547533989,0.724401474,1.655470848,1.495676041,0.185925484,-0.011221886,0.982025146,0.03038311
470,475572000.0,-1.034326553,2.589407921,5.547533989,0.724401474,1.655470848,1.495676041,0.185925484,-0.011221886,0.982025146,0.03038311
471,475572032.0,-1.555081367,1.23903656,4.175614357,0.724401474,1.655470848,1.495676041,0.185925484,-0.011221886,0.982025146,0.03038311
472,475572032.0,-2.138087273,0.70391655,3.553103447,0.724401474,1.655470848,1.495676041,0.185925484,-0.011221886,0.982025146,0.03038311
473,475572032.0,-1.555081367,1.23903656,4.175614357,0.724401474,1.655470848,1.495676041,0.185925484,-0.011221886,0.982025146,0.03038311
474,475572032.0,-2.138087273,0.70391655,3.553103447,0.724401474,1.655470848,1.495676041,0.185925484,-0.011221886,0.982025146,0.03038311
475,475572032.0,-1.555081367,1.23903656,4.175614357,0.724401474,1.655470848,1.495676041,0.185925484,-0.011221886,0.982025146,0.03038311
476,475572032.0,-2.138087273,0.70391655,3.553103447,0.724401474,1.655470848,1.495676041,0.185925484,-0.011221886,0.982025146,0.03038311
477,475572256.0,-1.850773811,-8.425452232,6.844034195,0.033023834,-1.911142349,-1.927122116,0.217948914,0.347726822,0.908612251,0.077253342
478,475572288.0,-1.242628098,-9.013246536,7.217540741,-0.33343792,-1.996365547,-0.941721916,0.181912422,0.362745285,0.908353806,0.101033211
479,475572288.0,-1.717891693,-9.854834557,7.886740685,-0.33343792,-1.996365547,-0.941721916,0.181912422,0.362745285,0.908353806,0.101033211
480,475572320.0,-2.739049911,-10.01525021,8.502069473,-0.08309269,-2.019802094,0.216255188,0.164907455,0.362270355,0.910640717,0.110873222
481,475572352.0,-2.122524261,-8.9174757,9.452595711,-0.08309269,-2.019802094,0.216255188,0.146996498,0.356616974,0.914999962,0.118253708
482,475572352.0,-2.251814842,-5.286558151,11.20759964,-0.08309269,-2.019802094,0.216255188,0.146996498,0.356616974,0.914999962,0.118253708
483,475572384.0,-2.695952415,-5.026779175,11.22316265,-0.08309269,-2.019802094,0.216255188,0.146996498,0.356616974,0.914999962,0.118253708
484,475572416.0,-3.525568962,-7.379154205,10.60065079,-0.08309269,-2.019802094,0.216255188,0.146996498,0.356616974,0.914999962,0.118253708
485,475572416.0,-3.007208824,-7.667664528,11.42547798,-0.08309269,-2.019802094,0.216255188,0.146996498,0.356616974,0.914999962,0.118253708
486,475572448.0,-2.166817665,-5.322472572,12.68606377,-0.08309269,-2.019802094,0.216255188,0.146996498,0.356616974,0.914999962,0.118253708
487,475572448.0,-1.813662529,-2.747429848,13.85686398,-0.08309269,-2.019802094,0.216255188,0.146996498,0.356616974,0.914999962,0.118253708
488,475572448.0,-1.813662529,-2.747429848,13.85686398,-0.08309269,-2.019802094,0.216255188,0.146996498,0.356616974,0.914999962,0.118253708
489,475572480.0,-1.236642838,-2.293714523,13.13618755,-0.08309269,-2.019802094,0.216255188,0.146996498,0.356616974,0.914999962,0.118253708
490,475572480.0,-1.236642838,-2.293714523,13.13618755,-0.08309269,-2.019802094,0.216255188,0.146996498,0.356616974,0.914999962,0.118253708
491,475572512.0,-0.826024055,-1.770565987,12.75190639,-0.08309269,-2.019802094,0.216255188,0.146996498,0.356616974,0.914999962,0.118253708
492,475572512.0,-0.132882118,-0.936161041,12.83211517,-0.08309269,-2.019802094,0.216255188,0.146996498,0.356616974,0.914999962,0.118253708
493,475572512.0,-0.826024055,-1.770565987,12.75190639,-0.08309269,-2.019802094,0.216255188,0.146996498,0.356616974,0.914999962,0.118253708
494,475572512.0,-0.132882118,-0.936161041,12.83211517,-0.08309269,-2.019802094,0.216255188,0.146996498,0.356616974,0.914999962,0.118253708
495,475572544.0,-0.082601547,-0.918204308,11.83250523,0.268454552,0.036219597,1.045055389,0.146996498,0.356616974,0.914999962,0.118253708
496,475572544.0,-0.082601547,-0.918204308,11.83250523,0.268454552,0.036219597,1.045055389,0.146996498,0.356616974,0.914999962,0.118253708
497,475572672.0,-0.317240715,-1.508392334,8.809733391,0.334503174,0.23862648,0.343025208,0.146996498,0.356616974,0.914999962,0.118253708
498,475572672.0,-0.293297768,-1.93696785,8.624176979,0.334503174,0.23862648,0.343025208,0.146996498,0.356616974,0.914999962,0.118253708
499,475572672.0,-0.317240715,-1.508392334,8.809733391,0.334503174,0.23862648,0.343025208,0.146996498,0.356616974,0.914999962,0.118253708
500,475572672.0,-0.293297768,-1.93696785,8.624176979,0.334503174,0.23862648,0.343025208,0.146996498,0.356616974,0.914999962,0.118253708
501,475572672.0,-0.317240715,-1.508392334,8.809733391,0.334503174,0.23862648,0.343025208,0.146996498,0.356616974,0.914999962,0.118253708
502,475572672.0,-0.293297768,-1.93696785,8.624176979,0.334503174,0.23862648,0.343025208,0.146996498,0.356616974,0.914999962,0.118253708
503,475572704.0,-0.384280205,-2.375120163,8.472140312,0.334503174,0.23862648,0.343025208,0.146996498,0.356616974,0.914999962,0.118253708
504,475572704.0,-0.384280205,-2.375120163,8.472140312,0.334503174,0.23862648,0.343025208,0.146996498,0.356616974,0.914999962,0.118253708
505,475572704.0,-0.384280205,-2.375120163,8.472140312,0.334503174,0.23862648,0.343025208,0.146996498,0.356616974,0.914999962,0.118253708
506,475572736.0,-0.530331612,-2.286531448,8.722342491,-0.056460381,0.077766418,-0.124639511,0.146996498,0.356616974,0.914999962,0.118253708
507,475572736.0,-0.610539436,-2.270969391,8.918672562,-0.056460381,0.077766418,-0.124639511,0.146996498,0.356616974,0.914999962,0.118253708
508,475572736.0,-0.530331612,-2.286531448,8.722342491,-0.056460381,0.077766418,-0.124639511,0.146996498,0.356616974,0.914999962,0.118253708
509,475572736.0,-0.610539436,-2.270969391,8.918672562,-0.056460381,0.077766418,-0.124639511,0.146996498,0.356616974,0.914999962,0.118253708
510,475572736.0,-0.530331612,-2.286531448,8.722342491,-0.056460381,0.077766418,-0.124639511,0.146996498,0.356616974,0.914999962,0.118253708
511,475572736.0,-0.610539436,-2.270969391,8.918672562,-0.056460381,0.077766418,-0.124639511,0.146996498,0.356616974,0.914999962,0.118253708
512,475572960.0,-1.016368866,-3.226284981,9.530409813,-0.057525635,-0.030893326,-0.19494915,0.082388878,0.176215172,0.97058773,0.141947746
513,475572960.0,-1.016368866,-3.226284981,9.530409813,-0.057525635,-0.030893326,-0.19494915,0.082388878,0.176215172,0.97058773,0.141947746
514,475572960.0,-1.016368866,-3.226284981,9.530409813,-0.057525635,-0.030893326,-0.19494915,0.082388878,0.176215172,0.97058773,0.141947746
515,475572992.0,-1.065451622,-3.244241714,9.417879105,-0.057525635,-0.030893326,-0.19494915,0.082388878,0.176215172,0.97058773,0.141947746
516,475572992.0,-1.194742203,-3.457332611,9.360416412,-0.057525635,-0.030893326,-0.19494915,0.082388878,0.176215172,0.97058773,0.141947746
517,475572992.0,-1.065451622,-3.244241714,9.417879105,-0.057525635,-0.030893326,-0.19494915,0.082388878,0.176215172,0.97058773,0.141947746
518,475572992.0,-1.194742203,-3.457332611,9.360416412,-0.057525635,-0.030893326,-0.19494915,0.082388878,0.176215172,0.97058773,0.141947746
519,475572992.0,-1.065451622,-3.244241714,9.417879105,-0.057525635,-0.030893326,-0.19494915,0.082388878,0.176215172,0.97058773,0.141947746
520,475572992.0,-1.194742203,-3.457332611,9.360416412,-0.057525635,-0.030893326,-0.19494915,0.082388878,0.176215172,0.97058773,0.141947746
521,475573024.0,-1.200728416,-3.391489983,9.414287567,-0.057525635,-0.030893326,-0.19494915,0.082388878,0.176215172,0.97058773,0.141947746
522,475573024.0,-1.121717453,-3.238256454,9.591464043,-0.057525635,-0.030893326,-0.19494915,0.082388878,0.176215172,0.97058773,0.141947746
523,475573024.0,-1.200728416,-3.391489983,9.414287567,-0.057525635,-0.030893326,-0.19494915,0.082388878,0.176215172,0.97058773,0.141947746
524,475573024.0,-1.121717453,-3.238256454,9.591464043,-0.057525635,-0.030893326,-0.19494915,0.082388878,0.176215172,0.97058773,0.141947746
525,475573024.0,-1.200728416,-3.391489983,9.414287567,-0.057525635,-0.030893326,-0.19494915,0.082388878,0.176215172,0.97058773,0.141947746
526,475573024.0,-1.121717453,-3.238256454,9.591464043,-0.057525635,-0.030893326,-0.19494915,0.082388878,0.176215172,0.97058773,0.141947746
527,475573152.0,-0.877501488,-3.122134209,9.284996986,0.006391525,-0.004261017,0.027697563,0.082691193,0.183379173,0.966444969,0.15985775
528,475573184.0,-0.960103989,-3.089811325,9.232322693,0.006391525,-0.004261017,0.027697563,0.082691193,0.183379173,0.966444969,0.15985775
529,475573184.0,-0.909824371,-2.979674339,9.393936157,0.006391525,-0.004261017,0.027697563,0.082691193,0.183379173,0.966444969,0.15985775
530,475573216.0,-0.926584244,-3.002420425,9.288588524,0.006391525,-0.004261017,0.027697563,0.082691193,0.183379173,0.966444969,0.15985775
531,475573248.0,-0.895458221,-3.043122292,9.190423012,0.014913559,0.0,-0.006391525,0.081741333,0.182904243,0.96700573,0.157527924
532,475573248.0,-0.845178604,-3.067065239,9.202394485,0.014913559,0.0,-0.006391525,0.081741333,0.182904243,0.96700573,0.157527924
533,475573280.0,-0.903838158,-2.954534531,9.240702629,0.0,0.002130508,-0.012783051,0.081568718,0.182948112,0.967048645,0.157095909
534,475573312.0,-0.907429695,-3.002420425,9.280208588,-0.043676376,0.0,-0.035154343,0.081353188,0.183293343,0.966962814,0.157225609
535,475573312.0,-0.887078285,-3.158047676,9.237111092,-0.043676376,0.0,-0.035154343,0.081353188,0.183293343,0.966962814,0.157225609
536,475573344.0,-0.895458221,-3.100584984,9.225139618,-0.043676376,0.0,-0.035154343,0.081310272,0.183638573,0.96687603,0.157527924
537,475573344.0,-0.849967003,-3.037137032,9.21556282,-0.043676376,0.0,-0.035154343,0.081310272,0.183638573,0.96687603,0.157527924
538,475573376.0,-0.905035019,-3.047911644,9.251477242,-0.043676376,0.0,-0.035154343,0.081310272,0.183638573,0.96687603,0.157527924
539,475573408.0,-0.871515274,-3.168822289,9.251477242,-0.043676376,0.0,-0.035154343,0.081310272,0.183638573,0.96687603,0.157527924
540,475573408.0,-0.954117775,-3.128119469,9.319713593,-0.043676376,0.0,-0.035154343,0.081310272,0.183638573,0.96687603,0.157527924
541,475573440.0,-0.926584244,-3.138894081,9.375979424,0.017044067,-0.011717796,-0.057525635,0.081310272,0.183638573,0.96687603,0.157527924
542,475573472.0,-0.966089249,-3.140090942,9.324501991,-0.044741631,0.001065254,-0.051134109,0.081310272,0.183638573,0.96687603,0.157527924
543,475573472.0,-0.954117775,-3.10896492,9.344853401,-0.044741631,0.001065254,-0.051134109,0.081310272,0.183638573,0.96687603,0.157527924
544,475573504.0,-0.944540977,-3.264593124,9.348444939,-0.019174576,0.010652542,-0.043676376,0.081310272,0.183638573,0.96687603,0.157527924
545,475573504.0,-0.956512451,-3.331632614,9.31731987,-0.019174576,0.010652542,-0.043676376,0.081310272,0.183638573,0.96687603,0.157527924
546,475573536.0,-0.906232834,-3.300507545,9.249082565,0.027697563,0.007456779,-0.034089088,0.081310272,0.183638573,0.96687603,0.157527924
547,475573568.0,-0.870318413,-3.257410049,9.362811089,-0.005326271,0.011717796,-0.008522034,0.081310272,0.183638573,0.96687603,0.157527924
548,475573568.0,-0.922992706,-3.202342033,9.292180061,-0.005326271,0.011717796,-0.008522034,0.081310272,0.183638573,0.96687603,0.157527924
549,475573600.0,-0.875106812,-3.16403389,9.20957756,-0.017044067,0.03195858,-0.011717796,0.081310272,0.183638573,0.96687603,0.157527924
550,475573632.0,-0.956512451,-3.187975883,9.265842438,0.005326271,0.035154343,-0.023435593,0.081310272,0.183638573,0.96687603,0.157527924
551,475573632.0,-0.975666046,-3.177202225,9.305348396,0.005326271,0.035154343,-0.023435593,0.081310272,0.183638573,0.96687603,0.157527924
552,475573664.0,-0.985243797,-3.185582161,9.158100128,0.005326271,0.035154343,-0.023435593,0.081310272,0.183638573,0.96687603,0.157527924
553,475573664.0,-0.956512451,-3.079036713,9.249082565,0.005326271,0.035154343,-0.023435593,0.081310272,0.183638573,0.96687603,0.157527924
554,475573696.0,-0.931372643,-3.19037056,9.304150581,0.005326271,0.035154343,-0.023435593,0.081310272,0.183638573,0.96687603,0.157527924
555,475573728.0,-0.956512451,-3.294521332,9.166480064,0.005326271,0.035154343,-0.023435593,0.081310272,0.183638573,0.96687603,0.157527924
556,475573728.0,-0.945737839,-3.185582161,9.250279427,0.005326271,0.035154343,-0.023435593,0.081310272,0.183638573,0.96687603,0.157527924
557,475573856.0,-0.902641296,-3.074248314,9.255068779,-0.002130508,0.0,-0.001065254,0.080965042,0.189421654,0.96584034,0.157441139
558,475573888.0,-0.930174828,-2.973689079,9.295770645,-0.002130508,0.0,-0.001065254,0.080965042,0.189421654,0.96584034,0.157441139
559,475573888.0,-0.952920914,-3.111359596,9.228731155,-0.002130508,0.0,-0.001065254,0.080965042,0.189421654,0.96584034,0.157441139
560,475573920.0,-0.915809631,-3.243044853,9.080286026,-0.002130508,0.0,-0.001065254,0.080965042,0.189421654,0.96584034,0.157441139
561,475573920.0,-0.882289886,-3.21072197,9.203591347,-0.002130508,0.0,-0.001065254,0.080965042,0.189421654,0.96584034,0.157441139
562,475573952.0,-0.90024662,-3.124527931,9.311333656,-0.012783051,0.0,-0.022370338,0.080965042,0.189421654,0.96584034,0.157441139
563,475573984.0,-0.891866684,-3.135302544,9.247885704,-0.06391716,0.007456779,-0.03195858,0.080965042,0.189421654,0.96584034,0.157441139
564,475573984.0,-0.980455399,-3.197553635,9.25626564,-0.06391716,0.007456779,-0.03195858,0.080965042,0.189421654,0.96584034,0.157441139
565,475574016.0,-1.011580467,-3.271776199,9.220351219,-0.015978813,-0.009587288,-0.026632309,0.080965042,0.189421654,0.96584034,0.157441139
566,475574048.0,-0.954117775,-3.14966774,9.268237114,-0.015978813,-0.009587288,-0.026632309,0.080965042,0.189421654,0.96584034,0.157441139
567,475574048.0,-0.908626556,-3.152062416,9.299362183,-0.015978813,-0.009587288,-0.026632309,0.080965042,0.189421654,0.96584034,0.157441139
568,475574080.0,-1.019960403,-3.21670723,9.274222374,-0.015978813,-0.009587288,-0.026632309,0.080965042,0.189421654,0.96584034,0.157441139
569,475574080.0,-0.89426136,-3.366350174,9.176057816,-0.015978813,-0.009587288,-0.026632309,0.080965042,0.189421654,0.96584034,0.157441139
570,475574112.0,-0.982849121,-3.299309731,9.258659363,-0.015978813,-0.009587288,-0.026632309,0.080965042,0.189421654,0.96584034,0.157441139
571,475574144.0,-0.895458221,-3.19635582,9.330488205,0.004261017,-0.021305084,-0.010652542,0.079540253,0.192270279,0.965149879,0.15869236
572,475574144.0,-0.912218094,-3.167625427,9.30295372,0.004261017,-0.021305084,-0.010652542,0.079540253,0.192270279,0.965149879,0.15869236
573,475574176.0,-0.972075462,-3.234664917,9.243097305,-0.024501801,0.003195763,-0.017044067,0.079540253,0.19235611,0.965064049,0.158951759
574,475574208.0,-0.902641296,-3.225087166,9.194014549,0.007456779,0.003195763,-0.02023983,0.079540253,0.192788124,0.964977264,0.159038544
575,475574208.0,-0.871515274,-3.179595947,9.21556282,0.007456779,0.003195763,-0.02023983,0.079540253,0.192788124,0.964977264,0.159038544
576,475574240.0,-0.865530014,-3.181990623,9.304150581,0.007456779,0.003195763,-0.02023983,0.079454422,0.192960739,0.964977264,0.159038544
577,475574240.0,-0.87390995,-3.244241714,9.208379745,0.007456779,0.003195763,-0.02023983,0.079454422,0.192960739,0.964977264,0.159038544
578,475574272.0,-0.891866684,-3.330435753,9.160494804,0.007456779,0.003195763,-0.02023983,0.079454422,0.192960739,0.964977264,0.159038544
579,475574304.0,-0.891866684,-3.269381523,9.210774422,0.007456779,0.003195763,-0.02023983,0.079454422,0.192960739,0.964977264,0.159038544
580,475574304.0,-0.861938477,-3.234664917,9.268237114,0.007456779,0.003195763,-0.02023983,0.079454422,0.192960739,0.964977264,0.159038544
581,475574336.0,-0.903838158,-3.152062416,9.253870964,-0.026632309,-0.005326271,-0.005326271,0.079454422,0.192960739,0.964977264,0.159038544
582,475574464.0,-0.864333153,-3.207130432,9.389147758,-0.030893326,-0.003195763,-0.007456779,0.078936577,0.193133354,0.964804649,0.160246849
583,475574464.0,-0.902641296,-3.202342033,9.319713593,-0.030893326,-0.003195763,-0.007456779,0.078936577,0.193133354,0.964804649,0.160246849
584,475574496.0,-0.866726875,-3.202342033,9.280208588,-0.030893326,-0.003195763,-0.007456779,0.078936577,0.193133354,0.964804649,0.160246849
585,475574528.0,-0.906232834,-3.23107338,9.310136795,0.001065254,0.021305084,-0.017044067,0.078936577,0.193133354,0.964804649,0.160246849
586,475574528.0,-0.837995529,-3.275367737,9.221549034,0.001065254,0.021305084,-0.017044067,0.078936577,0.193133354,0.964804649,0.160246849
587,475574560.0,-0.836798668,-3.274169922,9.258659363,0.007456779,0.023435593,-0.02023983,0.078936577,0.193133354,0.964804649,0.160246849
588,475574560.0,-0.82722187,-3.307689667,9.239505768,0.007456779,0.023435593,-0.02023983,0.078936577,0.193133354,0.964804649,0.160246849
589,475574592.0,-0.845178604,-3.266987801,9.188028336,-0.004261017,0.034089088,-0.022370338,0.078936577,0.193133354,0.964804649,0.160246849
590,475574624.0,-0.917006493,-3.308887482,9.221549034,-0.019174576,0.021305084,-0.017044067,0.078936577,0.193133354,0.964804649,0.160246849
591,475574624.0,-0.852361679,-3.307689667,9.164086342,-0.019174576,0.021305084,-0.017044067,0.078936577,0.193133354,0.964804649,0.160246849
592,475574656.0,-0.855952263,-3.243044853,9.10662365,-0.019174576,0.021305084,-0.017044067,0.078936577,0.193133354,0.964804649,0.160246849
593,475574688.0,-0.889472961,-3.275367737,9.197606087,-0.019174576,0.021305084,-0.017044067,0.078936577,0.193133354,0.964804649,0.160246849
594,475574688.0,-0.909824371,-3.250226974,9.162888527,-0.019174576,0.021305084,-0.017044067,0.078936577,0.193133354,0.964804649,0.160246849
595,475574720.0,-0.847572327,-3.23705864,9.195211411,-0.019174576,0.021305084,-0.017044067,0.078936577,0.193133354,0.964804649,0.160246849
596,475574720.0,-0.863135338,-3.250226974,9.179648399,-0.019174576,0.021305084,-0.017044067,0.078936577,0.193133354,0.964804649,0.160246849
597,475574752.0,-0.863135338,-3.338815689,9.220351219,-0.021305084,-0.005326271,-0.008522034,0.078936577,0.193133354,0.964804649,0.160246849
598,475574752.0,-0.863135338,-3.338815689,9.220351219,-0.021305084,-0.005326271,-0.008522034,0.078936577,0.193133354,0.964804649,0.160246849
599,475574784.0,-0.90024662,-3.322055817,9.12697506,0.025567055,-0.017044067,-0.021305084,0.078936577,0.193133354,0.964804649,0.160246849
600,475574784.0,-0.83320713,-3.213116646,9.221549034,0.025567055,-0.017044067,-0.021305084,0.078936577,0.193133354,0.964804649,0.160246849
601,475574784.0,-0.90024662,-3.322055817,9.12697506,0.025567055,-0.017044067,-0.021305084,0.078936577,0.193133354,0.964804649,0.160246849
602,475574784.0,-0.83320713,-3.213116646,9.221549034,0.025567055,-0.017044067,-0.021305084,0.078936577,0.193133354,0.964804649,0.160246849
603,475574816.0,-0.872713089,-3.233467102,9.286193848,-0.011717796,-0.006391525,-0.006391525,0.078936577,0.193133354,0.964804649,0.160246849
604,475574816.0,-0.872713089,-3.233467102,9.286193848,-0.011717796,-0.006391525,-0.006391525,0.078936577,0.193133354,0.964804649,0.160246849
605,475574848.0,-0.887078285,-3.244241714,9.316122055,-0.010652542,0.002130508,-0.028762817,0.078936577,0.193133354,0.964804649,0.160246849
606,475574848.0,-0.887078285,-3.244241714,9.316122055,-0.010652542,0.002130508,-0.028762817,0.078936577,0.193133354,0.964804649,0.160246849
607,475574976.0,-0.902641296,-3.263396263,9.214365959,-0.019174576,0.005326271,-0.015978813,0.078936577,0.193133354,0.964804649,0.160246849
608,475574976.0,-0.973272324,-3.227481842,9.284996986,-0.019174576,0.005326271,-0.015978813,0.078936577,0.193133354,0.964804649,0.160246849
609,475575008.0,-0.966089249,-3.222693443,9.275420189,-0.019174576,0.005326271,-0.015978813,0.078936577,0.193133354,0.964804649,0.160246849
610,475575040.0,-0.966089249,-3.246636391,9.186831474,-0.022370338,0.028762817,-0.014913559,0.078936577,0.193133354,0.964804649,0.160246849
611,475575040.0,-0.98763752,-3.338815689,9.198802948,-0.022370338,0.028762817,-0.014913559,0.078936577,0.193133354,0.964804649,0.160246849
612,475575072.0,-0.92059803,-3.347195625,9.227534294,0.013848305,0.010652542,-0.017044067,0.078936577,0.193133354,0.964804649,0.160246849
613,475575104.0,-0.912218094,-3.278958321,9.255068779,-0.017044067,0.014913559,-0.012783051,0.078936577,0.193133354,0.964804649,0.160246849
614,475575104.0,-0.895458221,-3.344800949,9.197606087,-0.017044067,0.014913559,-0.012783051,0.078936577,0.193133354,0.964804649,0.160246849
615,475575136.0,-0.924189568,-3.373532295,9.196408272,-0.008522034,0.013848305,0.002130508,0.078936577,0.193133354,0.964804649,0.160246849
616,475575168.0,-0.960103989,-3.269381523,9.217957497,-0.008522034,0.013848305,0.002130508,0.081180573,0.198096275,0.963553429,0.160505295
617,475575168.0,-0.945737839,-3.280156136,9.165283203,-0.008522034,0.013848305,0.002130508,0.081180573,0.198096275,0.963553429,0.160505295
618,475575200.0,-0.834403992,-3.338815689,9.176057816,-0.008522034,0.013848305,0.002130508,0.081396103,0.198096275,0.963466644,0.160720825
619,475575200.0,-0.91461277,-3.288536072,9.148523331,-0.008522034,0.013848305,0.002130508,0.081396103,0.198096275,0.963466644,0.160720825
620,475575232.0,-0.864333153,-3.328041077,9.198802948,-0.026632309,0.012783051,0.008522034,0.081482887,0.198096275,0.963466644,0.16089344
621,475575264.0,-0.945737839,-3.385503769,9.10662365,0.0,0.003195763,0.006391525,0.081482887,0.198096275,0.963466644,0.16089344
622,475575264.0,-0.867923737,-3.3543787,9.202394485,0.0,0.003195763,0.006391525,0.081482887,0.198096275,0.963466644,0.16089344
623,475575296.0,-0.845178604,-3.250226974,9.219154358,-0.025567055,0.002130508,0.008522034,0.081482887,0.198096275,0.963466644,0.16089344
624,475575296.0,-0.944540977,-3.328041077,9.275420189,-0.025567055,0.002130508,0.008522034,0.081482887,0.198096275,0.963466644,0.16089344
625,475575328.0,-0.855952263,-3.336421013,9.197606087,-0.003195763,-0.002130508,0.007456779,0.081482887,0.198096275,0.963466644,0.16089344
626,475575360.0,-1.000806808,-3.302901268,9.247885704,-0.003195763,-0.002130508,0.007456779,0.081482887,0.198096275,0.963466644,0.16089344
627,475575360.0,-0.915809631,-3.304099083,9.268237114,-0.003195763,-0.002130508,0.007456779,0.081482887,0.198096275,0.963466644,0.16089344
628,475575360.0,-0.915809631,-3.304099083,9.268237114,-0.003195763,-0.002130508,0.007456779,0.081482887,0.198096275,0.963466644,0.16089344
629,475575392.0,-0.951724052,-3.252621651,9.252674103,-0.003195763,-0.002130508,0.007456779,0.081482887,0.198096275,0.963466644,0.16089344
630,475575392.0,-0.951724052,-3.252621651,9.252674103,-0.003195763,-0.002130508,0.007456779,0.081482887,0.198096275,0.963466644,0.16089344
631,475575424.0,-0.931372643,-3.304099083,9.275420189,-0.003195763,-0.002130508,0.007456779,0.081482887,0.198096275,0.963466644,0.16089344
632,475575424.0,-0.872713089,-3.286141396,9.263448715,-0.003195763,-0.002130508,0.007456779,0.081482887,0.198096275,0.963466644,0.16089344
633,475575424.0,-0.931372643,-3.304099083,9.275420189,-0.003195763,-0.002130508,0.007456779,0.081482887,0.198096275,0.963466644,0.16089344
634,475575424.0,-0.872713089,-3.286141396,9.263448715,-0.003195763,-0.002130508,0.007456779,0.081482887,0.198096275,0.963466644,0.16089344
635,475575456.0,-0.93496418,-3.263396263,9.308939934,0.008522034,0.008522034,0.012783051,0.081482887,0.198096275,0.963466644,0.16089344
636,475575456.0,-0.93496418,-3.263396263,9.308939934,0.008522034,0.008522034,0.012783051,0.081482887,0.198096275,0.963466644,0.16089344
637,475575584.0,-0.909824371,-3.251424789,9.243097305,0.014913559,0.021305084,-0.002130508,0.082777023,0.1973629,0.96350956,0.16080761
638,475575584.0,-0.902641296,-3.241847038,9.234717369,0.014913559,0.021305084,-0.002130508,0.082777023,0.1973629,0.96350956,0.16080761
639,475575616.0,-0.975666046,-3.251424789,9.128171921,-0.017044067,0.021305084,-0.005326271,0.083294868,0.197405815,0.963466644,0.16089344
640,475575616.0,-0.951724052,-3.302901268,9.117397308,-0.017044067,0.021305084,-0.005326271,0.083294868,0.197405815,0.963466644,0.16089344
641,475575648.0,-0.917006493,-3.233467102,9.113805771,0.0,0.009587288,-0.007456779,0.083251953,0.197405815,0.963466644,0.160850525
642,475575680.0,-1.00798893,-3.286141396,9.12697506,0.0,0.009587288,-0.007456779,0.083251953,0.197405815,0.963466644,0.160850525
643,475575680.0,-0.91461277,-3.225087166,9.180846214,0.0,0.009587288,-0.007456779,0.083251953,0.197405815,0.963466644,0.160850525
644,475575712.0,-0.906232834,-3.272973061,9.153311729,0.0,0.009587288,-0.007456779,0.083251953,0.197405815,0.963466644,0.160850525
645,475575744.0,-0.951724052,-3.311281204,9.165283203,0.0,0.009587288,-0.007456779,0.083251953,0.197405815,0.963466644,0.160850525
646,475575744.0,-0.93496418,-3.324449539,9.203591347,0.0,0.009587288,-0.007456779,0.083251953,0.197405815,0.963466644,0.160850525
647,475575776.0,-0.992425919,-3.296916008,9.271828651,0.0,0.009587288,-0.007456779,0.083251953,0.197405815,0.963466644,0.160850525
648,475575776.0,-0.969680786,-3.250226974,9.288588524,0.0,0.009587288,-0.007456779,0.083251953,0.197405815,0.963466644,0.160850525
649,475575808.0,-0.939752579,-3.361560822,9.265842438,0.0,0.009587288,-0.007456779,0.083251953,0.197405815,0.963466644,0.160850525
650,475575840.0,-0.939752579,-3.405855179,9.203591347,0.0,0.009587288,-0.007456779,0.083251953,0.197405815,0.963466644,0.160850525
651,475575840.0,-0.9469347,-3.38670063,9.257462502,0.0,0.009587288,-0.007456779,0.083251953,0.197405815,0.963466644,0.160850525
652,475575872.0,-0.963695526,-3.284944534,9.294573784,0.015978813,0.003195763,-0.008522034,0.083251953,0.197405815,0.963466644,0.160850525
653,475575872.0,-0.963695526,-3.284944534,9.294573784,0.015978813,0.003195763,-0.008522034,0.083251953,0.197405815,0.963466644,0.160850525
654,475575904.0,-0.949329376,-3.238256454,9.299362183,-0.02023983,0.021305084,-0.013848305,0.083251953,0.197405815,0.963466644,0.160850525
655,475575904.0,-0.930174828,-3.298112869,9.24189949,-0.02023983,0.021305084,-0.013848305,0.083251953,0.197405815,0.963466644,0.160850525
656,475575904.0,-0.949329376,-3.238256454,9.299362183,-0.02023983,0.021305084,-0.013848305,0.083251953,0.197405815,0.963466644,0.160850525
657,475575904.0,-0.930174828,-3.298112869,9.24189949,-0.02023983,0.021305084,-0.013848305,0.083251953,0.197405815,0.963466644,0.160850525
658,475575936.0,-0.964892387,-3.310084343,9.231125832,0.021305084,0.017044067,-0.019174576,0.083251953,0.197405815,0.963466644,0.160850525
659,475575936.0,-1.004397392,-3.269381523,9.239505768,0.021305084,0.017044067,-0.019174576,0.083251953,0.197405815,0.963466644,0.160850525
660,475575936.0,-0.964892387,-3.310084343,9.231125832,0.021305084,0.017044067,-0.019174576,0.083251953,0.197405815,0.963466644,0.160850525
661,475575936.0,-1.004397392,-3.269381523,9.239505768,0.021305084,0.017044067,-0.019174576,0.083251953,0.197405815,0.963466644,0.160850525
662,475575968.0,-0.948132515,-3.213116646,9.237111092,0.021305084,0.017044067,-0.019174576,0.083251953,0.197405815,0.963466644,0.160850525
663,475576000.0,-0.924189568,-3.225087166,9.271828651,0.021305084,0.017044067,-0.019174576,0.083251953,0.197405815,0.963466644,0.160850525
664,475576000.0,-0.915809631,-3.383110046,9.267040253,0.021305084,0.017044067,-0.019174576,0.083251953,0.197405815,0.963466644,0.160850525
665,475576032.0,-0.889472961,-3.392686844,9.223942757,0.021305084,0.017044067,-0.019174576,0.083251953,0.197405815,0.963466644,0.160850525
666,475576064.0,-0.871515274,-3.296916008,9.228731155,-0.013848305,0.029828072,-0.023435593,0.083251953,0.197405815,0.963466644,0.160850525
667,475576064.0,-0.931372643,-3.256213188,9.252674103,-0.013848305,0.029828072,-0.023435593,0.083251953,0.197405815,0.963466644,0.160850525
668,475576096.0,-0.96130085,-3.325647354,9.223942757,-0.013848305,0.026632309,-0.030893326,0.083251953,0.197405815,0.963466644,0.160850525
669,475576096.0,-0.943344116,-3.377123833,9.179648399,-0.013848305,0.026632309,-0.030893326,0.083251953,0.197405815,0.963466644,0.160850525
670,475576128.0,-0.928977966,-3.390292168,9.179648399,0.044741631,0.018109322,-0.019174576,0.083251953,0.197405815,0.963466644,0.160850525
671,475576160.0,-0.915809631,-3.323252678,9.20957756,0.037284851,0.015978813,-0.009587288,0.083251953,0.197405815,0.963466644,0.160850525
672,475576256.0,-0.857150078,-3.137696266,9.184437752,0.027697563,-0.013848305,-0.004261017,0.083251953,0.197405815,0.963466644,0.160850525
673,475576256.0,-0.857150078,-3.137696266,9.184437752,0.027697563,-0.013848305,-0.004261017,0.083251953,0.197405815,0.963466644,0.160850525
674,475576288.0,-0.875106812,-3.105373383,9.225139618,0.027697563,-0.013848305,-0.004261017,0.083251953,0.197405815,0.963466644,0.160850525
675,475576288.0,-0.875106812,-3.105373383,9.225139618,0.027697563,-0.013848305,-0.004261017,0.083251953,0.197405815,0.963466644,0.160850525
676,475576320.0,-0.919401169,-3.089811325,9.283800125,0.027697563,-0.013848305,-0.004261017,0.083251953,0.197405815,0.963466644,0.160850525
677,475576320.0,-0.901443481,-3.111359596,9.271828651,0.027697563,-0.013848305,-0.004261017,0.083251953,0.197405815,0.963466644,0.160850525
678,475576320.0,-0.919401169,-3.089811325,9.283800125,0.027697563,-0.013848305,-0.004261017,0.083251953,0.197405815,0.963466644,0.160850525
679,475576320.0,-0.901443481,-3.111359596,9.271828651,0.027697563,-0.013848305,-0.004261017,0.083251953,0.197405815,0.963466644,0.160850525
680,475576352.0,-0.9469347,-3.101782799,9.348444939,0.012783051,0.027697563,-0.095876694,0.083251953,0.197405815,0.963466644,0.160850525
681,475576352.0,-0.9469347,-3.101782799,9.348444939,0.012783051,0.027697563,-0.095876694,0.083251953,0.197405815,0.963466644,0.160850525
682,475576480.0,-1.049888611,-3.128119469,9.20957756,-0.006391525,0.080962181,-0.143815041,0.087654114,0.215014458,0.959582329,0.158951759
683,475576480.0,-1.154040337,-3.221496582,8.97852993,-0.006391525,0.080962181,-0.143815041,0.087654114,0.215014458,0.959582329,0.158951759
684,475576480.0,-1.049888611,-3.128119469,9.20957756,-0.006391525,0.080962181,-0.143815041,0.087654114,0.215014458,0.959582329,0.158951759
685,475576480.0,-1.154040337,-3.221496582,8.97852993,-0.006391525,0.080962181,-0.143815041,0.087654114,0.215014458,0.959582329,0.158951759
686,475576512.0,-1.136082649,-3.581834793,8.79417038,-0.006391525,0.080962181,-0.143815041,0.087697029,0.218726158,0.958633423,0.15951252
687,475576512.0,-1.064254761,-3.988861084,8.379961014,-0.006391525,0.080962181,-0.143815041,0.087697029,0.218726158,0.958633423,0.15951252
688,475576512.0,-1.136082649,-3.581834793,8.79417038,-0.006391525,0.080962181,-0.143815041,0.087697029,0.218726158,0.958633423,0.15951252
689,475576512.0,-1.064254761,-3.988861084,8.379961014,-0.006391525,0.080962181,-0.143815041,0.087697029,0.218726158,0.958633423,0.15951252
690,475576544.0,-0.8595438,-4.272583008,7.965751648,-0.006391525,0.080962181,-0.143815041,0.086531639,0.220279694,0.958460808,0.159211159
691,475576544.0,-0.8595438,-4.272583008,7.965751648,-0.006391525,0.080962181,-0.143815041,0.086531639,0.220279694,0.958460808,0.159211159
692,475576576.0,-0.63687706,-4.935796738,7.734704018,-0.006391525,0.080962181,-0.143815041,0.086531639,0.220279694,0.958460808,0.159211159
693,475576576.0,-0.708704948,-4.916642189,7.738295555,-0.006391525,0.080962181,-0.143815041,0.086531639,0.220279694,0.958460808,0.159211159
694,475576608.0,-0.775744438,-5.540350914,7.285777092,-0.006391525,0.080962181,-0.143815041,0.086531639,0.220279694,0.958460808,0.159211159
695,475576640.0,-0.897852898,-6.002446175,7.010436058,-0.006391525,0.080962181,-0.143815041,0.086531639,0.220279694,0.958460808,0.159211159
696,475576640.0,-0.979257584,-6.171242714,7.21634388,-0.006391525,0.080962181,-0.143815041,0.086531639,0.220279694,0.958460808,0.159211159
697,475576768.0,-0.986440659,-3.470500946,12.9027462,0.936395645,-0.992856026,2.095438957,0.016011238,0.114455223,0.984096527,0.134869576
698,475576800.0,-0.678776741,-2.838412285,13.19604492,0.936395645,-0.992856026,2.095438957,0.016011238,0.114455223,0.984096527,0.134869576
699,475576800.0,-0.148444176,-1.661625862,13.32653236,0.936395645,-0.992856026,2.095438957,0.016011238,0.114455223,0.984096527,0.134869576
700,475576832.0,-0.02633667,-0.40582943,13.41392326,0.936395645,-0.992856026,2.095438957,0.016011238,0.114455223,0.984096527,0.134869576
701,475576832.0,0.221469879,0.74461937,13.53722858,0.936395645,-0.992856026,2.095438957,0.016011238,0.114455223,0.984096527,0.134869576
702,475576864.0,0.832010269,1.04270649,13.20442486,0.963027954,1.335882187,1.499938011,0.016011238,0.114455223,0.984096527,0.134869576
703,475576896.0,1.286922455,2.206323624,12.70042992,0.709486961,1.658666611,1.092993736,0.016011238,0.114455223,0.984096527,0.134869576
704,475576896.0,1.327625275,3.247833252,12.33889389,0.709486961,1.658666611,1.092993736,0.016011238,0.114455223,0.984096527,0.134869576
705,475576928.0,1.397058487,3.927806854,12.1066494,0.200275421,2.290388107,0.296152115,0.016011238,0.114455223,0.984096527,0.134869576
706,475576960.0,1.193545341,3.598594666,11.33449554,0.200275421,2.290388107,0.296152115,0.016011238,0.114455223,0.984096527,0.134869576
707,475576960.0,0.957709312,3.943369865,10.77064419,0.200275421,2.290388107,0.296152115,0.016011238,0.114455223,0.984096527,0.134869576
708,475576992.0,1.075028419,4.842420578,10.19960976,0.200275421,2.290388107,0.296152115,0.016011238,0.114455223,0.984096527,0.134869576
709,475576992.0,1.297696114,3.457332611,9.677658081,0.200275421,2.290388107,0.296152115,0.016011238,0.114455223,0.984096527,0.134869576
710,475577024.0,0.452517509,2.342797279,8.263838768,0.200275421,2.290388107,0.296152115,0.016011238,0.114455223,0.984096527,0.134869576
711,475577056.0,-0.413011551,2.783344269,7.391125679,0.361135483,2.323411942,-2.051761627,0.016011238,0.114455223,0.984096527,0.134869576
712,475577056.0,-0.569836617,1.373116493,6.647703171,0.361135483,2.323411942,-2.051761627,0.016011238,0.114455223,0.984096527,0.134869576
713,475577088.0,-0.997215271,-0.033519745,5.664853096,0.177904129,1.706604958,-2.543928146,0.016011238,0.114455223,0.984096527,0.134869576
714,475577120.0,-1.607754707,-0.64884758,4.386310577,0.266324043,0.818147659,-2.748465538,0.016011238,0.114455223,0.984096527,0.134869576
715,475577120.0,-1.76218605,-2.182380676,3.442966461,0.266324043,0.818147659,-2.748465538,0.016011238,0.114455223,0.984096527,0.134869576
716,475577152.0,-1.871125221,-3.19635582,3.293324471,0.266324043,0.818147659,-2.748465538,0.016011238,0.114455223,0.984096527,0.134869576
717,475577152.0,-2.013584137,-4.247443199,3.446557999,0.266324043,0.818147659,-2.748465538,0.016011238,0.114455223,0.984096527,0.134869576
718,475577152.0,-2.013584137,-4.247443199,3.446557999,0.266324043,0.818147659,-2.748465538,0.016011238,0.114455223,0.984096527,0.134869576
719,475577184.0,-2.227871895,-5.030370712,3.417826653,0.266324043,0.818147659,-2.748465538,0.016011238,0.114455223,0.984096527,0.134869576
720,475577184.0,-2.227871895,-5.030370712,3.417826653,0.266324043,0.818147659,-2.748465538,0.016011238,0.114455223,0.984096527,0.134869576
721,475577216.0,-2.163227081,-6.126948357,4.234273911,0.266324043,0.818147659,-2.748465538,0.016011238,0.114455223,0.984096527,0.134869576
722,475577216.0,-2.287729263,-6.94459343,4.635314941,0.266324043,0.818147659,-2.748465538,0.016011238,0.114455223,0.984096527,0.134869576
723,475577216.0,-2.163227081,-6.126948357,4.234273911,0.266324043,0.818147659,-2.748465538,0.016011238,0.114455223,0.984096527,0.134869576
724,475577216.0,-2.287729263,-6.94459343,4.635314941,0.266324043,0.818147659,-2.748465538,0.016011238,0.114455223,0.984096527,0.134869576
725,475577248.0,-2.529550552,-6.782979965,4.875940323,0.401616096,-1.699148178,-2.181727409,0.016011238,0.114455223,0.984096527,0.134869576
726,475577248.0,-2.529550552,-6.782979965,4.875940323,0.401616096,-1.699148178,-2.181727409,0.016011238,0.114455223,0.984096527,0.134869576
727,475577376.0,-3.507612228,-9.890748024,9.311333656,-0.061786652,-1.976125717,0.828800201,0.163742065,0.325586319,0.920308113,0.142249107
728,475577376.0,-3.0682621,-7.47971344,10.66290188,-0.061786652,-1.976125717,0.828800201,0.163742065,0.325586319,0.920308113,0.142249107
729,475577408.0,-3.345998764,-6.041952133,11.86003971,-0.449554443,-1.825918198,1.610728264,0.163742065,0.325586319,0.920308113,0.142249107
730,475577408.0,-3.320858955,-5.930618286,11.66251183,-0.449554443,-1.825918198,1.610728264,0.163742065,0.325586319,0.920308113,0.142249107
731,475577440.0,-2.45173645,-6.080260277,11.14894009,-0.577390671,-1.787568092,1.842963219,0.163742065,0.325586319,0.920308113,0.142249107
732,475577472.0,-1.444944382,-4.705946922,11.99890709,-0.577390671,-1.787568092,1.842963219,0.163742065,0.325586319,0.920308113,0.142249107
733,475577472.0,-0.727859497,-2.16801548,13.46779442,-0.577390671,-1.787568092,1.842963219,0.163742065,0.325586319,0.920308113,0.142249107
734,475577504.0,-0.249004364,-1.225868225,13.44864082,-0.577390671,-1.787568092,1.842963219,0.163742065,0.325586319,0.920308113,0.142249107
735,475577536.0,-0.338788986,-1.158828735,12.47057915,-0.577390671,-1.787568092,1.842963219,0.163742065,0.325586319,0.920308113,0.142249107
736,475577536.0,-0.166401863,-0.721873283,12.13178921,-0.577390671,-1.787568092,1.842963219,0.163742065,0.325586319,0.920308113,0.142249107
737,475577568.0,0.068236351,-0.106544495,11.91750145,0.288695335,0.12677002,0.7797966,0.163742065,0.325586319,0.920308113,0.142249107
738,475577568.0,-0.016759872,-0.05267334,11.30337048,0.288695335,0.12677002,0.7797966,0.163742065,0.325586319,0.920308113,0.142249107
739,475577600.0,0.031125069,-1.162420273,10.05236149,0.084157944,0.377114296,0.445293427,0.163742065,0.325586319,0.920308113,0.142249107
740,475577632.0,-0.09337616,-1.764579773,9.331685066,0.241822243,0.370722771,0.275911331,0.163742065,0.325586319,0.920308113,0.142249107
741,475577632.0,-0.095770836,-1.687963486,9.058737755,0.241822243,0.370722771,0.275911331,0.163742065,0.325586319,0.920308113,0.142249107
742,475577664.0,-0.082601547,-1.914221764,8.954586983,0.241822243,0.370722771,0.275911331,0.163742065,0.325586319,0.920308113,0.142249107
743,475577696.0,-0.125699043,-2.42539978,8.46974659,0.241822243,0.370722771,0.275911331,0.163742065,0.325586319,0.920308113,0.142249107
744,475577696.0,-0.264566422,-2.77017498,8.273415565,0.241822243,0.370722771,0.275911331,0.163742065,0.325586319,0.920308113,0.142249107
745,475577728.0,-0.401040077,-2.861157417,8.431437492,0.241822243,0.370722771,0.275911331,0.163742065,0.325586319,0.920308113,0.142249107
746,475577728.0,-0.430969238,-2.850383759,8.673259735,0.241822243,0.370722771,0.275911331,0.163742065,0.325586319,0.920308113,0.142249107
747,475577856.0,-1.120519638,-3.670422554,9.07190609,-0.184295654,-0.018109322,-0.171512604,0.081655502,0.151700974,0.971278191,0.164001465
748,475577856.0,-1.120519638,-3.670422554,9.07190609,-0.184295654,-0.018109322,-0.171512604,0.081655502,0.151700974,0.971278191,0.164001465
749,475577888.0,-1.077423096,-3.367547035,9.226337433,-0.184295654,-0.018109322,-0.171512604,0.079928398,0.154247284,0.970890045,0.164691925
750,475577888.0,-0.978060722,-3.378320694,9.427455902,-0.184295654,-0.018109322,-0.171512604,0.079928398,0.154247284,0.970890045,0.164691925
751,475577888.0,-1.077423096,-3.367547035,9.226337433,-0.184295654,-0.018109322,-0.171512604,0.079928398,0.154247284,0.970890045,0.164691925
752,475577888.0,-0.978060722,-3.378320694,9.427455902,-0.184295654,-0.018109322,-0.171512604,0.079928398,0.154247284,0.970890045,0.164691925
753,475577920.0,-0.9469347,-3.454937935,9.459778786,-0.184295654,-0.018109322,-0.171512604,0.079281807,0.155326843,0.970674515,0.16533947
754,475577920.0,-0.9469347,-3.454937935,9.459778786,-0.184295654,-0.018109322,-0.171512604,0.079281807,0.155326843,0.970674515,0.16533947
755,475577952.0,-1.019960403,-3.36036396,9.40471077,-0.110790253,-0.035154343,-0.098007202,0.078806877,0.156275749,0.970415115,0.166332245
756,475577952.0,-1.019960403,-3.36036396,9.40471077,-0.110790253,-0.035154343,-0.098007202,0.078806877,0.156275749,0.970415115,0.166332245
757,475578048.0,-0.974469185,-3.465712547,9.387950897,-0.021305084,0.023435593,-0.070308685,0.078806877,0.156275749,0.970415115,0.166332245
758,475578080.0,-0.986440659,-3.483669281,9.243097305,-0.044741631,0.070308685,-0.041545868,0.078806877,0.156275749,0.970415115,0.166332245
759,475578112.0,-0.98763752,-3.495640755,9.314925194,-0.02023983,0.059656143,-0.028762817,0.078806877,0.156275749,0.970415115,0.166332245
760,475578112.0,-0.938554764,-3.359167099,9.428653717,-0.02023983,0.059656143,-0.028762817,0.078806877,0.156275749,0.970415115,0.166332245
761,475578144.0,-0.938554764,-3.4417696,9.203591347,-0.06391716,0.078831673,-0.037284851,0.078806877,0.156275749,0.970415115,0.166332245
762,475578176.0,-1.003200531,-3.46810627,9.074300766,0.007456779,0.057525635,-0.040480614,0.078806877,0.156275749,0.970415115,0.166332245
763,475578176.0,-1.017566681,-3.444163322,9.178451538,0.007456779,0.057525635,-0.040480614,0.078806877,0.156275749,0.970415115,0.166332245
764,475578208.0,-0.991229057,-3.405855179,9.137748718,0.0,0.061786652,-0.041545868,0.078806877,0.156275749,0.970415115,0.166332245
765,475578208.0,-0.994820595,-3.46212101,9.077892303,0.0,0.061786652,-0.041545868,0.078806877,0.156275749,0.970415115,0.166332245
766,475578240.0,-0.9469347,-3.603383064,9.012049675,-0.026632309,0.057525635,-0.038350105,0.078806877,0.156275749,0.970415115,0.166332245
767,475578272.0,-0.958906174,-3.621339798,8.947403908,-0.026632309,0.057525635,-0.038350105,0.078806877,0.156275749,0.970415115,0.166332245
768,475578272.0,-1.035523415,-3.511203766,9.043174744,-0.026632309,0.057525635,-0.038350105,0.078806877,0.156275749,0.970415115,0.166332245
769,475578304.0,-0.980455399,-3.494443893,9.026414871,-0.026632309,0.057525635,-0.038350105,0.078806877,0.156275749,0.970415115,0.166332245
770,475578304.0,-0.982849121,-3.521977425,9.047964096,-0.026632309,0.057525635,-0.038350105,0.078806877,0.156275749,0.970415115,0.166332245
771,475578336.0,-1.030735016,-3.640494347,8.952192307,-0.02023983,-0.023435593,-0.005326271,0.078806877,0.156275749,0.970415115,0.166332245
772,475578368.0,-0.968483925,-3.524372101,9.032401085,0.027697563,-0.050068855,-0.012783051,0.078806877,0.156275749,0.970415115,0.166332245
773,475578368.0,-0.945737839,-3.316069603,9.082680702,0.027697563,-0.050068855,-0.012783051,0.078806877,0.156275749,0.970415115,0.166332245
774,475578400.0,-0.937357903,-3.422615051,9.101835251,0.040480614,-0.052199364,0.015978813,0.078806877,0.156275749,0.970415115,0.166332245
775,475578432.0,-0.982849121,-3.486063957,9.115003586,0.062851906,-0.069243431,-0.005326271,0.078806877,0.156275749,0.970415115,0.166332245
776,475578432.0,-0.899049759,-3.336421013,9.232322693,0.062851906,-0.069243431,-0.005326271,0.078806877,0.156275749,0.970415115,0.166332245
777,475578464.0,-0.906232834,-3.372335434,9.274222374,0.062851906,-0.069243431,-0.005326271,0.078806877,0.156275749,0.970415115,0.166332245
778,475578496.0,-0.927781105,-3.245438576,9.284996986,0.062851906,-0.069243431,-0.005326271,0.078806877,0.156275749,0.970415115,0.166332245
779,475578496.0,-0.89426136,-3.320858955,9.131763458,0.062851906,-0.069243431,-0.005326271,0.078806877,0.156275749,0.970415115,0.166332245
780,475578528.0,-0.951724052,-3.336421013,9.167676926,0.062851906,-0.069243431,-0.005326271,0.078806877,0.156275749,0.970415115,0.166332245
781,475578528.0,-0.949329376,-3.341209412,9.423864365,0.062851906,-0.069243431,-0.005326271,0.078806877,0.156275749,0.970415115,0.166332245
782,475578560.0,-0.89426136,-3.274169922,9.486115456,-0.038350105,-0.002130508,-0.090549469,0.078806877,0.156275749,0.970415115,0.166332245
783,475578592.0,-0.922992706,-3.326844215,9.383162498,-0.056460381,0.019174576,-0.098007202,0.078806877,0.156275749,0.970415115,0.166332245
784,475578592.0,-1.023551941,-3.435783386,9.279010773,-0.056460381,0.019174576,-0.098007202,0.078806877,0.156275749,0.970415115,0.166332245
785,475578624.0,-0.988835335,-3.527963638,9.286193848,0.0,0.033023834,-0.092679977,0.078806877,0.156275749,0.970415115,0.166332245
786,475578624.0,-0.962497711,-3.492049217,9.476538658,0.0,0.033023834,-0.092679977,0.078806877,0.156275749,0.970415115,0.166332245
787,475578656.0,-0.907429695,-3.549511909,9.36999321,0.0,0.033023834,-0.092679977,0.078806877,0.156275749,0.970415115,0.166332245
788,475578656.0,-0.907429695,-3.549511909,9.36999321,0.0,0.033023834,-0.092679977,0.078806877,0.156275749,0.970415115,0.166332245
789,475578688.0,-0.968483925,-3.505217552,9.320911407,0.0,0.033023834,-0.092679977,0.078806877,0.156275749,0.970415115,0.166332245
790,475578688.0,-1.00200367,-3.515992165,9.270630836,0.0,0.033023834,-0.092679977,0.078806877,0.156275749,0.970415115,0.166332245
791,475578688.0,-0.968483925,-3.505217552,9.320911407,0.0,0.033023834,-0.092679977,0.078806877,0.156275749,0.970415115,0.166332245
792,475578688.0,-1.00200367,-3.515992165,9.270630836,0.0,0.033023834,-0.092679977,0.078806877,0.156275749,0.970415115,0.166332245
793,475578720.0,-0.993623734,-3.630917549,9.122185707,0.0,0.033023834,-0.092679977,0.078806877,0.156275749,0.970415115,0.166332245
794,475578720.0,-0.993623734,-3.630917549,9.122185707,0.0,0.033023834,-0.092679977,0.078806877,0.156275749,0.970415115,0.166332245
795,475578752.0,-1.085803032,-3.616551399,9.043174744,-0.022370338,0.121443748,-0.08309269,0.078806877,0.156275749,0.970415115,0.166332245
796,475578752.0,-1.085803032,-3.616551399,9.043174744,-0.022370338,0.121443748,-0.08309269,0.078806877,0.156275749,0.970415115,0.166332245
797,475578944.0,-1.098971367,-3.520780563,8.99888134,0.030893326,0.009587288,-0.018109322,0.088819504,0.182861328,0.964027405,0.171165466
798,475578944.0,-1.098971367,-3.520780563,8.99888134,0.030893326,0.009587288,-0.018109322,0.088819504,0.182861328,0.964027405,0.171165466
799,475578976.0,-0.998412132,-3.587820053,9.161691666,0.030893326,0.002130508,-0.006391525,0.088819504,0.182861328,0.964027405,0.171165466
800,475578976.0,-0.998412132,-3.587820053,9.161691666,0.030893326,0.002130508,-0.006391525,0.088819504,0.182861328,0.964027405,0.171165466
801,475579008.0,-1.003200531,-3.506414413,9.237111092,-0.001065254,0.012783051,-0.025567055,0.088819504,0.182861328,0.964027405,0.171165466
802,475579008.0,-1.015172005,-3.458529472,9.164086342,-0.001065254,0.012783051,-0.025567055,0.088819504,0.182861328,0.964027405,0.171165466
803,475579008.0,-1.003200531,-3.506414413,9.237111092,-0.001065254,0.012783051,-0.025567055,0.088819504,0.182861328,0.964027405,0.171165466
804,475579008.0,-1.015172005,-3.458529472,9.164086342,-0.001065254,0.012783051,-0.025567055,0.088819504,0.182861328,0.964027405,0.171165466
805,475579040.0,-1.055874825,-3.517189026,9.056344032,-0.057525635,0.009587288,-0.02023983,0.088819504,0.182861328,0.964027405,0.171165466
806,475579040.0,-1.055874825,-3.517189026,9.056344032,-0.057525635,0.009587288,-0.02023983,0.088819504,0.182861328,0.964027405,0.171165466
807,475579072.0,-1.064254761,-3.666831017,8.971346855,0.070308685,-0.013848305,-0.022370338,0.088819504,0.182861328,0.964027405,0.171165466
808,475579072.0,-1.046298027,-3.539935112,9.120988846,0.070308685,-0.013848305,-0.022370338,0.088819504,0.182861328,0.964027405,0.171165466
809,475579104.0,-1.041508675,-3.460923195,9.202394485,0.033023834,-0.008522034,-0.030893326,0.088819504,0.182861328,0.964027405,0.171165466
810,475579104.0,-1.005595207,-3.450149536,9.124580383,0.033023834,-0.008522034,-0.030893326,0.088819504,0.182861328,0.964027405,0.171165466
811,475579136.0,-1.017566681,-3.644085884,9.103032112,-0.013848305,0.001065254,-0.044741631,0.088819504,0.182861328,0.964027405,0.171165466
812,475579168.0,-1.04270649,-3.533948898,9.143734932,-0.013848305,0.001065254,-0.044741631,0.088819504,0.182861328,0.964027405,0.171165466
813,475579168.0,-0.979257584,-3.494443893,9.142537117,-0.013848305,0.001065254,-0.044741631,0.088819504,0.182861328,0.964027405,0.171165466
814,475579168.0,-1.04270649,-3.533948898,9.143734932,-0.013848305,0.001065254,-0.044741631,0.088819504,0.182861328,0.964027405,0.171165466
815,475579168.0,-0.979257584,-3.494443893,9.142537117,-0.013848305,0.001065254,-0.044741631,0.088819504,0.182861328,0.964027405,0.171165466
816,475579200.0,-1.043903351,-3.460923195,9.140143394,-0.013848305,0.001065254,-0.044741631,0.088819504,0.182861328,0.964027405,0.171165466
817,475579200.0,-1.043903351,-3.460923195,9.140143394,-0.013848305,0.001065254,-0.044741631,0.088819504,0.182861328,0.964027405,0.171165466
818,475579232.0,-0.996017456,-3.513597488,9.087469101,-0.008522034,0.012783051,-0.045806885,0.088819504,0.182861328,0.964027405,0.171165466
819,475579232.0,-1.00200367,-3.578243256,9.049160957,-0.008522034,0.012783051,-0.045806885,0.088819504,0.182861328,0.964027405,0.171165466
820,475579232.0,-0.996017456,-3.513597488,9.087469101,-0.008522034,0.012783051,-0.045806885,0.088819504,0.182861328,0.964027405,0.171165466
821,475579232.0,-1.00200367,-3.578243256,9.049160957,-0.008522034,0.012783051,-0.045806885,0.088819504,0.182861328,0.964027405,0.171165466
822,475579360.0,-1.027143478,-3.666831017,8.961770058,0.002130508,-0.006391525,-0.049003601,0.088819504,0.182861328,0.964027405,0.171165466
823,475579360.0,-1.027143478,-3.666831017,8.961770058,0.002130508,-0.006391525,-0.049003601,0.088819504,0.182861328,0.964027405,0.171165466
824,475579392.0,-0.994820595,-3.63211441,9.026414871,0.002130508,-0.006391525,-0.049003601,0.088819504,0.182861328,0.964027405,0.171165466
825,475579392.0,-0.949329376,-3.669225693,9.05155468,0.002130508,-0.006391525,-0.049003601,0.088819504,0.182861328,0.964027405,0.171165466
826,475579392.0,-0.994820595,-3.63211441,9.026414871,0.002130508,-0.006391525,-0.049003601,0.088819504,0.182861328,0.964027405,0.171165466
827,475579392.0,-0.949329376,-3.669225693,9.05155468,0.002130508,-0.006391525,-0.049003601,0.088819504,0.182861328,0.964027405,0.171165466
828,475579424.0,-0.957709312,-3.604579926,9.100637436,0.002130508,-0.006391525,-0.049003601,0.088819504,0.182861328,0.964027405,0.171165466
829,475579424.0,-0.952920914,-3.596199989,9.05155468,0.002130508,-0.006391525,-0.049003601,0.088819504,0.182861328,0.964027405,0.171165466
830,475579424.0,-0.957709312,-3.604579926,9.100637436,0.002130508,-0.006391525,-0.049003601,0.088819504,0.182861328,0.964027405,0.171165466
831,475579424.0,-0.952920914,-3.596199989,9.05155468,0.002130508,-0.006391525,-0.049003601,0.088819504,0.182861328,0.964027405,0.171165466
832,475579456.0,-0.975666046,-3.63211441,9.110215187,0.001065254,-0.019174576,-0.011717796,0.088819504,0.182861328,0.964027405,0.171165466
833,475579488.0,-0.986440659,-3.571060181,9.161691666,-0.010652542,-0.02023983,-0.013848305,0.088819504,0.182861328,0.964027405,0.171165466
834,475579488.0,-0.956512451,-3.596199989,9.165283203,-0.010652542,-0.02023983,-0.013848305,0.088819504,0.182861328,0.964027405,0.171165466
835,475579520.0,-0.999608994,-3.602186203,9.180846214,-0.028762817,-0.013848305,-0.019174576,0.088819504,0.182861328,0.964027405,0.171165466
836,475579520.0,-0.979257584,-3.642888069,9.103032112,-0.028762817,-0.013848305,-0.019174576,0.088819504,0.182861328,0.964027405,0.171165466
837,475579552.0,-0.962497711,-3.567468643,9.165283203,0.004261017,-0.021305084,-0.013848305,0.088819504,0.182861328,0.964027405,0.171165466
838,475579584.0,-0.951724052,-3.521977425,9.197606087,0.005326271,-0.007456779,-0.024501801,0.088819504,0.182861328,0.964027405,0.171165466
839,475579584.0,-0.92059803,-3.425009727,9.171268463,0.005326271,-0.007456779,-0.024501801,0.088819504,0.182861328,0.964027405,0.171165466
840,475579616.0,-0.926584244,-3.463317871,9.109017372,-0.029828072,0.019174576,-0.040480614,0.088819504,0.182861328,0.964027405,0.171165466
841,475579648.0,-0.885881424,-3.642888069,9.105425835,-0.029828072,0.019174576,-0.040480614,0.088819504,0.182861328,0.964027405,0.171165466
842,475579648.0,-0.870318413,-3.615354538,9.11260891,-0.029828072,0.019174576,-0.040480614,0.088819504,0.182861328,0.964027405,0.171165466
843,475579648.0,-0.870318413,-3.615354538,9.11260891,-0.029828072,0.019174576,-0.040480614,0.088819504,0.182861328,0.964027405,0.171165466
844,475579680.0,-0.895458221,-3.665634155,9.075497627,-0.029828072,0.019174576,-0.040480614,0.088819504,0.182861328,0.964027405,0.171165466
845,475579680.0,-0.925386429,-3.682394028,9.131763458,-0.029828072,0.019174576,-0.040480614,0.088819504,0.182861328,0.964027405,0.171165466
846,475579680.0,-0.895458221,-3.665634155,9.075497627,-0.029828072,0.019174576,-0.040480614,0.088819504,0.182861328,0.964027405,0.171165466
847,475579680.0,-0.925386429,-3.682394028,9.131763458,-0.029828072,0.019174576,-0.040480614,0.088819504,0.182861328,0.964027405,0.171165466
848,475579712.0,-0.979257584,-3.78055954,9.111412048,-0.029828072,0.019174576,-0.040480614,0.088819504,0.182861328,0.964027405,0.171165466
849,475579712.0,-0.979257584,-3.78055954,9.111412048,-0.029828072,0.019174576,-0.040480614,0.088819504,0.182861328,0.964027405,0.171165466
850,475579744.0,-0.994820595,-3.73985672,9.008458138,0.026632309,0.012783051,-0.029828072,0.088819504,0.182861328,0.964027405,0.171165466
851,475579744.0,-0.994820595,-3.73985672,9.008458138,0.026632309,0.012783051,-0.029828072,0.088819504,0.182861328,0.964027405,0.171165466
852,475579840.0,-0.970877647,-3.651268005,9.144931793,0.010652542,-0.005326271,-0.026632309,0.086833954,0.196499825,0.960920334,0.174445152
853,475579872.0,-0.988835335,-3.560285568,9.222745895,0.010652542,-0.005326271,-0.026632309,0.086704254,0.196715355,0.960963249,0.174402237
854,475579904.0,-1.016368866,-3.645282745,9.093455315,0.010652542,-0.005326271,-0.026632309,0.086791039,0.1971035,0.960661888,0.175265312
855,475579904.0,-1.057071686,-3.730279922,9.03958416,0.010652542,-0.005326271,-0.026632309,0.086791039,0.1971035,0.960661888,0.175265312
856,475579936.0,-1.019960403,-3.759011269,9.02521801,0.021305084,0.0,-0.017044067,0.086748123,0.1972332,0.960618019,0.175395012
857,475579968.0,-0.978060722,-3.65845108,9.095849037,0.008522034,0.0,-0.013848305,0.086748123,0.1972332,0.960618019,0.175395012
858,475579968.0,-0.993623734,-3.700350761,9.125777245,0.008522034,0.0,-0.013848305,0.086748123,0.1972332,0.960618019,0.175395012
859,475580000.0,-1.000806808,-3.735068321,9.077892303,-0.037284851,0.003195763,-0.033023834,0.086748123,0.1972332,0.960618019,0.175395012
860,475580000.0,-0.942146301,-3.842810631,9.053949356,-0.037284851,0.003195763,-0.033023834,0.086748123,0.1972332,0.960618019,0.175395012
861,475580032.0,-0.870318413,-3.732673645,9.098243713,0.023435593,-0.001065254,-0.011717796,0.086748123,0.1972332,0.960618019,0.175395012
862,475580160.0,-0.949329376,-3.602186203,9.032401085,-0.03195858,0.012783051,0.001065254,0.086748123,0.1972332,0.960618019,0.175395012
863,475580160.0,-0.98763752,-3.627326012,9.035992622,-0.03195858,0.012783051,0.001065254,0.086748123,0.1972332,0.960618019,0.175395012
864,475580192.0,-0.976863861,-3.646479607,8.946207047,-0.03195858,0.012783051,0.001065254,0.086748123,0.1972332,0.960618019,0.175395012
865,475580224.0,-0.982849121,-3.665634155,9.026414871,-0.03195858,0.012783051,0.001065254,0.086748123,0.1972332,0.960618019,0.175395012
866,475580224.0,-0.92059803,-3.67281723,9.129368782,-0.03195858,0.012783051,0.001065254,0.086748123,0.1972332,0.960618019,0.175395012
867,475580256.0,-0.885881424,-3.634508133,9.116200447,-0.009587288,-0.026632309,-0.002130508,0.086748123,0.1972332,0.960618019,0.175395012
