,timestamp,accel_x,accel_y,accel_z,gyro_x,gyro_y,gyro_z,ori_scalar,ori_x,ori_y,ori_z
0,473261696.0,9.198802947998047,-3.349590301513672,3.926609992980957,-0.057525634765625,-0.00852203369140625,0.5678024291992188,0.7245416641235352,-0.02045726776123047,-0.00034618377685546875,0.6888933181762695
1,473261696.0,9.318516731262207,-3.0407285690307617,4.32405948638916,-0.057525634765625,-0.00852203369140625,0.5678024291992188,0.7245416641235352,-0.02045726776123047,-0.00034618377685546875,0.6888933181762695
2,473261728.0,8.984515190124512,-2.433779716491699,4.065478324890137,-0.057525634765625,-0.00852203369140625,0.5678024291992188,0.7245416641235352,-0.02045726776123047,-0.00034618377685546875,0.6888933181762695
3,473261728.0,9.091060638427734,-2.559478759765625,4.235471725463867,-0.057525634765625,-0.00852203369140625,0.5678024291992188,0.7245416641235352,-0.02045726776123047,-0.00034618377685546875,0.6888933181762695
4,473261728.0,8.90670108795166,-2.351177215576172,3.9421730041503906,-0.057525634765625,-0.00852203369140625,0.5678024291992188,0.7245416641235352,-0.02045726776123047,-0.00034618377685546875,0.6888933181762695
5,473261760.0,8.822901725769043,-2.094989776611328,3.8200645446777344,-0.057525634765625,-0.00852203369140625,0.5678024291992188,0.728297233581543,-0.02106189727783203,-0.0015544891357421875,0.6849660873413086
6,473261792.0,8.506857872009277,-2.0518932342529297,3.799713134765625,-0.5028200149536133,0.05006885528564453,0.3909635543823242,0.7313613891601562,-0.023220062255859375,-0.004748344421386719,0.6815567016601562
7,473261792.0,8.381157875061035,-2.1991405487060547,3.590214729309082,-0.5028200149536133,0.05006885528564453,0.3909635543823242,0.7313613891601562,-0.023220062255859375,-0.004748344421386719,0.6815567016601562
8,473261824.0,8.449395179748535,-2.339205741882324,3.1412878036499023,-0.5624761581420898,0.04793834686279297,0.3238496780395508,0.7337350845336914,-0.02649974822998047,-0.008891105651855469,0.678837776184082
9,473261856.0,8.461366653442383,-2.6097593307495117,2.845595359802246,-0.5624761581420898,0.04793834686279297,0.3238496780395508,0.7337350845336914,-0.02649974822998047,-0.008891105651855469,0.678837776184082
10,473261856.0,8.563122749328613,-2.7043323516845703,2.871932029724121,-0.5624761581420898,0.04793834686279297,0.3238496780395508,0.7337350845336914,-0.02649974822998047,-0.008891105651855469,0.678837776184082
11,473261888.0,8.779805183410645,-2.656447410583496,2.743838310241699,-0.5624761581420898,0.04793834686279297,0.3238496780395508,0.7337350845336914,-0.02649974822998047,-0.008891105651855469,0.678837776184082
12,473261888.0,8.968952178955078,-2.8001041412353516,2.3631486892700195,-0.5624761581420898,0.04793834686279297,0.3238496780395508,0.7337350845336914,-0.02649974822998047,-0.008891105651855469,0.678837776184082
13,473261920.0,9.19640827178955,-2.7989063262939453,2.3655433654785156,-0.5624761581420898,0.04793834686279297,0.3238496780395508,0.7337350845336914,-0.02649974822998047,-0.008891105651855469,0.678837776184082
14,473261952.0,9.37597942352295,-2.810877799987793,2.53433895111084,-0.5624761581420898,0.04793834686279297,0.3238496780395508,0.7337350845336914,-0.02649974822998047,-0.008891105651855469,0.678837776184082
15,473262048.0,9.106623649597168,-2.6947555541992188,2.348782539367676,-0.054329872131347656,-0.07776641845703125,0.16938209533691406,0.7356767654418945,-0.04337501525878906,-0.021104812622070312,0.6756000518798828
16,473262080.0,8.941418647766113,-2.597787857055664,2.390683174133301,-0.019174575805664062,-0.05113410949707031,0.23969173431396484,0.47655391693115234,0.6518630981445312,-0.44211483001708984,0.3905830383300781
17,473262112.0,8.931840896606445,-2.4361743927001953,2.6744041442871094,-0.022370338439941406,-0.05859088897705078,0.2546052932739258,0.4786252975463867,0.6540212631225586,-0.43883514404296875,0.3880796432495117
18,473262112.0,9.021626472473145,-2.266180992126465,2.631307601928711,-0.022370338439941406,-0.05859088897705078,0.2546052932739258,0.4786252975463867,0.6540212631225586,-0.43883514404296875,0.3880796432495117
19,473262144.0,8.936630249023438,-2.2673778533935547,2.4649057388305664,-0.1672515869140625,-0.031958580017089844,0.29189109802246094,0.48030853271484375,0.6548843383789062,-0.43736743927001953,0.3861370086669922
20,473262272.0,8.97613525390625,-2.6217308044433594,2.4804677963256836,-0.1672515869140625,-0.031958580017089844,0.29189109802246094,0.48630809783935547,0.6547117233276367,-0.4377126693725586,0.3784980773925781
21,473262272.0,8.800156593322754,-2.6133499145507812,2.597787857055664,-0.1672515869140625,-0.031958580017089844,0.29189109802246094,0.48630809783935547,0.6547117233276367,-0.4377126693725586,0.3784980773925781
22,473262304.0,8.706779479980469,-2.6073646545410156,2.3918800354003906,-0.1672515869140625,-0.031958580017089844,0.29189109802246094,0.48630809783935547,0.6547117233276367,-0.4377126693725586,0.3784980773925781
23,473262336.0,8.710371017456055,-2.729473114013672,2.357163429260254,-0.1672515869140625,-0.031958580017089844,0.29189109802246094,0.48630809783935547,0.6547117233276367,-0.4377126693725586,0.3784980773925781
24,473262336.0,8.825296401977539,-2.7079238891601562,2.570253372192383,-0.1672515869140625,-0.031958580017089844,0.29189109802246094,0.48630809783935547,0.6547117233276367,-0.4377126693725586,0.3784980773925781
25,473262464.0,8.979726791381836,-3.1149511337280273,2.4553279876708984,-0.11505126953125,-0.10439872741699219,-0.2482137680053711,0.48561763763427734,0.6429300308227539,-0.4513072967529297,0.3835906982421875
26,473262464.0,9.077892303466797,-3.119739532470703,2.3667402267456055,-0.11505126953125,-0.10439872741699219,-0.2482137680053711,0.48561763763427734,0.6429300308227539,-0.4513072967529297,0.3835906982421875
27,473262496.0,9.40351390838623,-3.1329078674316406,2.320052146911621,-0.11505126953125,-0.10439872741699219,-0.2482137680053711,0.48561763763427734,0.6429300308227539,-0.4513072967529297,0.3835906982421875
28,473262528.0,9.383162498474121,-3.063473701477051,2.262589454650879,-0.11505126953125,-0.10439872741699219,-0.2482137680053711,0.48561763763427734,0.6429300308227539,-0.4513072967529297,0.3835906982421875
29,473262528.0,9.553155899047852,-2.847989082336426,2.230266571044922,-0.11505126953125,-0.10439872741699219,-0.2482137680053711,0.48561763763427734,0.6429300308227539,-0.4513072967529297,0.3835906982421875
30,473262656.0,8.75586223602295,-2.8300323486328125,2.1045665740966797,0.0916147232055664,-0.030893325805664062,0.04367637634277344,0.48837947845458984,0.6412897109985352,-0.4515666961669922,0.38246917724609375
31,473262688.0,9.150917053222656,-2.864748954772949,2.383500099182129,0.15979385375976562,-0.012783050537109375,-0.004261016845703125,0.48837947845458984,0.6412897109985352,-0.4515666961669922,0.38246917724609375
32,473262688.0,9.061132431030273,-2.873128890991211,2.3715286254882812,0.15979385375976562,-0.012783050537109375,-0.004261016845703125,0.48837947845458984,0.6412897109985352,-0.4515666961669922,0.38246917724609375
33,473262720.0,8.672062873840332,-2.8192577362060547,2.262589454650879,0.11718177795410156,0.033023834228515625,-0.045806884765625,0.48837947845458984,0.6412897109985352,-0.4515666961669922,0.38246917724609375
34,473262752.0,8.83487319946289,-2.8886919021606445,2.310474395751953,0.02982807159423828,0.023435592651367188,-0.08735370635986328,0.4832000732421875,0.6449146270751953,-0.45044422149658203,0.3842811584472656
35,473262848.0,9.02641487121582,-2.7929210662841797,2.0219640731811523,0.02982807159423828,0.023435592651367188,-0.08735370635986328,0.4811725616455078,0.6454324722290039,-0.4512214660644531,0.385101318359375
36,473262880.0,9.003669738769531,-2.7617950439453125,2.0578784942626953,-0.1555328369140625,-0.022370338439941406,0.06391716003417969,0.4819917678833008,0.6450872421264648,-0.4513072967529297,0.3846263885498047
37,473262912.0,9.124580383300781,-2.784541130065918,2.099778175354004,-0.18749141693115234,-0.04687213897705078,0.12890052795410156,0.48557376861572266,0.6440944671630859,-0.45065975189208984,0.38242530822753906
38,473262912.0,9.281405448913574,-2.784541130065918,2.0207672119140625,-0.18749141693115234,-0.04687213897705078,0.12890052795410156,0.48557376861572266,0.6440944671630859,-0.45065975189208984,0.38242530822753906
39,473262944.0,9.14493179321289,-2.6959524154663086,1.9872474670410156,-0.03941535949707031,-0.0031957626342773438,0.2695198059082031,0.4873008728027344,0.644439697265625,-0.4495382308959961,0.3810443878173828
40,473262944.0,9.109017372131348,-2.559478759765625,1.9621076583862305,-0.03941535949707031,-0.0031957626342773438,0.2695198059082031,0.4873008728027344,0.644439697265625,-0.4495382308959961,0.3810443878173828
41,473262976.0,9.033597946166992,-2.34279727935791,2.059075355529785,-0.03941535949707031,-0.0031957626342773438,0.2695198059082031,0.4873008728027344,0.644439697265625,-0.4495382308959961,0.3810443878173828
42,473263008.0,8.892335891723633,-2.249420166015625,2.191958427429199,-0.03941535949707031,-0.0031957626342773438,0.2695198059082031,0.4873008728027344,0.644439697265625,-0.4495382308959961,0.3810443878173828
43,473263008.0,8.948601722717285,-2.1692123413085938,2.1368894577026367,-0.03941535949707031,-0.0031957626342773438,0.2695198059082031,0.4873008728027344,0.644439697265625,-0.4495382308959961,0.3810443878173828
44,473263040.0,8.97733211517334,-2.2709693908691406,2.0937929153442383,-0.03941535949707031,-0.0031957626342773438,0.2695198059082031,0.4873008728027344,0.644439697265625,-0.4495382308959961,0.3810443878173828
45,473263168.0,8.991698265075684,-2.630110740661621,2.417019844055176,0.17151260375976562,-0.07244014739990234,-0.17470836639404297,0.4837617874145508,0.647547721862793,-0.44340991973876953,0.3873462677001953
46,473263168.0,8.947403907775879,-2.6097593307495117,2.3930768966674805,0.17151260375976562,-0.07244014739990234,-0.17470836639404297,0.4837617874145508,0.647547721862793,-0.44340991973876953,0.3873462677001953
47,473263200.0,9.007261276245117,-2.631307601928711,2.3595571517944336,0.17151260375976562,-0.07244014739990234,-0.17470836639404297,0.4837617874145508,0.647547721862793,-0.44340991973876953,0.3873462677001953
48,473263232.0,9.067117691040039,-2.598984718322754,2.3858938217163086,0.17151260375976562,-0.07244014739990234,-0.17470836639404297,0.4837617874145508,0.647547721862793,-0.44340991973876953,0.3873462677001953
49,473263232.0,9.052752494812012,-2.7306699752807617,2.460116386413574,0.17151260375976562,-0.07244014739990234,-0.17470836639404297,0.4837617874145508,0.647547721862793,-0.44340991973876953,0.3873462677001953
50,473263264.0,9.04437255859375,-2.5750417709350586,2.4301881790161133,-0.0031957626342773438,-0.030893325805664062,-0.11292076110839844,0.4837617874145508,0.647547721862793,-0.44340991973876953,0.3873462677001953
51,473263264.0,9.031203269958496,-2.6456727981567383,2.285334587097168,-0.0031957626342773438,-0.030893325805664062,-0.11292076110839844,0.4837617874145508,0.647547721862793,-0.44340991973876953,0.3873462677001953
52,473263296.0,9.11500358581543,-2.6420812606811523,2.3260374069213867,-0.15659809112548828,-0.0031957626342773438,-0.08309268951416016,0.4837617874145508,0.647547721862793,-0.44340991973876953,0.3873462677001953
53,473263328.0,9.059934616088867,-2.832426071166992,2.2578001022338867,-0.15979385375976562,0.0170440673828125,-0.04687213897705078,0.4837617874145508,0.647547721862793,-0.44340991973876953,0.3873462677001953
54,473263328.0,8.9450101852417,-2.8372154235839844,2.2745609283447266,-0.15979385375976562,0.0170440673828125,-0.04687213897705078,0.4837617874145508,0.647547721862793,-0.44340991973876953,0.3873462677001953
55,473263456.0,9.135354995727539,-2.656447410583496,2.1883668899536133,0.033023834228515625,0.009587287902832031,0.040480613708496094,0.4837617874145508,0.647547721862793,-0.44340991973876953,0.3873462677001953
56,473263456.0,9.135354995727539,-2.656447410583496,2.1883668899536133,0.033023834228515625,0.009587287902832031,0.040480613708496094,0.4837617874145508,0.647547721862793,-0.44340991973876953,0.3873462677001953
57,473263488.0,9.04437255859375,-2.6420812606811523,2.168015480041504,0.01810932159423828,0.004261016845703125,0.03728485107421875,0.4837617874145508,0.647547721862793,-0.44340991973876953,0.3873462677001953
58,473263488.0,8.947403907775879,-2.6073646545410156,2.230266571044922,0.01810932159423828,0.004261016845703125,0.03728485107421875,0.4837617874145508,0.647547721862793,-0.44340991973876953,0.3873462677001953
59,473263488.0,9.04437255859375,-2.6420812606811523,2.168015480041504,0.01810932159423828,0.004261016845703125,0.03728485107421875,0.4837617874145508,0.647547721862793,-0.44340991973876953,0.3873462677001953
60,473263488.0,8.947403907775879,-2.6073646545410156,2.230266571044922,0.01810932159423828,0.004261016845703125,0.03728485107421875,0.4837617874145508,0.647547721862793,-0.44340991973876953,0.3873462677001953
61,473263520.0,8.893532752990723,-2.6516590118408203,2.2135066986083984,0.0287628173828125,-0.01597881317138672,0.0063915252685546875,0.4837617874145508,0.647547721862793,-0.44340991973876953,0.3873462677001953
62,473263520.0,8.893532752990723,-2.6516590118408203,2.2135066986083984,0.0287628173828125,-0.01597881317138672,0.0063915252685546875,0.4837617874145508,0.647547721862793,-0.44340991973876953,0.3873462677001953
63,473263552.0,9.02641487121582,-2.632504463195801,2.218295097351074,0.053264617919921875,-0.01810932159423828,-0.0021305084228515625,0.4837617874145508,0.647547721862793,-0.44340991973876953,0.3873462677001953
64,473263552.0,9.02641487121582,-2.632504463195801,2.218295097351074,0.053264617919921875,-0.01810932159423828,-0.0021305084228515625,0.4837617874145508,0.647547721862793,-0.44340991973876953,0.3873462677001953
65,473263552.0,9.053949356079102,-2.6372928619384766,2.193155288696289,0.053264617919921875,-0.01810932159423828,-0.0021305084228515625,0.4837617874145508,0.647547721862793,-0.44340991973876953,0.3873462677001953
66,473263584.0,9.003669738769531,-2.634899139404297,2.1883668899536133,0.053264617919921875,-0.01810932159423828,-0.0021305084228515625,0.4837617874145508,0.647547721862793,-0.44340991973876953,0.3873462677001953
67,473263584.0,8.998881340026855,-2.7019386291503906,2.1991405487060547,0.053264617919921875,-0.01810932159423828,-0.0021305084228515625,0.4837617874145508,0.647547721862793,-0.44340991973876953,0.3873462677001953
68,473263616.0,9.04556941986084,-2.7031354904174805,2.22188663482666,0.053264617919921875,-0.01810932159423828,-0.0021305084228515625,0.4837617874145508,0.647547721862793,-0.44340991973876953,0.3873462677001953
69,473263648.0,9.120988845825195,-2.6181392669677734,2.1404809951782227,0.053264617919921875,-0.01810932159423828,-0.0021305084228515625,0.47935962677001953,0.6435337066650391,-0.44742298126220703,0.3948554992675781
70,473263744.0,9.007261276245117,-2.5606765747070312,2.1787891387939453,0.057525634765625,-0.009587287902832031,0.04900360107421875,0.4796619415283203,0.6439218521118164,-0.44634437561035156,0.39507102966308594
71,473263776.0,9.032401084899902,-2.4661026000976562,2.1811838150024414,0.057525634765625,-0.009587287902832031,0.04900360107421875,0.4796619415283203,0.6439218521118164,-0.44634437561035156,0.39507102966308594
72,473263808.0,9.052752494812012,-2.4864540100097656,2.1297073364257812,0.057525634765625,-0.009587287902832031,0.04900360107421875,0.4796619415283203,0.6439218521118164,-0.44634437561035156,0.39507102966308594
73,473263808.0,9.035992622375488,-2.4768762588500977,2.1404809951782227,0.057525634765625,-0.009587287902832031,0.04900360107421875,0.4796619415283203,0.6439218521118164,-0.44634437561035156,0.39507102966308594
74,473263840.0,9.037189483642578,-2.5247621536254883,2.158437728881836,0.057525634765625,-0.009587287902832031,0.04900360107421875,0.48035240173339844,0.6457347869873047,-0.44384098052978516,0.39403533935546875
75,473263968.0,9.052752494812012,-2.5199737548828125,2.193155288696289,0.03621959686279297,-0.01597881317138672,0.0031957626342773438,0.48156070709228516,0.6449146270751953,-0.44431591033935547,0.3934307098388672
76,473263968.0,9.081483840942383,-2.439764976501465,2.1991405487060547,0.03621959686279297,-0.01597881317138672,0.0031957626342773438,0.48156070709228516,0.6449146270751953,-0.44431591033935547,0.3934307098388672
77,473264000.0,9.04676628112793,-2.4301881790161133,2.1955490112304688,0.03621959686279297,-0.01597881317138672,0.0031957626342773438,0.48156070709228516,0.6449146270751953,-0.44431591033935547,0.3934307098388672
78,473264000.0,8.99528980255127,-2.4840593338012695,2.2170982360839844,0.03621959686279297,-0.01597881317138672,0.0031957626342773438,0.48156070709228516,0.6449146270751953,-0.44431591033935547,0.3934307098388672
79,473264032.0,9.02641487121582,-2.53433895111084,2.2374496459960938,0.03621959686279297,-0.01597881317138672,0.0031957626342773438,0.48156070709228516,0.6449146270751953,-0.44431591033935547,0.3934307098388672
80,473264064.0,9.04437255859375,-2.5822248458862305,2.233858108520508,0.012783050537109375,-0.01597881317138672,-0.03515434265136719,0.48156070709228516,0.6449146270751953,-0.44431591033935547,0.3934307098388672
81,473264064.0,9.061132431030273,-2.594196319580078,2.1823806762695312,0.012783050537109375,-0.01597881317138672,-0.03515434265136719,0.48156070709228516,0.6449146270751953,-0.44431591033935547,0.3934307098388672
82,473264096.0,9.035992622375488,-2.6109561920166016,2.2434349060058594,0.0287628173828125,-0.012783050537109375,-0.03728485107421875,0.48156070709228516,0.6449146270751953,-0.44431591033935547,0.3934307098388672
83,473264128.0,9.079089164733887,-2.626519203186035,2.2374496459960938,0.009587287902832031,-0.00852203369140625,-0.020239830017089844,0.48156070709228516,0.6449146270751953,-0.44431591033935547,0.3934307098388672
84,473264128.0,9.103032112121582,-2.5510988235473633,2.2386465072631836,0.009587287902832031,-0.00852203369140625,-0.020239830017089844,0.48156070709228516,0.6449146270751953,-0.44431591033935547,0.3934307098388672
85,473264160.0,9.0970458984375,-2.595393180847168,2.1955490112304688,0.009587287902832031,-0.00852203369140625,-0.020239830017089844,0.48156070709228516,0.6449146270751953,-0.44431591033935547,0.3934307098388672
86,473264160.0,9.050357818603516,-2.6145477294921875,2.225478172302246,0.009587287902832031,-0.00852203369140625,-0.020239830017089844,0.48156070709228516,0.6449146270751953,-0.44431591033935547,0.3934307098388672
87,473264192.0,9.022823333740234,-2.5798301696777344,2.2673778533935547,0.009587287902832031,-0.00852203369140625,-0.020239830017089844,0.48156070709228516,0.6449146270751953,-0.44431591033935547,0.3934307098388672
88,473264224.0,8.992895126342773,-2.5606765747070312,2.2422380447387695,0.009587287902832031,-0.00852203369140625,-0.020239830017089844,0.48156070709228516,0.6449146270751953,-0.44431591033935547,0.3934307098388672
89,473264224.0,8.960572242736816,-2.5475082397460938,2.2027320861816406,0.009587287902832031,-0.00852203369140625,-0.020239830017089844,0.48156070709228516,0.6449146270751953,-0.44431591033935547,0.3934307098388672
90,473264256.0,9.123383522033691,-2.6217308044433594,2.201535224914551,-0.01810932159423828,-0.0063915252685546875,-0.02982807159423828,0.48156070709228516,0.6449146270751953,-0.44431591033935547,0.3934307098388672
91,473264288.0,9.071906089782715,-2.664827346801758,2.2135066986083984,0.040480613708496094,-0.0063915252685546875,-0.030893325805664062,0.48156070709228516,0.6449146270751953,-0.44431591033935547,0.3934307098388672
92,473264288.0,9.018034934997559,-2.5678586959838867,2.2111120223999023,0.040480613708496094,-0.0063915252685546875,-0.030893325805664062,0.48156070709228516,0.6449146270751953,-0.44431591033935547,0.3934307098388672
93,473264320.0,9.063526153564453,-2.539128303527832,2.194352149963379,0.014913558959960938,-0.0063915252685546875,-0.02769756317138672,0.48156070709228516,0.6449146270751953,-0.44431591033935547,0.3934307098388672
94,473264320.0,9.0970458984375,-2.564268112182617,2.2374496459960938,0.014913558959960938,-0.0063915252685546875,-0.02769756317138672,0.48156070709228516,0.6449146270751953,-0.44431591033935547,0.3934307098388672
95,473264448.0,9.069512367248535,-2.5247621536254883,2.2039289474487305,-0.005326271057128906,0.0010652542114257812,0.01597881317138672,0.4782371520996094,0.6432313919067383,-0.4464302062988281,0.3977041244506836
96,473264480.0,9.068314552307129,-2.4828624725341797,2.219491958618164,-0.005326271057128906,0.0010652542114257812,0.01597881317138672,0.47910022735595703,0.6429300308227539,-0.4467325210571289,0.3969268798828125
97,473264480.0,9.07669448852539,-2.559478759765625,2.1991405487060547,-0.005326271057128906,0.0010652542114257812,0.01597881317138672,0.47910022735595703,0.6429300308227539,-0.4467325210571289,0.3969268798828125
98,473264512.0,9.16767692565918,-2.6109561920166016,2.2087182998657227,-0.005326271057128906,0.0010652542114257812,0.01597881317138672,0.4794454574584961,0.6427135467529297,-0.44686222076416016,0.3966684341430664
99,473264544.0,9.178451538085938,-2.5235652923583984,2.200338363647461,-0.005326271057128906,0.0010652542114257812,0.01597881317138672,0.47931671142578125,0.6428003311157227,-0.44686222076416016,0.3967113494873047
100,473264544.0,9.14493179321289,-2.468496322631836,2.2111120223999023,-0.005326271057128906,0.0010652542114257812,0.01597881317138672,0.47931671142578125,0.6428003311157227,-0.44686222076416016,0.3967113494873047
101,473264576.0,9.004866600036621,-2.433779716491699,2.226675033569336,-0.005326271057128906,0.0010652542114257812,0.01597881317138672,0.47931671142578125,0.6428003311157227,-0.44686222076416016,0.3967113494873047
102,473264576.0,8.928250312805176,-2.5056076049804688,2.2075204849243164,-0.005326271057128906,0.0010652542114257812,0.01597881317138672,0.47931671142578125,0.6428003311157227,-0.44686222076416016,0.3967113494873047
103,473264608.0,8.88634967803955,-2.443356513977051,2.248223304748535,-0.005326271057128906,0.0010652542114257812,0.01597881317138672,0.47931671142578125,0.6428003311157227,-0.44686222076416016,0.3967113494873047
104,473264640.0,8.882759094238281,-2.4206113815307617,2.1847753524780273,-0.005326271057128906,0.0010652542114257812,0.01597881317138672,0.47931671142578125,0.6428003311157227,-0.44686222076416016,0.3967113494873047
105,473264640.0,8.95458698272705,-2.3978652954101562,2.1740007400512695,-0.005326271057128906,0.0010652542114257812,0.01597881317138672,0.47931671142578125,0.6428003311157227,-0.44686222076416016,0.3967113494873047
106,473264672.0,8.99768352508545,-2.510396957397461,2.1476640701293945,-0.0745706558227539,0.013848304748535156,-0.05006885528564453,0.47931671142578125,0.6428003311157227,-0.44686222076416016,0.3967113494873047
107,473264704.0,9.021626472473145,-2.564268112182617,2.0506954193115234,-0.053264617919921875,0.022370338439941406,-0.05113410949707031,0.47931671142578125,0.6428003311157227,-0.44686222076416016,0.3967113494873047
108,473264704.0,8.990501403808594,-2.572648048400879,1.98126220703125,-0.053264617919921875,0.022370338439941406,-0.05113410949707031,0.47931671142578125,0.6428003311157227,-0.44686222076416016,0.3967113494873047
109,473264736.0,9.213168144226074,-2.597787857055664,1.98126220703125,-0.04474163055419922,-0.026632308959960938,-0.0287628173828125,0.47931671142578125,0.6428003311157227,-0.44686222076416016,0.3967113494873047
110,473264768.0,9.294573783874512,-2.5475082397460938,2.0423154830932617,-0.011717796325683594,-0.025567054748535156,-0.020239830017089844,0.47931671142578125,0.6428003311157227,-0.44686222076416016,0.3967113494873047
111,473264768.0,9.1868314743042,-2.572648048400879,2.039921760559082,-0.011717796325683594,-0.025567054748535156,-0.020239830017089844,0.47931671142578125,0.6428003311157227,-0.44686222076416016,0.3967113494873047
112,473264768.0,9.294573783874512,-2.5475082397460938,2.0423154830932617,-0.011717796325683594,-0.025567054748535156,-0.020239830017089844,0.47931671142578125,0.6428003311157227,-0.44686222076416016,0.3967113494873047
113,473264768.0,9.1868314743042,-2.572648048400879,2.039921760559082,-0.011717796325683594,-0.025567054748535156,-0.020239830017089844,0.47931671142578125,0.6428003311157227,-0.44686222076416016,0.3967113494873047
114,473264800.0,9.120988845825195,-2.53314208984375,2.068653106689453,-0.011717796325683594,-0.041545867919921875,-0.022370338439941406,0.47931671142578125,0.6428003311157227,-0.44686222076416016,0.3967113494873047
115,473264800.0,9.160494804382324,-2.5534934997558594,2.1692123413085938,-0.011717796325683594,-0.041545867919921875,-0.022370338439941406,0.47931671142578125,0.6428003311157227,-0.44686222076416016,0.3967113494873047
116,473264800.0,9.120988845825195,-2.53314208984375,2.068653106689453,-0.011717796325683594,-0.041545867919921875,-0.022370338439941406,0.47931671142578125,0.6428003311157227,-0.44686222076416016,0.3967113494873047
117,473264800.0,9.160494804382324,-2.5534934997558594,2.1692123413085938,-0.011717796325683594,-0.041545867919921875,-0.022370338439941406,0.47931671142578125,0.6428003311157227,-0.44686222076416016,0.3967113494873047
118,473264832.0,9.058737754821777,-2.564268112182617,2.2051267623901367,-0.0010652542114257812,-0.024501800537109375,-0.014913558959960938,0.47931671142578125,0.6428003311157227,-0.44686222076416016,0.3967113494873047
119,473264832.0,9.058737754821777,-2.564268112182617,2.2051267623901367,-0.0010652542114257812,-0.024501800537109375,-0.014913558959960938,0.47931671142578125,0.6428003311157227,-0.44686222076416016,0.3967113494873047
120,473264864.0,8.90311050415039,-2.5522966384887695,2.2147035598754883,-0.0010652542114257812,-0.024501800537109375,-0.014913558959960938,0.47931671142578125,0.6428003311157227,-0.44686222076416016,0.3967113494873047
121,473264864.0,8.907898902893066,-2.5139875411987305,2.193155288696289,-0.0010652542114257812,-0.024501800537109375,-0.014913558959960938,0.47931671142578125,0.6428003311157227,-0.44686222076416016,0.3967113494873047
122,473264896.0,9.012049674987793,-2.53433895111084,2.2135066986083984,-0.0010652542114257812,-0.024501800537109375,-0.014913558959960938,0.47931671142578125,0.6428003311157227,-0.44686222076416016,0.3967113494873047
123,473264896.0,9.142537117004395,-2.5463104248046875,2.191958427429199,-0.0010652542114257812,-0.024501800537109375,-0.014913558959960938,0.47931671142578125,0.6428003311157227,-0.44686222076416016,0.3967113494873047
124,473264928.0,9.197606086730957,-2.566661834716797,2.197943687438965,-0.0010652542114257812,-0.024501800537109375,-0.014913558959960938,0.47931671142578125,0.6428003311157227,-0.44686222076416016,0.3967113494873047
125,473264960.0,9.203591346740723,-2.565464973449707,2.1524524688720703,0.042611122131347656,-0.034089088439941406,0.020239830017089844,0.47931671142578125,0.6428003311157227,-0.44686222076416016,0.3967113494873047
126,473264960.0,9.23471736907959,-2.4613142013549805,2.2135066986083984,0.042611122131347656,-0.034089088439941406,0.020239830017089844,0.47931671142578125,0.6428003311157227,-0.44686222076416016,0.3967113494873047
127,473264992.0,9.073103904724121,-2.440962791442871,2.2733631134033203,0.021305084228515625,-0.0063915252685546875,-0.0031957626342773438,0.47931671142578125,0.6428003311157227,-0.44686222076416016,0.3967113494873047
128,473265024.0,8.952192306518555,-2.4888477325439453,2.248223304748535,-0.007456779479980469,-0.010652542114257812,-0.01597881317138672,0.47931671142578125,0.6428003311157227,-0.44686222076416016,0.3967113494873047
129,473265024.0,8.971346855163574,-2.522367477416992,2.2470264434814453,-0.007456779479980469,-0.010652542114257812,-0.01597881317138672,0.47931671142578125,0.6428003311157227,-0.44686222076416016,0.3967113494873047
130,473265056.0,9.031203269958496,-2.588210105895996,2.218295097351074,-0.013848304748535156,-0.00852203369140625,-0.01810932159423828,0.47931671142578125,0.6428003311157227,-0.44686222076416016,0.3967113494873047
131,473265088.0,9.070709228515625,-2.6432790756225586,2.1847753524780273,0.024501800537109375,-0.0063915252685546875,0.010652542114257812,0.47931671142578125,0.6428003311157227,-0.44686222076416016,0.3967113494873047
132,473265088.0,9.16408634185791,-2.624124526977539,2.163227081298828,0.024501800537109375,-0.0063915252685546875,0.010652542114257812,0.47931671142578125,0.6428003311157227,-0.44686222076416016,0.3967113494873047
133,473265120.0,9.16767692565918,-2.6085615158081055,2.1728038787841797,0.022370338439941406,-0.0021305084228515625,0.020239830017089844,0.47931671142578125,0.6428003311157227,-0.44686222076416016,0.3967113494873047
134,473265120.0,9.165283203125,-2.6037731170654297,2.160832405090332,0.022370338439941406,-0.0021305084228515625,0.020239830017089844,0.47931671142578125,0.6428003311157227,-0.44686222076416016,0.3967113494873047
135,473265248.0,9.073103904724121,-2.537930488586426,2.218295097351074,0.019174575805664062,-0.005326271057128906,0.02982807159423828,0.4814739227294922,0.6404266357421875,-0.44707775115966797,0.3976602554321289
136,473265280.0,9.0970458984375,-2.500819206237793,2.2039289474487305,0.019174575805664062,-0.005326271057128906,0.02982807159423828,0.4814739227294922,0.6404266357421875,-0.44707775115966797,0.3976602554321289
137,473265280.0,9.080286026000977,-2.5175790786743164,2.1955490112304688,0.019174575805664062,-0.005326271057128906,0.02982807159423828,0.4814739227294922,0.6404266357421875,-0.44707775115966797,0.3976602554321289
138,473265312.0,9.049160957336426,-2.5714502334594727,2.2099151611328125,0.019174575805664062,-0.005326271057128906,0.02982807159423828,0.4814739227294922,0.6404266357421875,-0.44707775115966797,0.3976602554321289
139,473265344.0,9.035992622375488,-2.563070297241211,2.215900421142578,0.03728485107421875,0.00852203369140625,0.005326271057128906,0.4814739227294922,0.6404266357421875,-0.44707775115966797,0.3976602554321289
140,473265344.0,9.007261276245117,-2.5427188873291016,2.17160701751709,0.03728485107421875,0.00852203369140625,0.005326271057128906,0.4814739227294922,0.6404266357421875,-0.44707775115966797,0.3976602554321289
141,473265376.0,9.0754976272583,-2.5463104248046875,2.1416778564453125,0.024501800537109375,0.011717796325683594,0.005326271057128906,0.4814739227294922,0.6404266357421875,-0.44707775115966797,0.3976602554321289
142,473265376.0,9.089863777160645,-2.537930488586426,2.1668176651000977,0.024501800537109375,0.011717796325683594,0.005326271057128906,0.4814739227294922,0.6404266357421875,-0.44707775115966797,0.3976602554321289
143,473265408.0,9.088665962219238,-2.588210105895996,2.1177358627319336,-0.004261016845703125,0.014913558959960938,0.01810932159423828,0.4814739227294922,0.6404266357421875,-0.44707775115966797,0.3976602554321289
144,473265440.0,9.068314552307129,-2.5750417709350586,2.15364933013916,-0.0021305084228515625,0.0170440673828125,0.0287628173828125,0.4814739227294922,0.6404266357421875,-0.44707775115966797,0.3976602554321289
145,473265440.0,9.030006408691406,-2.6001815795898438,2.1141443252563477,-0.0021305084228515625,0.0170440673828125,0.0287628173828125,0.4814739227294922,0.6404266357421875,-0.44707775115966797,0.3976602554321289
146,473265472.0,9.086272239685059,-2.5714502334594727,2.10336971282959,-0.0021305084228515625,0.0170440673828125,0.0287628173828125,0.4814739227294922,0.6404266357421875,-0.44707775115966797,0.3976602554321289
147,473265504.0,9.043174743652344,-2.558281898498535,2.1189327239990234,-0.0021305084228515625,0.0170440673828125,0.0287628173828125,0.4814739227294922,0.6404266357421875,-0.44707775115966797,0.3976602554321289
148,473265504.0,8.991698265075684,-2.5870132446289062,2.1488609313964844,-0.0021305084228515625,0.0170440673828125,0.0287628173828125,0.4814739227294922,0.6404266357421875,-0.44707775115966797,0.3976602554321289
149,473265536.0,9.014443397521973,-2.559478759765625,2.10336971282959,-0.0021305084228515625,0.0170440673828125,0.0287628173828125,0.4814739227294922,0.6404266357421875,-0.44707775115966797,0.3976602554321289
150,473265536.0,8.99528980255127,-2.596590042114258,2.091398239135742,-0.0021305084228515625,0.0170440673828125,0.0287628173828125,0.4814739227294922,0.6404266357421875,-0.44707775115966797,0.3976602554321289
151,473265536.0,8.99528980255127,-2.596590042114258,2.091398239135742,-0.0021305084228515625,0.0170440673828125,0.0287628173828125,0.4814739227294922,0.6404266357421875,-0.44707775115966797,0.3976602554321289
152,473265568.0,9.010852813720703,-2.6217308044433594,2.138087272644043,0.03515434265136719,-0.009587287902832031,0.040480613708496094,0.4814739227294922,0.6404266357421875,-0.44707775115966797,0.3976602554321289
153,473265568.0,9.010852813720703,-2.6217308044433594,2.138087272644043,0.03515434265136719,-0.009587287902832031,0.040480613708496094,0.4814739227294922,0.6404266357421875,-0.44707775115966797,0.3976602554321289
154,473265600.0,9.052752494812012,-2.6157445907592773,2.168015480041504,0.033023834228515625,-0.010652542114257812,0.04687213897705078,0.4814739227294922,0.6404266357421875,-0.44707775115966797,0.3976602554321289
155,473265600.0,9.018034934997559,-2.625321388244629,2.165620803833008,0.033023834228515625,-0.010652542114257812,0.04687213897705078,0.4814739227294922,0.6404266357421875,-0.44707775115966797,0.3976602554321289
156,473265600.0,9.052752494812012,-2.6157445907592773,2.168015480041504,0.033023834228515625,-0.010652542114257812,0.04687213897705078,0.4814739227294922,0.6404266357421875,-0.44707775115966797,0.3976602554321289
157,473265600.0,9.018034934997559,-2.625321388244629,2.165620803833008,0.033023834228515625,-0.010652542114257812,0.04687213897705078,0.4814739227294922,0.6404266357421875,-0.44707775115966797,0.3976602554321289
158,473265632.0,8.972543716430664,-2.6468706130981445,2.197943687438965,-0.019174575805664062,-0.009587287902832031,0.0628519058227539,0.4814739227294922,0.6404266357421875,-0.44707775115966797,0.3976602554321289
159,473265632.0,8.972543716430664,-2.6468706130981445,2.197943687438965,-0.019174575805664062,-0.009587287902832031,0.0628519058227539,0.4814739227294922,0.6404266357421875,-0.44707775115966797,0.3976602554321289
160,473265760.0,8.910292625427246,-2.727078437805176,2.535536766052246,-0.019174575805664062,-0.009587287902832031,0.0628519058227539,0.48104286193847656,0.6497917175292969,-0.4389209747314453,0.3921365737915039
161,473265760.0,8.960572242736816,-2.751021385192871,2.3631486892700195,-0.019174575805664062,-0.009587287902832031,0.0628519058227539,0.48104286193847656,0.6497917175292969,-0.4389209747314453,0.3921365737915039
162,473265792.0,8.921067237854004,-2.7629928588867188,2.287729263305664,-0.019174575805664062,-0.009587287902832031,0.0628519058227539,0.4812154769897461,0.6510868072509766,-0.4382305145263672,0.39049625396728516
163,473265792.0,8.935432434082031,-2.7402467727661133,2.3631486892700195,-0.019174575805664062,-0.009587287902832031,0.0628519058227539,0.4812154769897461,0.6510868072509766,-0.4382305145263672,0.39049625396728516
164,473265824.0,8.959375381469727,-2.7366552352905273,2.284137725830078,-0.019174575805664062,-0.009587287902832031,0.0628519058227539,0.48130130767822266,0.6515178680419922,-0.4379711151123047,0.38997840881347656
165,473265856.0,8.922264099121094,-2.743838310241699,2.1668176651000977,-0.0063915252685546875,0.020239830017089844,0.04900360107421875,0.48130130767822266,0.6515178680419922,-0.4379711151123047,0.38997840881347656
166,473265856.0,8.928250312805176,-2.6744041442871094,2.1560440063476562,-0.0063915252685546875,0.020239830017089844,0.04900360107421875,0.48130130767822266,0.6515178680419922,-0.4379711151123047,0.38997840881347656
167,473265888.0,8.992895126342773,-2.660038948059082,2.139284133911133,-0.03941535949707031,0.0063915252685546875,0.033023834228515625,0.48130130767822266,0.6515178680419922,-0.4379711151123047,0.38997840881347656
168,473265920.0,9.018034934997559,-2.6779956817626953,2.0758352279663086,-0.04367637634277344,-0.0031957626342773438,0.03728485107421875,0.48130130767822266,0.6515178680419922,-0.4379711151123047,0.38997840881347656
169,473265920.0,9.049160957336426,-2.770174980163574,2.047104835510254,-0.04367637634277344,-0.0031957626342773438,0.03728485107421875,0.48130130767822266,0.6515178680419922,-0.4379711151123047,0.38997840881347656
170,473265952.0,9.080286026000977,-2.77376651763916,2.0530900955200195,-0.019174575805664062,-0.01597881317138672,0.03941535949707031,0.48130130767822266,0.6515178680419922,-0.4379711151123047,0.38997840881347656
171,473265984.0,9.038386344909668,-2.7043323516845703,2.0231618881225586,-0.019174575805664062,-0.01597881317138672,0.03941535949707031,0.48130130767822266,0.6515178680419922,-0.4379711151123047,0.38997840881347656
172,473265984.0,9.037189483642578,-2.755809783935547,2.1428756713867188,-0.019174575805664062,-0.01597881317138672,0.03941535949707031,0.48130130767822266,0.6515178680419922,-0.4379711151123047,0.38997840881347656
173,473266016.0,9.073103904724121,-2.7749643325805664,2.1452693939208984,-0.019174575805664062,-0.01597881317138672,0.03941535949707031,0.48130130767822266,0.6515178680419922,-0.4379711151123047,0.38997840881347656
174,473266016.0,9.132960319519043,-2.832426071166992,2.1548471450805664,-0.019174575805664062,-0.01597881317138672,0.03941535949707031,0.48130130767822266,0.6515178680419922,-0.4379711151123047,0.38997840881347656
175,473266048.0,9.103032112121582,-2.9138317108154297,2.1428756713867188,-0.054329872131347656,-0.025567054748535156,0.03835010528564453,0.48130130767822266,0.6515178680419922,-0.4379711151123047,0.38997840881347656
176,473266080.0,9.051554679870605,-3.037137031555176,2.2949113845825195,-0.04900360107421875,-0.013848304748535156,0.040480613708496094,0.48130130767822266,0.6515178680419922,-0.4379711151123047,0.38997840881347656
177,473266080.0,8.960572242736816,-3.302901268005371,2.3116722106933594,-0.04900360107421875,-0.013848304748535156,0.040480613708496094,0.48130130767822266,0.6515178680419922,-0.4379711151123047,0.38997840881347656
178,473266112.0,9.071906089782715,-3.675210952758789,2.5175790786743164,-0.07030868530273438,-0.007456779479980469,0.13955307006835938,0.48130130767822266,0.6515178680419922,-0.4379711151123047,0.38997840881347656
179,473266112.0,9.122185707092285,-3.794924736022949,2.663630485534668,-0.07030868530273438,-0.007456779479980469,0.13955307006835938,0.48130130767822266,0.6515178680419922,-0.4379711151123047,0.38997840881347656
180,473266144.0,8.935432434082031,-3.8080930709838867,2.8372154235839844,-0.08415794372558594,0.05539512634277344,0.23329925537109375,0.48130130767822266,0.6515178680419922,-0.4379711151123047,0.38997840881347656
181,473266176.0,9.122185707092285,-4.216317176818848,2.966506004333496,-0.08415794372558594,0.05539512634277344,0.23329925537109375,0.48130130767822266,0.6515178680419922,-0.4379711151123047,0.38997840881347656
182,473266176.0,9.195211410522461,-4.697566032409668,2.8922834396362305,-0.08415794372558594,0.05539512634277344,0.23329925537109375,0.48130130767822266,0.6515178680419922,-0.4379711151123047,0.38997840881347656
183,473266208.0,8.921067237854004,-4.679609298706055,3.03354549407959,-0.08415794372558594,0.05539512634277344,0.23329925537109375,0.48130130767822266,0.6515178680419922,-0.4379711151123047,0.38997840881347656
184,473266240.0,8.989303588867188,-4.975302696228027,3.080233573913574,-0.08415794372558594,0.05539512634277344,0.23329925537109375,0.48130130767822266,0.6515178680419922,-0.4379711151123047,0.38997840881347656
185,473266240.0,9.04556941986084,-4.9381914138793945,3.0993881225585938,-0.08415794372558594,0.05539512634277344,0.23329925537109375,0.48130130767822266,0.6515178680419922,-0.4379711151123047,0.38997840881347656
186,473266272.0,8.891139030456543,-4.723903656005859,3.3220558166503906,-0.26738929748535156,0.31532764434814453,0.9246768951416016,0.48130130767822266,0.6515178680419922,-0.4379711151123047,0.38997840881347656
187,473266272.0,9.030006408691406,-5.0854387283325195,3.088613510131836,-0.26738929748535156,0.31532764434814453,0.9246768951416016,0.48130130767822266,0.6515178680419922,-0.4379711151123047,0.38997840881347656
188,473266304.0,9.09345531463623,-6.047937393188477,2.499622344970703,-0.057525634765625,0.4090738296508789,1.1111040115356445,0.48130130767822266,0.6515178680419922,-0.4379711151123047,0.38997840881347656
189,473266336.0,8.986909866333008,-6.4501752853393555,2.6767988204956055,0.4048128128051758,0.47086048126220703,1.247462272644043,0.48130130767822266,0.6515178680419922,-0.4379711151123047,0.38997840881347656
190,473266336.0,9.092257499694824,-5.82407283782959,3.2669878005981445,0.4048128128051758,0.47086048126220703,1.247462272644043,0.48130130767822266,0.6515178680419922,-0.4379711151123047,0.38997840881347656
191,473266336.0,9.092257499694824,-5.82407283782959,3.2669878005981445,0.4048128128051758,0.47086048126220703,1.247462272644043,0.48130130767822266,0.6515178680419922,-0.4379711151123047,0.38997840881347656
192,473266368.0,9.250279426574707,-5.595419883728027,3.3040990829467773,0.4048128128051758,0.47086048126220703,1.247462272644043,0.48130130767822266,0.6515178680419922,-0.4379711151123047,0.38997840881347656
193,473266368.0,9.250279426574707,-5.595419883728027,3.3040990829467773,0.4048128128051758,0.47086048126220703,1.247462272644043,0.48130130767822266,0.6515178680419922,-0.4379711151123047,0.38997840881347656
194,473266400.0,8.948601722717285,-6.353207588195801,3.2298765182495117,0.4048128128051758,0.47086048126220703,1.247462272644043,0.48130130767822266,0.6515178680419922,-0.4379711151123047,0.38997840881347656
195,473266400.0,8.946207046508789,-7.514430999755859,3.2035388946533203,0.4048128128051758,0.47086048126220703,1.247462272644043,0.48130130767822266,0.6515178680419922,-0.4379711151123047,0.38997840881347656
196,473266400.0,8.948601722717285,-6.353207588195801,3.2298765182495117,0.4048128128051758,0.47086048126220703,1.247462272644043,0.48130130767822266,0.6515178680419922,-0.4379711151123047,0.38997840881347656
197,473266400.0,8.946207046508789,-7.514430999755859,3.2035388946533203,0.4048128128051758,0.47086048126220703,1.247462272644043,0.48130130767822266,0.6515178680419922,-0.4379711151123047,0.38997840881347656
198,473266432.0,9.170071601867676,-6.901495933532715,3.6979570388793945,0.4048128128051758,0.47086048126220703,1.247462272644043,0.5039167404174805,0.7474594116210938,-0.34444713592529297,0.2621431350708008
199,473266432.0,9.170071601867676,-6.901495933532715,3.6979570388793945,0.4048128128051758,0.47086048126220703,1.247462272644043,0.5039167404174805,0.7474594116210938,-0.34444713592529297,0.2621431350708008
200,473266560.0,8.464958190917969,-9.342459678649902,5.096213340759277,1.1388015747070312,1.5745086669921875,2.6962661743164062,0.49058055877685547,0.7992925643920898,-0.293304443359375,0.18553733825683594
201,473266560.0,7.3731689453125,-7.515627861022949,6.233493804931641,1.1388015747070312,1.5745086669921875,2.6962661743164062,0.49058055877685547,0.7992925643920898,-0.293304443359375,0.18553733825683594
202,473266592.0,6.610591888427734,-8.007651329040527,5.70316219329834,1.1388015747070312,1.5745086669921875,2.6962661743164062,0.49058055877685547,0.7992925643920898,-0.293304443359375,0.18553733825683594
203,473266592.0,5.915055274963379,-8.401509284973145,5.080650329589844,1.1388015747070312,1.5745086669921875,2.6962661743164062,0.49058055877685547,0.7992925643920898,-0.293304443359375,0.18553733825683594
204,473266624.0,4.94537353515625,-7.768223762512207,5.200364112854004,1.1388015747070312,1.5745086669921875,2.6962661743164062,0.49058055877685547,0.7992925643920898,-0.293304443359375,0.18553733825683594
205,473266656.0,3.39388370513916,-7.212752342224121,5.579856872558594,1.2698335647583008,2.2594947814941406,2.9988107681274414,0.49058055877685547,0.7992925643920898,-0.293304443359375,0.18553733825683594
206,473266656.0,2.280546188354492,-6.079063415527344,5.448171615600586,1.2698335647583008,2.2594947814941406,2.9988107681274414,0.49058055877685547,0.7992925643920898,-0.293304443359375,0.18553733825683594
207,473266688.0,0.8739099502563477,-4.422224998474121,4.292934417724609,0.4857749938964844,2.1487035751342773,2.6131725311279297,0.49058055877685547,0.7992925643920898,-0.293304443359375,0.18553733825683594
208,473266720.0,-1.1648139953613281,-4.292934417724609,3.3783206939697266,0.7190752029418945,1.6650590896606445,2.111417770385742,0.49058055877685547,0.7992925643920898,-0.293304443359375,0.18553733825683594
209,473266720.0,-2.2458295822143555,-4.94537353515625,3.027560234069824,0.7190752029418945,1.6650590896606445,2.111417770385742,0.49058055877685547,0.7992925643920898,-0.293304443359375,0.18553733825683594
210,473266752.0,-2.1129465103149414,-4.989667892456055,3.7602081298828125,1.156911849975586,1.4317588806152344,1.8291139602661133,0.49058055877685547,0.7992925643920898,-0.293304443359375,0.18553733825683594
211,473266752.0,-1.752608299255371,-4.544332504272461,4.023578643798828,1.156911849975586,1.4317588806152344,1.8291139602661133,0.49058055877685547,0.7992925643920898,-0.293304443359375,0.18553733825683594
212,473266784.0,-1.3312158584594727,-4.522784233093262,3.8164730072021484,1.1846094131469727,0.9481134414672852,1.3934078216552734,0.49058055877685547,0.7992925643920898,-0.293304443359375,0.18553733825683594
213,473266816.0,-1.4736757278442383,-3.5112037658691406,3.6285228729248047,0.9491786956787109,0.7094869613647461,1.2144384384155273,0.49058055877685547,0.7992925643920898,-0.293304443359375,0.18553733825683594
214,473266816.0,-1.36114501953125,-3.809290885925293,3.646479606628418,0.9491786956787109,0.7094869613647461,1.2144384384155273,0.49058055877685547,0.7992925643920898,-0.293304443359375,0.18553733825683594
215,473266848.0,0.5387115478515625,-4.866362571716309,4.902276992797852,0.8788690567016602,0.41120433807373047,1.1164302825927734,0.49058055877685547,0.7992925643920898,-0.293304443359375,0.18553733825683594
216,473266880.0,-1.1576309204101562,-6.487286567687988,4.861574172973633,0.8788690567016602,0.41120433807373047,1.1164302825927734,0.49058055877685547,0.7992925643920898,-0.293304443359375,0.18553733825683594
217,473266880.0,-1.6077547073364258,-4.473701477050781,4.221105575561523,0.8788690567016602,0.41120433807373047,1.1164302825927734,0.49058055877685547,0.7992925643920898,-0.293304443359375,0.18553733825683594
218,473266912.0,-1.3934669494628906,-5.502042770385742,4.289342880249023,0.8788690567016602,0.41120433807373047,1.1164302825927734,0.49058055877685547,0.7992925643920898,-0.293304443359375,0.18553733825683594
219,473266912.0,-2.3092775344848633,-7.547950744628906,5.023187637329102,0.8788690567016602,0.41120433807373047,1.1164302825927734,0.49058055877685547,0.7992925643920898,-0.293304443359375,0.18553733825683594
220,473266944.0,-1.9237995147705078,-7.948991775512695,5.466128349304199,0.6285247802734375,-1.3827552795410156,2.0304555892944336,0.49058055877685547,0.7992925643920898,-0.293304443359375,0.18553733825683594
221,473266944.0,-1.9237995147705078,-7.948991775512695,5.466128349304199,0.6285247802734375,-1.3827552795410156,2.0304555892944336,0.49058055877685547,0.7992925643920898,-0.293304443359375,0.18553733825683594
222,473266944.0,-1.9237995147705078,-7.948991775512695,5.466128349304199,0.6285247802734375,-1.3827552795410156,2.0304555892944336,0.49058055877685547,0.7992925643920898,-0.293304443359375,0.18553733825683594
223,473266976.0,-0.9038381576538086,-7.5659074783325195,5.551125526428223,0.7659482955932617,-1.5595941543579102,2.4661617279052734,0.49058055877685547,0.7992925643920898,-0.293304443359375,0.18553733825683594
224,473266976.0,-1.3336105346679688,-7.330071449279785,5.381132125854492,0.7659482955932617,-1.5595941543579102,2.4661617279052734,0.49058055877685547,0.7992925643920898,-0.293304443359375,0.18553733825683594
225,473266976.0,-0.9038381576538086,-7.5659074783325195,5.551125526428223,0.7659482955932617,-1.5595941543579102,2.4661617279052734,0.49058055877685547,0.7992925643920898,-0.293304443359375,0.18553733825683594
226,473266976.0,-1.3336105346679688,-7.330071449279785,5.381132125854492,0.7659482955932617,-1.5595941543579102,2.4661617279052734,0.49058055877685547,0.7992925643920898,-0.293304443359375,0.18553733825683594
227,473266976.0,-0.9038381576538086,-7.5659074783325195,5.551125526428223,0.7659482955932617,-1.5595941543579102,2.4661617279052734,0.49058055877685547,0.7992925643920898,-0.293304443359375,0.18553733825683594
228,473266976.0,-1.3336105346679688,-7.330071449279785,5.381132125854492,0.7659482955932617,-1.5595941543579102,2.4661617279052734,0.49058055877685547,0.7992925643920898,-0.293304443359375,0.18553733825683594
229,473267008.0,-1.2653741836547852,-7.319296836853027,6.422641754150391,1.4370851516723633,-1.9665374755859375,3.0776424407958984,0.49058055877685547,0.7992925643920898,-0.293304443359375,0.18553733825683594
230,473267008.0,-0.7254648208618164,-6.724320411682129,8.503266334533691,1.4370851516723633,-1.9665374755859375,3.0776424407958984,0.49058055877685547,0.7992925643920898,-0.293304443359375,0.18553733825683594
231,473267008.0,-1.2653741836547852,-7.319296836853027,6.422641754150391,1.4370851516723633,-1.9665374755859375,3.0776424407958984,0.49058055877685547,0.7992925643920898,-0.293304443359375,0.18553733825683594
232,473267008.0,-0.7254648208618164,-6.724320411682129,8.503266334533691,1.4370851516723633,-1.9665374755859375,3.0776424407958984,0.49058055877685547,0.7992925643920898,-0.293304443359375,0.18553733825683594
233,473267008.0,-1.2653741836547852,-7.319296836853027,6.422641754150391,1.4370851516723633,-1.9665374755859375,3.0776424407958984,0.49058055877685547,0.7992925643920898,-0.293304443359375,0.18553733825683594
234,473267008.0,-0.7254648208618164,-6.724320411682129,8.503266334533691,1.4370851516723633,-1.9665374755859375,3.0776424407958984,0.49058055877685547,0.7992925643920898,-0.293304443359375,0.18553733825683594
235,473267136.0,0.10893917083740234,4.5275726318359375,14.17769718170166,1.6256427764892578,-2.0187368392944336,3.518674850463867,0.49058055877685547,0.7992925643920898,-0.293304443359375,0.18553733825683594
236,473267168.0,0.39864635467529297,6.275393486022949,15.841717720031738,1.481827735900879,0.4314451217651367,2.905064582824707,0.49058055877685547,0.7992925643920898,-0.293304443359375,0.18553733825683594
237,473267200.0,-0.6332855224609375,4.824462890625,14.96900463104248,0.901240348815918,1.4466724395751953,1.4051265716552734,0.49058055877685547,0.7992925643920898,-0.293304443359375,0.18553733825683594
238,473267200.0,-0.34597206115722656,6.391515731811523,14.132205963134766,0.901240348815918,1.4466724395751953,1.4051265716552734,0.49058055877685547,0.7992925643920898,-0.293304443359375,0.18553733825683594
239,473267232.0,0.6620168685913086,7.66646671295166,13.139779090881348,0.5294523239135742,1.9750604629516602,0.8351926803588867,0.49058055877685547,0.7992925643920898,-0.293304443359375,0.18553733825683594
240,473267232.0,0.13288211822509766,7.029589653015137,12.445439338684082,0.5294523239135742,1.9750604629516602,0.8351926803588867,0.49058055877685547,0.7992925643920898,-0.293304443359375,0.18553733825683594
241,473267264.0,0.7637729644775391,6.724320411682129,11.994118690490723,0.3281106948852539,2.255232810974121,0.3622007369995117,0.49058055877685547,0.7992925643920898,-0.293304443359375,0.18553733825683594
242,473267296.0,0.31125545501708984,6.336447715759277,10.840078353881836,0.3281106948852539,2.255232810974121,0.3622007369995117,0.49058055877685547,0.7992925643920898,-0.293304443359375,0.18553733825683594
243,473267296.0,-0.08619308471679688,5.717527389526367,10.38636302947998,0.3281106948852539,2.255232810974121,0.3622007369995117,0.49058055877685547,0.7992925643920898,-0.293304443359375,0.18553733825683594
244,473267328.0,-0.39505481719970703,5.327260971069336,9.233519554138184,0.3281106948852539,2.255232810974121,0.3622007369995117,0.49058055877685547,0.7992925643920898,-0.293304443359375,0.18553733825683594
245,473267328.0,-1.1612224578857422,5.701964378356934,8.30573844909668,0.3281106948852539,2.255232810974121,0.3622007369995117,0.49058055877685547,0.7992925643920898,-0.293304443359375,0.18553733825683594
246,473267328.0,-1.1612224578857422,5.701964378356934,8.30573844909668,0.3281106948852539,2.255232810974121,0.3622007369995117,0.49058055877685547,0.7992925643920898,-0.293304443359375,0.18553733825683594
247,473267360.0,-1.113337516784668,3.72189998626709,7.932231903076172,0.3281106948852539,2.255232810974121,0.3622007369995117,0.49058055877685547,0.7992925643920898,-0.293304443359375,0.18553733825683594
248,473267360.0,-1.113337516784668,3.72189998626709,7.932231903076172,0.3281106948852539,2.255232810974121,0.3622007369995117,0.49058055877685547,0.7992925643920898,-0.293304443359375,0.18553733825683594
249,473267392.0,-1.968092918395996,1.9357709884643555,6.688405990600586,0.3281106948852539,2.255232810974121,0.3622007369995117,0.49058055877685547,0.7992925643920898,-0.293304443359375,0.18553733825683594
250,473267392.0,-2.339205741882324,3.375926971435547,5.1213531494140625,0.3281106948852539,2.255232810974121,0.3622007369995117,0.49058055877685547,0.7992925643920898,-0.293304443359375,0.18553733825683594
251,473267392.0,-1.968092918395996,1.9357709884643555,6.688405990600586,0.3281106948852539,2.255232810974121,0.3622007369995117,0.49058055877685547,0.7992925643920898,-0.293304443359375,0.18553733825683594
252,473267392.0,-2.339205741882324,3.375926971435547,5.1213531494140625,0.3281106948852539,2.255232810974121,0.3622007369995117,0.49058055877685547,0.7992925643920898,-0.293304443359375,0.18553733825683594
253,473267424.0,-2.4469480514526367,2.2374496459960938,3.432191848754883,0.3281106948852539,2.255232810974121,0.3622007369995117,0.49058055877685547,0.7992925643920898,-0.293304443359375,0.18553733825683594
254,473267424.0,-2.4469480514526367,2.2374496459960938,3.432191848754883,0.3281106948852539,2.255232810974121,0.3622007369995117,0.49058055877685547,0.7992925643920898,-0.293304443359375,0.18553733825683594
255,473267456.0,-2.5247621536254883,1.5000123977661133,2.9497461318969727,0.3281106948852539,2.255232810974121,0.3622007369995117,0.49058055877685547,0.7992925643920898,-0.293304443359375,0.18553733825683594
256,473267456.0,-2.5247621536254883,1.5000123977661133,2.9497461318969727,0.3281106948852539,2.255232810974121,0.3622007369995117,0.49058055877685547,0.7992925643920898,-0.293304443359375,0.18553733825683594
257,473267552.0,-2.729473114013672,-2.262589454650879,1.5682497024536133,0.2013406753540039,-0.7009649276733398,-3.6188135147094727,0.49058055877685547,0.7992925643920898,-0.293304443359375,0.18553733825683594
258,473267584.0,-1.5383214950561523,-4.826857566833496,2.688770294189453,0.2013406753540039,-0.7009649276733398,-3.6188135147094727,0.49058055877685547,0.7992925643920898,-0.293304443359375,0.18553733825683594
259,473267616.0,-0.5566682815551758,-6.986493110656738,4.555107116699219,0.2013406753540039,-0.7009649276733398,-3.6188135147094727,0.49058055877685547,0.7992925643920898,-0.293304443359375,0.18553733825683594
260,473267616.0,-0.5578651428222656,-7.957371711730957,5.263812065124512,0.2013406753540039,-0.7009649276733398,-3.6188135147094727,0.49058055877685547,0.7992925643920898,-0.293304443359375,0.18553733825683594
261,473267648.0,-0.5004034042358398,-8.863604545593262,4.728692054748535,0.2013406753540039,-0.7009649276733398,-3.6188135147094727,0.49058055877685547,0.7992925643920898,-0.293304443359375,0.18553733825683594
262,473267648.0,-0.4680805206298828,-8.5236177444458,5.0950164794921875,0.2013406753540039,-0.7009649276733398,-3.6188135147094727,0.49058055877685547,0.7992925643920898,-0.293304443359375,0.18553733825683594
263,473267680.0,-0.9792575836181641,-9.261054039001465,4.922628402709961,0.00852203369140625,-2.2424497604370117,-1.7460212707519531,0.49058055877685547,0.7992925643920898,-0.293304443359375,0.18553733825683594
264,473267712.0,-1.2761478424072266,-10.04757308959961,6.153285980224609,0.3930940628051758,-2.36708927154541,-1.1718263626098633,0.49058055877685547,0.7992925643920898,-0.293304443359375,0.18553733825683594
265,473267712.0,-0.5734281539916992,-11.351256370544434,8.04476261138916,0.3930940628051758,-2.36708927154541,-1.1718263626098633,0.49058055877685547,0.7992925643920898,-0.293304443359375,0.18553733825683594
266,473267744.0,-1.3779048919677734,-10.910709381103516,8.5236177444458,0.31319713592529297,-2.3383264541625977,-0.041545867919921875,0.49058055877685547,0.7992925643920898,-0.293304443359375,0.18553733825683594
267,473267776.0,-2.124917984008789,-10.343266487121582,8.559531211853027,-0.11079025268554688,-2.4384641647338867,0.9246768951416016,0.2515697479248047,0.9609203338623047,-0.05718517303466797,-0.10051631927490234
268,473267776.0,-2.372725486755371,-10.030813217163086,8.090253829956055,-0.11079025268554688,-2.4384641647338867,0.9246768951416016,0.2515697479248047,0.9609203338623047,-0.05718517303466797,-0.10051631927490234
269,473267808.0,-2.2985029220581055,-10.203201293945312,8.678048133850098,0.15659809112548828,-2.3053016662597656,1.1973934173583984,0.2500162124633789,0.9660558700561523,-0.0239105224609375,-0.06072425842285156
270,473267808.0,-2.6337013244628906,-9.228731155395508,9.811737060546875,0.15659809112548828,-2.3053016662597656,1.1973934173583984,0.2500162124633789,0.9660558700561523,-0.0239105224609375,-0.06072425842285156
271,473267840.0,-2.158437728881836,-7.453376770019531,11.645751953125,0.7137489318847656,-2.166813850402832,1.6544055938720703,0.24298095703125,0.9690771102905273,-0.004488945007324219,-0.042209625244140625
272,473267968.0,0.45610904693603516,-2.4888477325439453,12.413116455078125,-0.03835010528564453,-0.08735370635986328,1.2868785858154297,0.24298095703125,0.9690771102905273,-0.004488945007324219,-0.042209625244140625
273,473267968.0,0.0,-3.1688222885131836,11.558361053466797,-0.03835010528564453,-0.08735370635986328,1.2868785858154297,0.24298095703125,0.9690771102905273,-0.004488945007324219,-0.042209625244140625
274,473267968.0,0.45610904693603516,-2.4888477325439453,12.413116455078125,-0.03835010528564453,-0.08735370635986328,1.2868785858154297,0.24298095703125,0.9690771102905273,-0.004488945007324219,-0.042209625244140625
275,473267968.0,0.0,-3.1688222885131836,11.558361053466797,-0.03835010528564453,-0.08735370635986328,1.2868785858154297,0.24298095703125,0.9690771102905273,-0.004488945007324219,-0.042209625244140625
276,473268000.0,0.1496419906616211,-1.6724004745483398,11.924684524536133,0.2780418395996094,0.2588663101196289,0.8501062393188477,0.24298095703125,0.9690771102905273,-0.004488945007324219,-0.042209625244140625
277,473268000.0,0.1496419906616211,-1.6724004745483398,11.924684524536133,0.2780418395996094,0.2588663101196289,0.8501062393188477,0.24298095703125,0.9690771102905273,-0.004488945007324219,-0.042209625244140625
278,473268032.0,0.5267400741577148,-1.765777587890625,10.90831470489502,-0.05113410949707031,0.3334379196166992,0.8234739303588867,0.24298095703125,0.9690771102905273,-0.004488945007324219,-0.042209625244140625
279,473268032.0,0.28731250762939453,-1.8004941940307617,9.924267768859863,-0.05113410949707031,0.3334379196166992,0.8234739303588867,0.24298095703125,0.9690771102905273,-0.004488945007324219,-0.042209625244140625
280,473268032.0,0.5267400741577148,-1.765777587890625,10.90831470489502,-0.05113410949707031,0.3334379196166992,0.8234739303588867,0.24298095703125,0.9690771102905273,-0.004488945007324219,-0.042209625244140625
281,473268032.0,0.28731250762939453,-1.8004941940307617,9.924267768859863,-0.05113410949707031,0.3334379196166992,0.8234739303588867,0.24298095703125,0.9690771102905273,-0.004488945007324219,-0.042209625244140625
282,473268160.0,-0.08978462219238281,-2.8348207473754883,7.812518119812012,-0.17044734954833984,0.35367774963378906,0.7030954360961914,0.20340442657470703,0.9673080444335938,0.1496295928955078,-0.02231311798095703
283,473268192.0,-0.5171632766723633,-2.5678586959838867,7.776603698730469,-0.17044734954833984,0.35367774963378906,0.7030954360961914,0.20340442657470703,0.9673080444335938,0.1496295928955078,-0.02231311798095703
284,473268192.0,-0.4465312957763672,-2.033935546875,8.30454158782959,-0.17044734954833984,0.35367774963378906,0.7030954360961914,0.20340442657470703,0.9673080444335938,0.1496295928955078,-0.02231311798095703
285,473268224.0,-0.5578651428222656,-2.932986259460449,8.590657234191895,-0.17044734954833984,0.35367774963378906,0.7030954360961914,0.20340442657470703,0.9673080444335938,0.1496295928955078,-0.02231311798095703
286,473268224.0,-0.8954582214355469,-3.0155887603759766,8.880364418029785,-0.17044734954833984,0.35367774963378906,0.7030954360961914,0.20340442657470703,0.9673080444335938,0.1496295928955078,-0.02231311798095703
287,473268256.0,-0.9313726425170898,-2.7977094650268555,8.923460960388184,0.22158145904541016,-0.08948421478271484,-0.0628519058227539,0.20340442657470703,0.9673080444335938,0.1496295928955078,-0.02231311798095703
288,473268288.0,-0.9397525787353516,-2.948549270629883,9.16408634185791,0.09907245635986328,-0.06711292266845703,-0.07350540161132812,0.20340442657470703,0.9673080444335938,0.1496295928955078,-0.02231311798095703
289,473268288.0,-0.8810930252075195,-3.1077680587768555,9.35682487487793,0.09907245635986328,-0.06711292266845703,-0.07350540161132812,0.20340442657470703,0.9673080444335938,0.1496295928955078,-0.02231311798095703
290,473268320.0,-0.9684839248657227,-3.088613510131836,9.343656539916992,-0.005326271057128906,-0.007456779479980469,-0.1320962905883789,0.20340442657470703,0.9673080444335938,0.1496295928955078,-0.02231311798095703
291,473268352.0,-0.9074296951293945,-3.2873382568359375,9.341261863708496,-0.05859088897705078,0.042611122131347656,-0.11398601531982422,0.20340442657470703,0.9673080444335938,0.1496295928955078,-0.02231311798095703
292,473268352.0,-0.9194011688232422,-3.550708770751953,9.001275062561035,-0.05859088897705078,0.042611122131347656,-0.11398601531982422,0.20340442657470703,0.9673080444335938,0.1496295928955078,-0.02231311798095703
293,473268384.0,-1.0594663619995117,-3.41184139251709,9.083877563476562,-0.11718177795410156,0.0916147232055664,-0.11505126953125,0.20340442657470703,0.9673080444335938,0.1496295928955078,-0.02231311798095703
294,473268416.0,-1.1049575805664062,-3.6668310165405273,9.104228973388672,-0.09694194793701172,0.11079025268554688,-0.11079025268554688,0.20340442657470703,0.9673080444335938,0.1496295928955078,-0.02231311798095703
295,473268416.0,-1.0929861068725586,-3.8763303756713867,9.088665962219238,-0.09694194793701172,0.11079025268554688,-0.11079025268554688,0.20340442657470703,0.9673080444335938,0.1496295928955078,-0.02231311798095703
296,473268448.0,-1.0989713668823242,-3.5770463943481445,8.961770057678223,-0.10546398162841797,0.11824703216552734,-0.0916147232055664,0.20340442657470703,0.9673080444335938,0.1496295928955078,-0.02231311798095703
297,473268448.0,-1.2534027099609375,-3.6045799255371094,8.929447174072266,-0.10546398162841797,0.11824703216552734,-0.0916147232055664,0.20340442657470703,0.9673080444335938,0.1496295928955078,-0.02231311798095703
298,473268448.0,-1.2534027099609375,-3.6045799255371094,8.929447174072266,-0.10546398162841797,0.11824703216552734,-0.0916147232055664,0.20340442657470703,0.9673080444335938,0.1496295928955078,-0.02231311798095703
299,473268480.0,-1.175588607788086,-3.679999351501465,9.162888526916504,-0.05113410949707031,0.09907245635986328,-0.03728485107421875,0.20340442657470703,0.9673080444335938,0.1496295928955078,-0.02231311798095703
300,473268480.0,-1.175588607788086,-3.679999351501465,9.162888526916504,-0.05113410949707031,0.09907245635986328,-0.03728485107421875,0.20340442657470703,0.9673080444335938,0.1496295928955078,-0.02231311798095703
301,473268512.0,-1.1384773254394531,-3.8164730072021484,9.362811088562012,-0.04900360107421875,0.10865974426269531,-0.01597881317138672,0.20340442657470703,0.9673080444335938,0.1496295928955078,-0.02231311798095703
302,473268512.0,-1.256993293762207,-3.6656341552734375,9.18443775177002,-0.04900360107421875,0.10865974426269531,-0.01597881317138672,0.20340442657470703,0.9673080444335938,0.1496295928955078,-0.02231311798095703
303,473268512.0,-1.1384773254394531,-3.8164730072021484,9.362811088562012,-0.04900360107421875,0.10865974426269531,-0.01597881317138672,0.20340442657470703,0.9673080444335938,0.1496295928955078,-0.02231311798095703
304,473268512.0,-1.256993293762207,-3.6656341552734375,9.18443775177002,-0.04900360107421875,0.10865974426269531,-0.01597881317138672,0.20340442657470703,0.9673080444335938,0.1496295928955078,-0.02231311798095703
305,473268544.0,-1.3982563018798828,-3.6512680053710938,9.015641212463379,-0.060721397399902344,0.11398601531982422,-0.0021305084228515625,0.20340442657470703,0.9673080444335938,0.1496295928955078,-0.02231311798095703
306,473268544.0,-1.3982563018798828,-3.6512680053710938,9.015641212463379,-0.060721397399902344,0.11398601531982422,-0.0021305084228515625,0.20340442657470703,0.9673080444335938,0.1496295928955078,-0.02231311798095703
307,473268672.0,-1.2210798263549805,-3.6297197341918945,8.943812370300293,-0.033023834228515625,0.16512012481689453,0.05965614318847656,0.1896800994873047,0.9707603454589844,0.14168834686279297,-0.039145469665527344
308,473268672.0,-1.2103052139282227,-3.5638771057128906,8.964163780212402,-0.033023834228515625,0.16512012481689453,0.05965614318847656,0.1896800994873047,0.9707603454589844,0.14168834686279297,-0.039145469665527344
309,473268704.0,-1.1815738677978516,-3.5710601806640625,8.737905502319336,-0.02769756317138672,0.15446758270263672,0.05646038055419922,0.1908893585205078,0.9703292846679688,0.14220619201660156,-0.04216575622558594
310,473268704.0,-1.2450227737426758,-3.683590888977051,8.652908325195312,-0.02769756317138672,0.15446758270263672,0.05646038055419922,0.1908893585205078,0.9703292846679688,0.14220619201660156,-0.04216575622558594
311,473268736.0,-1.2905139923095703,-3.536343574523926,8.552349090576172,-0.033023834228515625,0.11398601531982422,0.07350540161132812,0.19136333465576172,0.9701128005981445,0.14268112182617188,-0.043503761291503906
312,473268768.0,-1.3024845123291016,-3.499232292175293,8.506857872009277,-0.0010652542114257812,0.10439872741699219,0.052199363708496094,0.19136333465576172,0.9701128005981445,0.14268112182617188,-0.043503761291503906
313,473268768.0,-1.2426280975341797,-3.5088090896606445,8.752270698547363,-0.0010652542114257812,0.10439872741699219,0.052199363708496094,0.19136333465576172,0.9701128005981445,0.14268112182617188,-0.043503761291503906
314,473268800.0,-1.3144559860229492,-3.4489526748657227,8.688822746276855,-0.04900360107421875,0.07563591003417969,0.03728485107421875,0.19136333465576172,0.9701128005981445,0.14268112182617188,-0.043503761291503906
315,473268832.0,-1.4569158554077148,-3.3663501739501953,8.499674797058105,-0.060721397399902344,0.03941535949707031,0.004261016845703125,0.19136333465576172,0.9701128005981445,0.14268112182617188,-0.043503761291503906
316,473268832.0,-1.446141242980957,-3.401066780090332,8.5667142868042,-0.060721397399902344,0.03941535949707031,0.004261016845703125,0.19136333465576172,0.9701128005981445,0.14268112182617188,-0.043503761291503906
317,473268960.0,-1.4365644454956055,-3.5339488983154297,8.979726791381836,-0.060721397399902344,0.03941535949707031,0.004261016845703125,0.19529151916503906,0.9692497253417969,0.1423358917236328,-0.046309471130371094
318,473268960.0,-1.4365644454956055,-3.5339488983154297,8.979726791381836,-0.060721397399902344,0.03941535949707031,0.004261016845703125,0.19529151916503906,0.9692497253417969,0.1423358917236328,-0.046309471130371094
319,473268992.0,-1.426987648010254,-3.617748260498047,9.014443397521973,-0.060721397399902344,0.03941535949707031,0.004261016845703125,0.19589519500732422,0.9692935943603516,0.14151573181152344,-0.04544639587402344
320,473268992.0,-1.449732780456543,-3.7171106338500977,8.97493839263916,-0.060721397399902344,0.03941535949707031,0.004261016845703125,0.19589519500732422,0.9692935943603516,0.14151573181152344,-0.04544639587402344
321,473268992.0,-1.426987648010254,-3.617748260498047,9.014443397521973,-0.060721397399902344,0.03941535949707031,0.004261016845703125,0.19589519500732422,0.9692935943603516,0.14151573181152344,-0.04544639587402344
322,473268992.0,-1.449732780456543,-3.7171106338500977,8.97493839263916,-0.060721397399902344,0.03941535949707031,0.004261016845703125,0.19589519500732422,0.9692935943603516,0.14151573181152344,-0.04544639587402344
323,473269024.0,-1.4245929718017578,-3.6261281967163086,8.971346855163574,-0.060721397399902344,0.03941535949707031,0.004261016845703125,0.19649982452392578,0.9692935943603516,0.1408252716064453,-0.044841766357421875
324,473269024.0,-1.4054384231567383,-3.6512680053710938,8.937827110290527,-0.060721397399902344,0.03941535949707031,0.004261016845703125,0.19649982452392578,0.9692935943603516,0.1408252716064453,-0.044841766357421875
325,473269024.0,-1.4245929718017578,-3.6261281967163086,8.971346855163574,-0.060721397399902344,0.03941535949707031,0.004261016845703125,0.19649982452392578,0.9692935943603516,0.1408252716064453,-0.044841766357421875
326,473269024.0,-1.4054384231567383,-3.6512680053710938,8.937827110290527,-0.060721397399902344,0.03941535949707031,0.004261016845703125,0.19649982452392578,0.9692935943603516,0.1408252716064453,-0.044841766357421875
327,473269056.0,-1.4329729080200195,-3.718308448791504,8.820508003234863,-0.060721397399902344,0.03941535949707031,0.004261016845703125,0.19649982452392578,0.9692935943603516,0.1408252716064453,-0.044841766357421875
328,473269088.0,-1.416213035583496,-3.609368324279785,8.931840896606445,-0.060721397399902344,0.03941535949707031,0.004261016845703125,0.19649982452392578,0.9692935943603516,0.1408252716064453,-0.044841766357421875
329,473269088.0,-1.4605073928833008,-3.674014091491699,8.989303588867188,-0.060721397399902344,0.03941535949707031,0.004261016845703125,0.19649982452392578,0.9692935943603516,0.1408252716064453,-0.044841766357421875
330,473269120.0,-1.5012102127075195,-3.689577102661133,8.921067237854004,-0.060721397399902344,0.03941535949707031,0.004261016845703125,0.19649982452392578,0.9692935943603516,0.1408252716064453,-0.044841766357421875
331,473269120.0,-1.4844493865966797,-3.6321144104003906,8.830084800720215,-0.060721397399902344,0.03941535949707031,0.004261016845703125,0.19649982452392578,0.9692935943603516,0.1408252716064453,-0.044841766357421875
332,473269152.0,-1.4245929718017578,-3.6883792877197266,8.883955955505371,-0.010652542114257812,-0.0063915252685546875,-0.020239830017089844,0.19649982452392578,0.9692935943603516,0.1408252716064453,-0.044841766357421875
333,473269184.0,-1.4736757278442383,-3.776968002319336,8.988106727600098,-0.014913558959960938,-0.0031957626342773438,-0.0170440673828125,0.19649982452392578,0.9692935943603516,0.1408252716064453,-0.044841766357421875
334,473269184.0,-1.4916324615478516,-3.7386598587036133,9.030006408691406,-0.014913558959960938,-0.0031957626342773438,-0.0170440673828125,0.19649982452392578,0.9692935943603516,0.1408252716064453,-0.044841766357421875
335,473269216.0,-1.4904356002807617,-3.70513916015625,9.002472877502441,-0.0063915252685546875,-0.004261016845703125,-0.009587287902832031,0.19649982452392578,0.9692935943603516,0.1408252716064453,-0.044841766357421875
336,473269248.0,-1.3862848281860352,-3.8523874282836914,8.989303588867188,0.004261016845703125,-0.0010652542114257812,0.0010652542114257812,0.19649982452392578,0.9692935943603516,0.1408252716064453,-0.044841766357421875
337,473269248.0,-1.4030447006225586,-3.6931686401367188,8.885152816772461,0.004261016845703125,-0.0010652542114257812,0.0010652542114257812,0.19649982452392578,0.9692935943603516,0.1408252716064453,-0.044841766357421875
338,473269280.0,-1.4832525253295898,-3.6644372940063477,8.895927429199219,0.01597881317138672,0.0,0.020239830017089844,0.19649982452392578,0.9692935943603516,0.1408252716064453,-0.044841766357421875
339,473269312.0,-1.4042415618896484,-3.674014091491699,8.918672561645508,0.024501800537109375,-0.0031957626342773438,0.012783050537109375,0.19649982452392578,0.9692935943603516,0.1408252716064453,-0.044841766357421875
340,473269312.0,-1.4880409240722656,-3.7673912048339844,8.939023971557617,0.024501800537109375,-0.0031957626342773438,0.012783050537109375,0.19649982452392578,0.9692935943603516,0.1408252716064453,-0.044841766357421875
341,473269344.0,-1.426987648010254,-3.674014091491699,8.900715827941895,0.022370338439941406,-0.013848304748535156,0.00852203369140625,0.19649982452392578,0.9692935943603516,0.1408252716064453,-0.044841766357421875
342,473269440.0,-1.3802986145019531,-3.642888069152832,8.838464736938477,-0.021305084228515625,0.0,0.0010652542114257812,0.19649982452392578,0.9692935943603516,0.1408252716064453,-0.044841766357421875
343,473269472.0,-1.4066362380981445,-3.5135974884033203,8.862407684326172,-0.007456779479980469,-0.0170440673828125,-0.0031957626342773438,0.19649982452392578,0.9692935943603516,0.1408252716064453,-0.044841766357421875
344,473269504.0,-1.3719186782836914,-3.6369028091430664,8.928250312805176,-0.0170440673828125,-0.014913558959960938,0.0031957626342773438,0.19649982452392578,0.9692935943603516,0.1408252716064453,-0.044841766357421875
345,473269504.0,-1.3970584869384766,-3.6105661392211914,8.915081024169922,-0.0170440673828125,-0.014913558959960938,0.0031957626342773438,0.19649982452392578,0.9692935943603516,0.1408252716064453,-0.044841766357421875
346,473269536.0,-1.5000123977661133,-3.468106269836426,8.87437915802002,0.01597881317138672,-0.026632308959960938,-0.0287628173828125,0.19649982452392578,0.9692935943603516,0.1408252716064453,-0.044841766357421875
347,473269664.0,-1.364736557006836,-3.7865447998046875,9.052752494812012,-0.04900360107421875,0.00852203369140625,-0.024501800537109375,0.19801044464111328,0.9692935943603516,0.1393575668334961,-0.04264068603515625
348,473269664.0,-1.4150161743164062,-3.733870506286621,8.941418647766113,-0.04900360107421875,0.00852203369140625,-0.024501800537109375,0.19801044464111328,0.9692935943603516,0.1393575668334961,-0.04264068603515625
349,473269664.0,-1.364736557006836,-3.7865447998046875,9.052752494812012,-0.04900360107421875,0.00852203369140625,-0.024501800537109375,0.19801044464111328,0.9692935943603516,0.1393575668334961,-0.04264068603515625
350,473269664.0,-1.4150161743164062,-3.733870506286621,8.941418647766113,-0.04900360107421875,0.00852203369140625,-0.024501800537109375,0.19801044464111328,0.9692935943603516,0.1393575668334961,-0.04264068603515625
351,473269696.0,-1.416213035583496,-3.8296422958374023,8.916278839111328,0.0021305084228515625,0.007456779479980469,-0.01810932159423828,0.19801044464111328,0.9692935943603516,0.1393575668334961,-0.04264068603515625
352,473269696.0,-1.416213035583496,-3.8296422958374023,8.916278839111328,0.0021305084228515625,0.007456779479980469,-0.01810932159423828,0.19801044464111328,0.9692935943603516,0.1393575668334961,-0.04264068603515625
353,473269728.0,-1.5095901489257812,-3.7602081298828125,8.87437915802002,-0.00852203369140625,-0.010652542114257812,0.005326271057128906,0.19801044464111328,0.9692935943603516,0.1393575668334961,-0.04264068603515625
354,473269728.0,-1.5227584838867188,-3.775771141052246,8.97374153137207,-0.00852203369140625,-0.010652542114257812,0.005326271057128906,0.19801044464111328,0.9692935943603516,0.1393575668334961,-0.04264068603515625
355,473269728.0,-1.5095901489257812,-3.7602081298828125,8.87437915802002,-0.00852203369140625,-0.010652542114257812,0.005326271057128906,0.19801044464111328,0.9692935943603516,0.1393575668334961,-0.04264068603515625
356,473269728.0,-1.5227584838867188,-3.775771141052246,8.97374153137207,-0.00852203369140625,-0.010652542114257812,0.005326271057128906,0.19801044464111328,0.9692935943603516,0.1393575668334961,-0.04264068603515625
357,473269952.0,-1.442549705505371,-3.5758485794067383,8.851633071899414,-0.014913558959960938,0.0031957626342773438,-0.030893325805664062,0.19857120513916016,0.9692068099975586,0.13909912109375,-0.04294300079345703
358,473269952.0,-1.442549705505371,-3.5758485794067383,8.851633071899414,-0.014913558959960938,0.0031957626342773438,-0.030893325805664062,0.19857120513916016,0.9692068099975586,0.13909912109375,-0.04294300079345703
359,473269984.0,-1.4820556640625,-3.579440116882324,8.879167556762695,-0.013848304748535156,0.0010652542114257812,-0.03941535949707031,0.19857120513916016,0.9692068099975586,0.13909912109375,-0.04294300079345703
360,473269984.0,-1.4509296417236328,-3.675210952758789,8.900715827941895,-0.013848304748535156,0.0010652542114257812,-0.03941535949707031,0.19857120513916016,0.9692068099975586,0.13909912109375,-0.04294300079345703
361,473269984.0,-1.4820556640625,-3.579440116882324,8.879167556762695,-0.013848304748535156,0.0010652542114257812,-0.03941535949707031,0.19857120513916016,0.9692068099975586,0.13909912109375,-0.04294300079345703
362,473269984.0,-1.4509296417236328,-3.675210952758789,8.900715827941895,-0.013848304748535156,0.0010652542114257812,-0.03941535949707031,0.19857120513916016,0.9692068099975586,0.13909912109375,-0.04294300079345703
363,473270016.0,-1.4186077117919922,-3.645282745361328,8.984515190124512,0.0170440673828125,-0.0063915252685546875,-0.042611122131347656,0.19857120513916016,0.9692068099975586,0.13909912109375,-0.04294300079345703
364,473270016.0,-1.4341697692871094,-3.5674686431884766,8.929447174072266,0.0170440673828125,-0.0063915252685546875,-0.042611122131347656,0.19857120513916016,0.9692068099975586,0.13909912109375,-0.04294300079345703
365,473270016.0,-1.4186077117919922,-3.645282745361328,8.984515190124512,0.0170440673828125,-0.0063915252685546875,-0.042611122131347656,0.19857120513916016,0.9692068099975586,0.13909912109375,-0.04294300079345703
366,473270016.0,-1.4341697692871094,-3.5674686431884766,8.929447174072266,0.0170440673828125,-0.0063915252685546875,-0.042611122131347656,0.19857120513916016,0.9692068099975586,0.13909912109375,-0.04294300079345703
367,473270144.0,-1.4629011154174805,-3.7793617248535156,9.007261276245117,0.0021305084228515625,0.004261016845703125,-0.03728485107421875,0.19977951049804688,0.9695520401000977,0.1347827911376953,-0.043720245361328125
368,473270176.0,-1.446141242980957,-3.72189998626709,8.9450101852417,-0.020239830017089844,0.031958580017089844,-0.01597881317138672,0.19982242584228516,0.9695520401000977,0.13461017608642578,-0.04393577575683594
369,473270208.0,-1.4976186752319336,-3.712322235107422,8.860013008117676,-0.00852203369140625,0.031958580017089844,-0.013848304748535156,0.20029735565185547,0.9694662094116211,0.1343517303466797,-0.04441070556640625
370,473270208.0,-1.4640989303588867,-3.766193389892578,8.888744354248047,-0.00852203369140625,0.031958580017089844,-0.013848304748535156,0.20029735565185547,0.9694662094116211,0.1343517303466797,-0.04441070556640625
371,473270240.0,-1.4676895141601562,-3.77217960357666,8.891139030456543,-0.004261016845703125,0.02769756317138672,0.0,0.20034027099609375,0.9694662094116211,0.13417911529541016,-0.044712066650390625
372,473270336.0,-1.478464126586914,-3.7829532623291016,8.87557601928711,-0.004261016845703125,0.02769756317138672,0.0,0.20034027099609375,0.9694662094116211,0.13417911529541016,-0.044712066650390625
373,473270336.0,-1.478464126586914,-3.7829532623291016,8.87557601928711,-0.004261016845703125,0.02769756317138672,0.0,0.20034027099609375,0.9694662094116211,0.13417911529541016,-0.044712066650390625
374,473270368.0,-1.4928302764892578,-3.6931686401367188,8.80494499206543,-0.004261016845703125,0.02769756317138672,0.0,0.20034027099609375,0.9694662094116211,0.13417911529541016,-0.044712066650390625
375,473270368.0,-1.4928302764892578,-3.6931686401367188,8.80494499206543,-0.004261016845703125,0.02769756317138672,0.0,0.20034027099609375,0.9694662094116211,0.13417911529541016,-0.044712066650390625
376,473270400.0,-1.4928302764892578,-3.6883792877197266,8.85642147064209,-0.004261016845703125,0.02769756317138672,0.0,0.20034027099609375,0.9694662094116211,0.13417911529541016,-0.044712066650390625
377,473270400.0,-1.5383214950561523,-3.6644372940063477,8.855224609375,-0.004261016845703125,0.02769756317138672,0.0,0.20034027099609375,0.9694662094116211,0.13417911529541016,-0.044712066650390625
378,473270400.0,-1.4928302764892578,-3.6883792877197266,8.85642147064209,-0.004261016845703125,0.02769756317138672,0.0,0.20034027099609375,0.9694662094116211,0.13417911529541016,-0.044712066650390625
379,473270400.0,-1.5383214950561523,-3.6644372940063477,8.855224609375,-0.004261016845703125,0.02769756317138672,0.0,0.20034027099609375,0.9694662094116211,0.13417911529541016,-0.044712066650390625
380,473270432.0,-1.4688873291015625,-3.6608457565307617,8.803747177124023,-0.004261016845703125,0.02769756317138672,0.0,0.20034027099609375,0.9694662094116211,0.13417911529541016,-0.044712066650390625
381,473270432.0,-1.4688873291015625,-3.6608457565307617,8.803747177124023,-0.004261016845703125,0.02769756317138672,0.0,0.20034027099609375,0.9694662094116211,0.13417911529541016,-0.044712066650390625
382,473270464.0,-1.4940271377563477,-3.683590888977051,8.867196083068848,-0.041545867919921875,0.0010652542114257812,0.013848304748535156,0.20034027099609375,0.9694662094116211,0.13417911529541016,-0.044712066650390625
383,473270464.0,-1.446141242980957,-3.713520050048828,8.883955955505371,-0.041545867919921875,0.0010652542114257812,0.013848304748535156,0.20034027099609375,0.9694662094116211,0.13417911529541016,-0.044712066650390625
384,473270496.0,-1.4078330993652344,-3.689577102661133,8.826493263244629,-0.013848304748535156,-0.0010652542114257812,0.0010652542114257812,0.20034027099609375,0.9694662094116211,0.13417911529541016,-0.044712066650390625
385,473270528.0,-1.4712810516357422,-3.770981788635254,8.840858459472656,-0.010652542114257812,-0.010652542114257812,0.0021305084228515625,0.20034027099609375,0.9694662094116211,0.13417911529541016,-0.044712066650390625
386,473270528.0,-1.4329729080200195,-3.677605628967285,8.913884162902832,-0.010652542114257812,-0.010652542114257812,0.0021305084228515625,0.20034027099609375,0.9694662094116211,0.13417911529541016,-0.044712066650390625
387,473270560.0,-1.4952239990234375,-3.685985565185547,8.897124290466309,-0.010652542114257812,-0.010652542114257812,0.0021305084228515625,0.20034027099609375,0.9694662094116211,0.13417911529541016,-0.044712066650390625
388,473270560.0,-1.4413528442382812,-3.6285228729248047,8.870787620544434,-0.010652542114257812,-0.010652542114257812,0.0021305084228515625,0.20034027099609375,0.9694662094116211,0.13417911529541016,-0.044712066650390625
389,473270592.0,-1.4581127166748047,-3.6764087677001953,8.760650634765625,-0.010652542114257812,-0.010652542114257812,0.0021305084228515625,0.20034027099609375,0.9694662094116211,0.13417911529541016,-0.044712066650390625
390,473270624.0,-1.4305782318115234,-3.593806266784668,8.87437915802002,-0.010652542114257812,-0.010652542114257812,0.0021305084228515625,0.20034027099609375,0.9694662094116211,0.13417911529541016,-0.044712066650390625
391,473270624.0,-1.4329729080200195,-3.617748260498047,8.860013008117676,-0.010652542114257812,-0.010652542114257812,0.0021305084228515625,0.20034027099609375,0.9694662094116211,0.13417911529541016,-0.044712066650390625
392,473270752.0,-1.4317760467529297,-3.77457332611084,8.92705249786377,-0.0170440673828125,-0.011717796325683594,-0.010652542114257812,0.20288658142089844,0.9689044952392578,0.13465404510498047,-0.043547630310058594
393,473270784.0,-1.476069450378418,-3.741053581237793,8.912687301635742,0.031958580017089844,-0.014913558959960938,-0.0063915252685546875,0.20288658142089844,0.9689044952392578,0.13465404510498047,-0.043547630310058594
394,473270784.0,-1.446141242980957,-3.784151077270508,8.95458698272705,0.031958580017089844,-0.014913558959960938,-0.0063915252685546875,0.20288658142089844,0.9689044952392578,0.13465404510498047,-0.043547630310058594
395,473270816.0,-1.453324317932129,-3.683590888977051,9.061132431030273,-0.0010652542114257812,-0.0021305084228515625,-0.0063915252685546875,0.20288658142089844,0.9689044952392578,0.13465404510498047,-0.043547630310058594
396,473270816.0,-1.4401559829711914,-3.747039794921875,8.946207046508789,-0.0010652542114257812,-0.0021305084228515625,-0.0063915252685546875,0.20288658142089844,0.9689044952392578,0.13465404510498047,-0.043547630310058594
397,473270848.0,-1.4437475204467773,-3.6656341552734375,8.900715827941895,-0.0010652542114257812,0.009587287902832031,-0.013848304748535156,0.20288658142089844,0.9689044952392578,0.13465404510498047,-0.043547630310058594
398,473270880.0,-1.4449443817138672,-3.708730697631836,8.972543716430664,0.007456779479980469,0.011717796325683594,-0.0031957626342773438,0.20288658142089844,0.9689044952392578,0.13465404510498047,-0.043547630310058594
399,473270880.0,-1.4401559829711914,-3.7207021713256836,8.947403907775879,0.007456779479980469,0.011717796325683594,-0.0031957626342773438,0.20288658142089844,0.9689044952392578,0.13465404510498047,-0.043547630310058594
400,473270912.0,-1.4808588027954102,-3.6584510803222656,8.922264099121094,-0.00852203369140625,0.009587287902832031,-0.014913558959960938,0.20288658142089844,0.9689044952392578,0.13465404510498047,-0.043547630310058594
401,473270944.0,-1.4257898330688477,-3.6979570388793945,8.893532752990723,0.0010652542114257812,0.013848304748535156,-0.01810932159423828,0.2030162811279297,0.9690771102905273,0.13361740112304688,-0.043331146240234375
402,473271040.0,-1.4880409240722656,-3.741053581237793,8.824098587036133,0.0010652542114257812,0.013848304748535156,-0.01810932159423828,0.20331859588623047,0.9690771102905273,0.1328411102294922,-0.043547630310058594
403,473271072.0,-1.4868440628051758,-3.707533836364746,8.865999221801758,-0.012783050537109375,0.0,-0.021305084228515625,0.20331859588623047,0.9690771102905273,0.1328411102294922,-0.043547630310058594
404,473271104.0,-1.4509296417236328,-3.7506303787231445,8.863604545593262,0.0,0.0031957626342773438,-0.019174575805664062,0.20331859588623047,0.9690771102905273,0.1328411102294922,-0.043547630310058594
405,473271104.0,-1.4820556640625,-3.7278852462768555,8.936630249023438,0.0,0.0031957626342773438,-0.019174575805664062,0.20331859588623047,0.9690771102905273,0.1328411102294922,-0.043547630310058594
406,473271136.0,-1.4952239990234375,-3.7554197311401367,8.949798583984375,-0.011717796325683594,0.009587287902832031,-0.019174575805664062,0.2037506103515625,0.969120979309082,0.1317615509033203,-0.043288230895996094
407,473271264.0,-1.547898292541504,-3.770981788635254,8.849238395690918,-0.026632308959960938,0.03515434265136719,-0.009587287902832031,0.20461368560791016,0.9690341949462891,0.1310710906982422,-0.043720245361328125
408,473271264.0,-1.4688873291015625,-3.742250442504883,8.898321151733398,-0.026632308959960938,0.03515434265136719,-0.009587287902832031,0.20461368560791016,0.9690341949462891,0.1310710906982422,-0.043720245361328125
409,473271296.0,-1.5095901489257812,-3.7314767837524414,8.849238395690918,-0.025567054748535156,0.02769756317138672,-0.0170440673828125,0.20461368560791016,0.9690341949462891,0.1310710906982422,-0.043720245361328125
410,473271296.0,-1.485647201538086,-3.7326736450195312,8.812127113342285,-0.025567054748535156,0.02769756317138672,-0.0170440673828125,0.20461368560791016,0.9690341949462891,0.1310710906982422,-0.043720245361328125
411,473271328.0,-1.4832525253295898,-3.7937278747558594,8.879167556762695,-0.033023834228515625,0.0063915252685546875,-0.02769756317138672,0.20461368560791016,0.9690341949462891,0.1310710906982422,-0.043720245361328125
412,473271360.0,-1.4317760467529297,-3.6728172302246094,8.803747177124023,-0.03515434265136719,0.00852203369140625,-0.02982807159423828,0.20461368560791016,0.9690341949462891,0.1310710906982422,-0.043720245361328125
413,473271360.0,-1.4940271377563477,-3.714716911315918,8.810930252075195,-0.03515434265136719,0.00852203369140625,-0.02982807159423828,0.20461368560791016,0.9690341949462891,0.1310710906982422,-0.043720245361328125
414,473271392.0,-1.4473390579223633,-3.802107810974121,8.792973518371582,-0.04793834686279297,-0.012783050537109375,-0.045806884765625,0.20461368560791016,0.9690341949462891,0.1310710906982422,-0.043720245361328125
415,473271392.0,-1.4748725891113281,-3.7673912048339844,8.670865058898926,-0.04793834686279297,-0.012783050537109375,-0.045806884765625,0.20461368560791016,0.9690341949462891,0.1310710906982422,-0.043720245361328125
416,473271424.0,-1.5359268188476562,-3.9110469818115234,8.603825569152832,-0.03621959686279297,-0.040480613708496094,-0.03621959686279297,0.20461368560791016,0.9690341949462891,0.1310710906982422,-0.043720245361328125
417,473271456.0,-1.632894515991211,-4.055900573730469,8.552349090576172,-0.03621959686279297,-0.040480613708496094,-0.03621959686279297,0.20461368560791016,0.9690341949462891,0.1310710906982422,-0.043720245361328125
418,473271456.0,-1.6664142608642578,-4.331242561340332,8.415875434875488,-0.03621959686279297,-0.040480613708496094,-0.03621959686279297,0.20461368560791016,0.9690341949462891,0.1310710906982422,-0.043720245361328125
419,473271456.0,-1.632894515991211,-4.055900573730469,8.552349090576172,-0.03621959686279297,-0.040480613708496094,-0.03621959686279297,0.20461368560791016,0.9690341949462891,0.1310710906982422,-0.043720245361328125
420,473271456.0,-1.6664142608642578,-4.331242561340332,8.415875434875488,-0.03621959686279297,-0.040480613708496094,-0.03621959686279297,0.20461368560791016,0.9690341949462891,0.1310710906982422,-0.043720245361328125
421,473271488.0,-1.7538061141967773,-4.8998823165893555,8.37517261505127,-0.03621959686279297,-0.040480613708496094,-0.03621959686279297,0.20461368560791016,0.9690341949462891,0.1310710906982422,-0.043720245361328125
422,473271488.0,-1.7538061141967773,-4.8998823165893555,8.37517261505127,-0.03621959686279297,-0.040480613708496094,-0.03621959686279297,0.20461368560791016,0.9690341949462891,0.1310710906982422,-0.043720245361328125
423,473271520.0,-1.6903572082519531,-5.411060333251953,8.181236267089844,-0.03621959686279297,-0.040480613708496094,-0.03621959686279297,0.20461368560791016,0.9690341949462891,0.1310710906982422,-0.043720245361328125
424,473271520.0,-1.848379135131836,-5.754638671875,8.047157287597656,-0.03621959686279297,-0.040480613708496094,-0.03621959686279297,0.20461368560791016,0.9690341949462891,0.1310710906982422,-0.043720245361328125
425,473271520.0,-1.6903572082519531,-5.411060333251953,8.181236267089844,-0.03621959686279297,-0.040480613708496094,-0.03621959686279297,0.20461368560791016,0.9690341949462891,0.1310710906982422,-0.043720245361328125
426,473271520.0,-1.848379135131836,-5.754638671875,8.047157287597656,-0.03621959686279297,-0.040480613708496094,-0.03621959686279297,0.20461368560791016,0.9690341949462891,0.1310710906982422,-0.043720245361328125
427,473271552.0,-1.8962650299072266,-6.147299766540527,8.057930946350098,0.5358438491821289,-0.6487655639648438,0.5560846328735352,0.20461368560791016,0.9690341949462891,0.1310710906982422,-0.043720245361328125
428,473271552.0,-1.6137409210205078,-6.598620414733887,8.253064155578613,0.5358438491821289,-0.6487655639648438,0.5560846328735352,0.20461368560791016,0.9690341949462891,0.1310710906982422,-0.043720245361328125
429,473271584.0,-1.4676895141601562,-6.751853942871094,8.599037170410156,1.139866828918457,-0.9459829330444336,1.1334753036499023,0.20461368560791016,0.9690341949462891,0.1310710906982422,-0.043720245361328125
430,473271616.0,-1.5287437438964844,-6.800936698913574,9.043174743652344,1.316706657409668,-1.0386638641357422,1.5425491333007812,0.20461368560791016,0.9690341949462891,0.1310710906982422,-0.043720245361328125
431,473271616.0,-1.5826148986816406,-6.9194536209106445,9.54597282409668,1.316706657409668,-1.0386638641357422,1.5425491333007812,0.20461368560791016,0.9690341949462891,0.1310710906982422,-0.043720245361328125
432,473271744.0,0.34836673736572266,2.0937929153442383,15.115056037902832,2.0368471145629883,1.3273591995239258,2.777228355407715,0.20461368560791016,0.9690341949462891,0.1310710906982422,-0.043720245361328125
433,473271776.0,0.7434215545654297,3.987664222717285,16.05121612548828,1.5840959548950195,1.9633417129516602,2.388395309448242,0.20461368560791016,0.9690341949462891,0.1310710906982422,-0.043720245361328125
434,473271776.0,1.1803770065307617,4.962133407592773,14.906753540039062,1.5840959548950195,1.9633417129516602,2.388395309448242,0.20461368560791016,0.9690341949462891,0.1310710906982422,-0.043720245361328125
435,473271808.0,0.44772911071777344,4.7490434646606445,12.551984786987305,0.6753978729248047,3.005202293395996,1.4519996643066406,0.20461368560791016,0.9690341949462891,0.1310710906982422,-0.043720245361328125
436,473271840.0,0.835601806640625,6.49446964263916,11.951022148132324,-0.011717796325683594,3.3695335388183594,0.8586292266845703,0.20461368560791016,0.9690341949462891,0.1310710906982422,-0.043720245361328125
437,473271840.0,0.8906698226928711,5.75583553314209,11.312947273254395,-0.011717796325683594,3.3695335388183594,0.8586292266845703,0.20461368560791016,0.9690341949462891,0.1310710906982422,-0.043720245361328125
438,473271840.0,0.8906698226928711,5.75583553314209,11.312947273254395,-0.011717796325683594,3.3695335388183594,0.8586292266845703,0.20461368560791016,0.9690341949462891,0.1310710906982422,-0.043720245361328125
439,473271872.0,-0.4022378921508789,5.229095458984375,10.31692886352539,-0.011717796325683594,3.3695335388183594,0.8586292266845703,0.20461368560791016,0.9690341949462891,0.1310710906982422,-0.043720245361328125
440,473271872.0,0.8308124542236328,5.94498348236084,9.228731155395508,-0.011717796325683594,3.3695335388183594,0.8586292266845703,0.20461368560791016,0.9690341949462891,0.1310710906982422,-0.043720245361328125
441,473271872.0,-0.4022378921508789,5.229095458984375,10.31692886352539,-0.011717796325683594,3.3695335388183594,0.8586292266845703,0.20461368560791016,0.9690341949462891,0.1310710906982422,-0.043720245361328125
442,473271872.0,0.8308124542236328,5.94498348236084,9.228731155395508,-0.011717796325683594,3.3695335388183594,0.8586292266845703,0.20461368560791016,0.9690341949462891,0.1310710906982422,-0.043720245361328125
443,473271904.0,0.8655300140380859,5.915055274963379,6.653689384460449,-0.011717796325683594,3.3695335388183594,0.8586292266845703,0.20461368560791016,0.9690341949462891,0.1310710906982422,-0.043720245361328125
444,473271904.0,0.8655300140380859,5.915055274963379,6.653689384460449,-0.011717796325683594,3.3695335388183594,0.8586292266845703,0.20461368560791016,0.9690341949462891,0.1310710906982422,-0.043720245361328125
445,473271936.0,-0.11372756958007812,6.124554634094238,6.37595272064209,-0.011717796325683594,3.3695335388183594,0.8586292266845703,0.20461368560791016,0.9690341949462891,0.1310710906982422,-0.043720245361328125
446,473271936.0,-0.11372756958007812,6.124554634094238,6.37595272064209,-0.011717796325683594,3.3695335388183594,0.8586292266845703,0.20461368560791016,0.9690341949462891,0.1310710906982422,-0.043720245361328125
447,473271936.0,-1.1013660430908203,5.130929946899414,6.343630790710449,-0.011717796325683594,3.3695335388183594,0.8586292266845703,0.20461368560791016,0.9690341949462891,0.1310710906982422,-0.043720245361328125
448,473271968.0,-1.7502145767211914,4.63531494140625,4.642498016357422,0.13103103637695312,2.8539304733276367,-1.8674650192260742,0.20461368560791016,0.9690341949462891,0.1310710906982422,-0.043720245361328125
449,473272000.0,-1.9920358657836914,4.8472089767456055,3.7853479385375977,0.06604766845703125,2.213686943054199,-2.5396671295166016,0.20461368560791016,0.9690341949462891,0.1310710906982422,-0.043720245361328125
450,473272000.0,-1.9357709884643555,3.932596206665039,3.4106435775756836,0.06604766845703125,2.213686943054199,-2.5396671295166016,0.20461368560791016,0.9690341949462891,0.1310710906982422,-0.043720245361328125
451,473272032.0,-2.1153411865234375,2.6420812606811523,2.6073646545410156,0.21199321746826172,1.8387022018432617,-2.825166702270508,0.20461368560791016,0.9690341949462891,0.1310710906982422,-0.043720245361328125
452,473272032.0,-2.820455551147461,1.194742202758789,1.417409896850586,0.21199321746826172,1.8387022018432617,-2.825166702270508,0.20461368560791016,0.9690341949462891,0.1310710906982422,-0.043720245361328125
453,473272064.0,-2.9138317108154297,0.4333629608154297,1.143265724182129,0.21199321746826172,1.8387022018432617,-2.825166702270508,0.20461368560791016,0.9690341949462891,0.1310710906982422,-0.043720245361328125
454,473272096.0,-2.751021385192871,0.35076045989990234,0.8044757843017578,0.21199321746826172,1.8387022018432617,-2.825166702270508,0.20461368560791016,0.9690341949462891,0.1310710906982422,-0.043720245361328125
455,473272096.0,-3.190370559692383,-1.7969026565551758,-0.0011968612670898438,0.21199321746826172,1.8387022018432617,-2.825166702270508,0.20461368560791016,0.9690341949462891,0.1310710906982422,-0.043720245361328125
456,473272128.0,-2.7139101028442383,-2.4146251678466797,1.0762262344360352,0.21199321746826172,1.8387022018432617,-2.825166702270508,0.20461368560791016,0.9690341949462891,0.1310710906982422,-0.043720245361328125
457,473272160.0,-2.1297073364257812,-2.691164016723633,2.0494985580444336,1.2027196884155273,-1.4946107864379883,-3.357815742492676,0.20461368560791016,0.9690341949462891,0.1310710906982422,-0.043720245361328125
458,473272160.0,-2.5774364471435547,-3.925413131713867,2.128509521484375,1.2027196884155273,-1.4946107864379883,-3.357815742492676,0.20461368560791016,0.9690341949462891,0.1310710906982422,-0.043720245361328125
459,473272192.0,-2.7067270278930664,-5.425426483154297,2.4649057388305664,1.034402847290039,-1.8919668197631836,-3.3109426498413086,0.20461368560791016,0.9690341949462891,0.1310710906982422,-0.043720245361328125
460,473272192.0,-1.942953109741211,-7.033181190490723,3.124527931213379,1.034402847290039,-1.8919668197631836,-3.3109426498413086,0.20461368560791016,0.9690341949462891,0.1310710906982422,-0.043720245361328125
461,473272224.0,-1.5778264999389648,-7.000858306884766,4.005620956420898,0.8458452224731445,-2.4778804779052734,-3.0382261276245117,0.20461368560791016,0.9690341949462891,0.1310710906982422,-0.043720245361328125
462,473272256.0,-1.786128044128418,-8.290175437927246,5.542745590209961,0.6807241439819336,-2.607846260070801,-2.6248912811279297,0.20461368560791016,0.9690341949462891,0.1310710906982422,-0.043720245361328125
463,473272256.0,-1.6771888732910156,-9.754274368286133,5.599010467529297,0.6807241439819336,-2.607846260070801,-2.6248912811279297,0.20461368560791016,0.9690341949462891,0.1310710906982422,-0.043720245361328125
464,473272288.0,-1.6963434219360352,-11.049577713012695,5.557110786437988,0.48790550231933594,-2.7569875717163086,-1.7236499786376953,0.20461368560791016,0.9690341949462891,0.1310710906982422,-0.043720245361328125
465,473272320.0,-1.05108642578125,-12.070735931396484,6.5184125900268555,0.4165306091308594,-2.815579414367676,-0.15446758270263672,0.20461368560791016,0.9690341949462891,0.1310710906982422,-0.043720245361328125
466,473272320.0,-1.0103836059570312,-12.397554397583008,7.428236961364746,0.4165306091308594,-2.815579414367676,-0.15446758270263672,0.20461368560791016,0.9690341949462891,0.1310710906982422,-0.043720245361328125
467,473272448.0,-2.470890998840332,-6.56629753112793,13.534834861755371,-0.4165306091308594,-2.8177099227905273,2.1156787872314453,0.20461368560791016,0.9690341949462891,0.1310710906982422,-0.043720245361328125
468,473272448.0,-2.470890998840332,-6.56629753112793,13.534834861755371,-0.4165306091308594,-2.8177099227905273,2.1156787872314453,0.20461368560791016,0.9690341949462891,0.1310710906982422,-0.043720245361328125
469,473272448.0,-2.470890998840332,-6.56629753112793,13.534834861755371,-0.4165306091308594,-2.8177099227905273,2.1156787872314453,0.20461368560791016,0.9690341949462891,0.1310710906982422,-0.043720245361328125
470,473272480.0,-1.8818998336791992,-6.037162780761719,13.789824485778809,-0.4165306091308594,-2.8177099227905273,2.1156787872314453,0.20461368560791016,0.9690341949462891,0.1310710906982422,-0.043720245361328125
471,473272480.0,-0.9253864288330078,-3.9182300567626953,15.030058860778809,-0.4165306091308594,-2.8177099227905273,2.1156787872314453,0.20461368560791016,0.9690341949462891,0.1310710906982422,-0.043720245361328125
472,473272480.0,-1.8818998336791992,-6.037162780761719,13.789824485778809,-0.4165306091308594,-2.8177099227905273,2.1156787872314453,0.20461368560791016,0.9690341949462891,0.1310710906982422,-0.043720245361328125
473,473272480.0,-0.9253864288330078,-3.9182300567626953,15.030058860778809,-0.4165306091308594,-2.8177099227905273,2.1156787872314453,0.20461368560791016,0.9690341949462891,0.1310710906982422,-0.043720245361328125
474,473272480.0,-1.8818998336791992,-6.037162780761719,13.789824485778809,-0.4165306091308594,-2.8177099227905273,2.1156787872314453,0.20461368560791016,0.9690341949462891,0.1310710906982422,-0.043720245361328125
475,473272480.0,-0.9253864288330078,-3.9182300567626953,15.030058860778809,-0.4165306091308594,-2.8177099227905273,2.1156787872314453,0.20461368560791016,0.9690341949462891,0.1310710906982422,-0.043720245361328125
476,473272512.0,-0.14006423950195312,-1.4593095779418945,15.653767585754395,-0.4165306091308594,-2.8177099227905273,2.1156787872314453,0.20461368560791016,0.9690341949462891,0.1310710906982422,-0.043720245361328125
477,473272512.0,-0.12330436706542969,-1.0498886108398438,15.280261039733887,-0.4165306091308594,-2.8177099227905273,2.1156787872314453,0.20461368560791016,0.9690341949462891,0.1310710906982422,-0.043720245361328125
478,473272512.0,-0.14006423950195312,-1.4593095779418945,15.653767585754395,-0.4165306091308594,-2.8177099227905273,2.1156787872314453,0.20461368560791016,0.9690341949462891,0.1310710906982422,-0.043720245361328125
479,473272512.0,-0.12330436706542969,-1.0498886108398438,15.280261039733887,-0.4165306091308594,-2.8177099227905273,2.1156787872314453,0.20461368560791016,0.9690341949462891,0.1310710906982422,-0.043720245361328125
480,473272512.0,-0.14006423950195312,-1.4593095779418945,15.653767585754395,-0.4165306091308594,-2.8177099227905273,2.1156787872314453,0.20461368560791016,0.9690341949462891,0.1310710906982422,-0.043720245361328125
481,473272512.0,-0.12330436706542969,-1.0498886108398438,15.280261039733887,-0.4165306091308594,-2.8177099227905273,2.1156787872314453,0.20461368560791016,0.9690341949462891,0.1310710906982422,-0.043720245361328125
482,473272640.0,0.9229927062988281,-0.9816522598266602,9.40590763092041,-0.08948421478271484,0.8149518966674805,0.6125450134277344,0.20461368560791016,0.9690341949462891,0.1310710906982422,-0.043720245361328125
483,473272672.0,1.045100212097168,-1.5311384201049805,9.010852813720703,-0.4676647186279297,0.7776660919189453,0.45807743072509766,0.20461368560791016,0.9690341949462891,0.1310710906982422,-0.043720245361328125
484,473272672.0,1.1923484802246094,-2.135692596435547,8.612205505371094,-0.4676647186279297,0.7776660919189453,0.45807743072509766,0.20461368560791016,0.9690341949462891,0.1310710906982422,-0.043720245361328125
485,473272704.0,1.0762262344360352,-1.8112688064575195,8.279401779174805,-0.09054946899414062,0.5560846328735352,0.33024120330810547,0.20461368560791016,0.9690341949462891,0.1310710906982422,-0.043720245361328125
486,473272736.0,0.9684839248657227,-1.580221176147461,7.762238502502441,0.16938209533691406,0.461273193359375,0.25140953063964844,0.20461368560791016,0.9690341949462891,0.1310710906982422,-0.043720245361328125
487,473272736.0,0.6608190536499023,-1.3527650833129883,7.721535682678223,0.16938209533691406,0.461273193359375,0.25140953063964844,0.20461368560791016,0.9690341949462891,0.1310710906982422,-0.043720245361328125
488,473272768.0,0.22745609283447266,-1.3683271408081055,8.211164474487305,0.18216514587402344,0.24395275115966797,0.09267997741699219,0.20461368560791016,0.9690341949462891,0.1310710906982422,-0.043720245361328125
489,473272768.0,-0.11133289337158203,-1.295302391052246,8.611008644104004,0.18216514587402344,0.24395275115966797,0.09267997741699219,0.20461368560791016,0.9690341949462891,0.1310710906982422,-0.043720245361328125
490,473272800.0,-0.7697591781616211,-1.701131820678711,8.777410507202148,-0.1491413116455078,0.17044734954833984,-0.12463951110839844,0.20461368560791016,0.9690341949462891,0.1310710906982422,-0.043720245361328125
491,473272832.0,-1.332413673400879,-1.8232393264770508,8.990501403808594,-0.22051620483398438,0.1214437484741211,-0.18536090850830078,0.20461368560791016,0.9690341949462891,0.1310710906982422,-0.043720245361328125
492,473272832.0,-1.4736757278442383,-2.0135841369628906,9.310136795043945,-0.22051620483398438,0.1214437484741211,-0.18536090850830078,0.20461368560791016,0.9690341949462891,0.1310710906982422,-0.043720245361328125
493,473272864.0,-1.4724788665771484,-2.5510988235473633,9.614209175109863,-0.22051620483398438,0.1214437484741211,-0.18536090850830078,0.20461368560791016,0.9690341949462891,0.1310710906982422,-0.043720245361328125
494,473272896.0,-1.6496543884277344,-3.0718536376953125,9.431047439575195,-0.22051620483398438,0.1214437484741211,-0.18536090850830078,0.20461368560791016,0.9690341949462891,0.1310710906982422,-0.043720245361328125
495,473272896.0,-1.7765512466430664,-3.1724138259887695,9.622589111328125,-0.22051620483398438,0.1214437484741211,-0.18536090850830078,0.20461368560791016,0.9690341949462891,0.1310710906982422,-0.043720245361328125
496,473272928.0,-1.6771888732910156,-3.119739532470703,9.64413833618164,-0.22051620483398438,0.1214437484741211,-0.18536090850830078,0.20461368560791016,0.9690341949462891,0.1310710906982422,-0.043720245361328125
497,473272928.0,-1.7717628479003906,-3.372335433959961,9.493298530578613,-0.22051620483398438,0.1214437484741211,-0.18536090850830078,0.20461368560791016,0.9690341949462891,0.1310710906982422,-0.043720245361328125
498,473272960.0,-1.8160572052001953,-3.595003128051758,9.401119232177734,-0.22051620483398438,0.1214437484741211,-0.18536090850830078,0.20461368560791016,0.9690341949462891,0.1310710906982422,-0.043720245361328125
499,473272992.0,-1.786128044128418,-3.252621650695801,9.217957496643066,-0.22051620483398438,0.1214437484741211,-0.18536090850830078,0.20461368560791016,0.9690341949462891,0.1310710906982422,-0.043720245361328125
500,473272992.0,-1.6460638046264648,-3.0969934463500977,8.99648666381836,-0.22051620483398438,0.1214437484741211,-0.18536090850830078,0.20461368560791016,0.9690341949462891,0.1310710906982422,-0.043720245361328125
501,473273024.0,-1.6149377822875977,-3.1987504959106445,8.857619285583496,-0.22051620483398438,0.1214437484741211,-0.18536090850830078,0.20461368560791016,0.9690341949462891,0.1310710906982422,-0.043720245361328125
502,473273056.0,-1.544306755065918,-3.249030113220215,9.039584159851074,0.09054946899414062,0.053264617919921875,-0.04367637634277344,0.20461368560791016,0.9690341949462891,0.1310710906982422,-0.043720245361328125
503,473273056.0,-1.510787010192871,-2.850383758544922,8.85642147064209,0.09054946899414062,0.053264617919921875,-0.04367637634277344,0.20461368560791016,0.9690341949462891,0.1310710906982422,-0.043720245361328125
504,473273088.0,-1.7107086181640625,-2.8001041412353516,8.467351913452148,-0.009587287902832031,-0.0010652542114257812,-0.04793834686279297,0.20461368560791016,0.9690341949462891,0.1310710906982422,-0.043720245361328125
505,473273088.0,-1.7693681716918945,-2.836017608642578,8.542771339416504,-0.009587287902832031,-0.0010652542114257812,-0.04793834686279297,0.20461368560791016,0.9690341949462891,0.1310710906982422,-0.043720245361328125
506,473273120.0,-1.6376838684082031,-2.836017608642578,8.745087623596191,0.02769756317138672,-0.08948421478271484,-0.08309268951416016,0.20461368560791016,0.9690341949462891,0.1310710906982422,-0.043720245361328125
507,473273152.0,-1.606557846069336,-2.9234085083007812,8.869589805603027,0.02769756317138672,-0.08948421478271484,-0.08309268951416016,0.20461368560791016,0.9690341949462891,0.1310710906982422,-0.043720245361328125
508,473273152.0,-1.5921926498413086,-2.7222900390625,8.826493263244629,0.02769756317138672,-0.08948421478271484,-0.08309268951416016,0.20461368560791016,0.9690341949462891,0.1310710906982422,-0.043720245361328125
509,473273184.0,-1.4617042541503906,-2.820455551147461,8.808536529541016,0.02769756317138672,-0.08948421478271484,-0.08309268951416016,0.20461368560791016,0.9690341949462891,0.1310710906982422,-0.043720245361328125
510,473273216.0,-1.2426280975341797,-2.932986259460449,9.23711109161377,0.02769756317138672,-0.08948421478271484,-0.08309268951416016,0.20461368560791016,0.9690341949462891,0.1310710906982422,-0.043720245361328125
511,473273216.0,-1.194742202758789,-2.8228492736816406,9.174860000610352,0.02769756317138672,-0.08948421478271484,-0.08309268951416016,0.20461368560791016,0.9690341949462891,0.1310710906982422,-0.043720245361328125
512,473273248.0,-1.2031221389770508,-2.770174980163574,9.240702629089355,0.0809621810913086,-0.17044734954833984,-0.08841896057128906,0.20461368560791016,0.9690341949462891,0.1310710906982422,-0.043720245361328125
513,473273248.0,-1.2450227737426758,-2.8372154235839844,9.329291343688965,0.0809621810913086,-0.17044734954833984,-0.08841896057128906,0.20461368560791016,0.9690341949462891,0.1310710906982422,-0.043720245361328125
514,473273280.0,-1.1672086715698242,-2.8611574172973633,9.519636154174805,0.00852203369140625,-0.14701080322265625,-0.11398601531982422,0.20461368560791016,0.9690341949462891,0.1310710906982422,-0.043720245361328125
515,473273312.0,-1.1672086715698242,-2.7629928588867188,9.419075965881348,0.020239830017089844,-0.1214437484741211,-0.1438150405883789,0.20461368560791016,0.9690341949462891,0.1310710906982422,-0.043720245361328125
516,473273312.0,-1.2031221389770508,-2.754612922668457,9.350839614868164,0.020239830017089844,-0.1214437484741211,-0.1438150405883789,0.20461368560791016,0.9690341949462891,0.1310710906982422,-0.043720245361328125
517,473273440.0,-1.0690431594848633,-3.063473701477051,9.421470642089844,0.023435592651367188,-0.10439872741699219,-0.15340232849121094,0.16434669494628906,0.9663152694702148,0.19654273986816406,-0.023651123046875
518,473273440.0,-1.0690431594848633,-3.063473701477051,9.421470642089844,0.023435592651367188,-0.10439872741699219,-0.15340232849121094,0.16434669494628906,0.9663152694702148,0.19654273986816406,-0.023651123046875
519,473273472.0,-0.9924259185791016,-3.0431222915649414,9.443018913269043,0.023435592651367188,-0.10439872741699219,-0.15340232849121094,0.16434669494628906,0.9663152694702148,0.19654273986816406,-0.023651123046875
520,473273472.0,-0.9792575836181641,-3.1472740173339844,9.429850578308105,0.023435592651367188,-0.10439872741699219,-0.15340232849121094,0.16434669494628906,0.9663152694702148,0.19654273986816406,-0.023651123046875
521,473273472.0,-0.9924259185791016,-3.0431222915649414,9.443018913269043,0.023435592651367188,-0.10439872741699219,-0.15340232849121094,0.16434669494628906,0.9663152694702148,0.19654273986816406,-0.023651123046875
522,473273472.0,-0.9792575836181641,-3.1472740173339844,9.429850578308105,0.023435592651367188,-0.10439872741699219,-0.15340232849121094,0.16434669494628906,0.9663152694702148,0.19654273986816406,-0.023651123046875
523,473273504.0,-0.9996089935302734,-3.098191261291504,9.528016090393066,0.023435592651367188,-0.10439872741699219,-0.15340232849121094,0.16434669494628906,0.9663152694702148,0.19654273986816406,-0.023651123046875
524,473273504.0,-0.9996089935302734,-3.098191261291504,9.528016090393066,0.023435592651367188,-0.10439872741699219,-0.15340232849121094,0.16434669494628906,0.9663152694702148,0.19654273986816406,-0.023651123046875
525,473273536.0,-1.054677963256836,-3.1376962661743164,9.61660385131836,-0.057525634765625,0.04900360107421875,-0.042611122131347656,0.16434669494628906,0.9663152694702148,0.19654273986816406,-0.023651123046875
526,473273536.0,-1.054677963256836,-3.1376962661743164,9.61660385131836,-0.057525634765625,0.04900360107421875,-0.042611122131347656,0.16434669494628906,0.9663152694702148,0.19654273986816406,-0.023651123046875
527,473273536.0,-0.9648923873901367,-3.1341047286987305,9.498086929321289,-0.057525634765625,0.04900360107421875,-0.042611122131347656,0.16434669494628906,0.9663152694702148,0.19654273986816406,-0.023651123046875
528,473273568.0,-0.9648923873901367,-3.122134208679199,9.440624237060547,-0.04367637634277344,0.07137489318847656,-0.020239830017089844,0.16434669494628906,0.9663152694702148,0.19654273986816406,-0.023651123046875
529,473273568.0,-1.0606632232666016,-3.1688222885131836,9.449005126953125,-0.04367637634277344,0.07137489318847656,-0.020239830017089844,0.16434669494628906,0.9663152694702148,0.19654273986816406,-0.023651123046875
530,473273600.0,-1.1504487991333008,-3.1760053634643555,9.359219551086426,-0.04474163055419922,0.07776641845703125,0.0063915252685546875,0.16434669494628906,0.9663152694702148,0.19654273986816406,-0.023651123046875
531,473273632.0,-1.0522832870483398,-3.1293163299560547,9.40471076965332,-0.0692434310913086,0.08522319793701172,0.012783050537109375,0.16434669494628906,0.9663152694702148,0.19654273986816406,-0.023651123046875
532,473273632.0,-1.1001691818237305,-3.183187484741211,9.21436595916748,-0.0692434310913086,0.08522319793701172,0.012783050537109375,0.16434669494628906,0.9663152694702148,0.19654273986816406,-0.023651123046875
533,473273728.0,-1.200728416442871,-2.9916458129882812,8.916278839111328,0.004261016845703125,0.054329872131347656,0.042611122131347656,0.16434669494628906,0.9663152694702148,0.19654273986816406,-0.023651123046875
534,473273728.0,-1.200728416442871,-2.9916458129882812,8.916278839111328,0.004261016845703125,0.054329872131347656,0.042611122131347656,0.16434669494628906,0.9663152694702148,0.19654273986816406,-0.023651123046875
535,473273760.0,-1.270162582397461,-2.9844627380371094,9.107820510864258,0.004261016845703125,0.054329872131347656,0.042611122131347656,0.16434669494628906,0.9663152694702148,0.19654273986816406,-0.023651123046875
536,473273760.0,-1.270162582397461,-2.9844627380371094,9.107820510864258,0.004261016845703125,0.054329872131347656,0.042611122131347656,0.16434669494628906,0.9663152694702148,0.19654273986816406,-0.023651123046875
537,473273792.0,-1.166010856628418,-3.002420425415039,9.057540893554688,0.004261016845703125,0.054329872131347656,0.042611122131347656,0.16434669494628906,0.9663152694702148,0.19654273986816406,-0.023651123046875
538,473273792.0,-1.2557964324951172,-2.9437599182128906,9.012049674987793,0.004261016845703125,0.054329872131347656,0.042611122131347656,0.16434669494628906,0.9663152694702148,0.19654273986816406,-0.023651123046875
539,473273792.0,-1.166010856628418,-3.002420425415039,9.057540893554688,0.004261016845703125,0.054329872131347656,0.042611122131347656,0.16434669494628906,0.9663152694702148,0.19654273986816406,-0.023651123046875
540,473273792.0,-1.2557964324951172,-2.9437599182128906,9.012049674987793,0.004261016845703125,0.054329872131347656,0.042611122131347656,0.16434669494628906,0.9663152694702148,0.19654273986816406,-0.023651123046875
541,473273824.0,-1.204319953918457,-2.9198179244995117,9.06592082977295,0.004261016845703125,0.054329872131347656,0.042611122131347656,0.16434669494628906,0.9663152694702148,0.19654273986816406,-0.023651123046875
542,473273824.0,-1.1528425216674805,-2.9856605529785156,9.103032112121582,0.004261016845703125,0.054329872131347656,0.042611122131347656,0.16434669494628906,0.9663152694702148,0.19654273986816406,-0.023651123046875
543,473273824.0,-1.204319953918457,-2.9198179244995117,9.06592082977295,0.004261016845703125,0.054329872131347656,0.042611122131347656,0.16434669494628906,0.9663152694702148,0.19654273986816406,-0.023651123046875
544,473273824.0,-1.1528425216674805,-2.9856605529785156,9.103032112121582,0.004261016845703125,0.054329872131347656,0.042611122131347656,0.16434669494628906,0.9663152694702148,0.19654273986816406,-0.023651123046875
545,473273856.0,-1.1288995742797852,-2.8874950408935547,9.141340255737305,0.004261016845703125,0.054329872131347656,0.042611122131347656,0.16434669494628906,0.9663152694702148,0.19654273986816406,-0.023651123046875
546,473273888.0,-1.0103836059570312,-2.9234085083007812,9.130566596984863,0.004261016845703125,0.054329872131347656,0.042611122131347656,0.16434669494628906,0.9663152694702148,0.19654273986816406,-0.023651123046875
547,473273888.0,-1.048691749572754,-2.8084840774536133,9.219154357910156,0.004261016845703125,0.054329872131347656,0.042611122131347656,0.16434669494628906,0.9663152694702148,0.19654273986816406,-0.023651123046875
548,473273920.0,-1.1181259155273438,-2.9030580520629883,9.289785385131836,0.004261016845703125,0.054329872131347656,0.042611122131347656,0.16434669494628906,0.9663152694702148,0.19654273986816406,-0.023651123046875
549,473273952.0,-1.1145343780517578,-2.875523567199707,9.23471736907959,0.004261016845703125,0.054329872131347656,0.042611122131347656,0.1655120849609375,0.9665737152099609,0.19360828399658203,-0.02835559844970703
550,473274048.0,-1.1205196380615234,-2.942563056945801,9.246688842773438,0.0170440673828125,0.021305084228515625,-0.022370338439941406,0.1660299301147461,0.9666604995727539,0.19309043884277344,-0.027923583984375
551,473274048.0,-1.1205196380615234,-2.942563056945801,9.246688842773438,0.0170440673828125,0.021305084228515625,-0.022370338439941406,0.1660299301147461,0.9666604995727539,0.19309043884277344,-0.027923583984375
552,473274080.0,-1.1253089904785156,-2.869537353515625,9.222745895385742,-0.01810932159423828,0.021305084228515625,-0.009587287902832031,0.1660299301147461,0.9666604995727539,0.19309043884277344,-0.027923583984375
553,473274080.0,-1.1253089904785156,-2.869537353515625,9.222745895385742,-0.01810932159423828,0.021305084228515625,-0.009587287902832031,0.1660299301147461,0.9666604995727539,0.19309043884277344,-0.027923583984375
554,473274112.0,-1.1863622665405273,-2.8946781158447266,9.204788208007812,-0.005326271057128906,0.0031957626342773438,-0.033023834228515625,0.1660299301147461,0.9666604995727539,0.19309043884277344,-0.027923583984375
555,473274112.0,-1.230656623840332,-2.8874950408935547,9.109017372131348,-0.005326271057128906,0.0031957626342773438,-0.033023834228515625,0.1660299301147461,0.9666604995727539,0.19309043884277344,-0.027923583984375
556,473274112.0,-1.1863622665405273,-2.8946781158447266,9.204788208007812,-0.005326271057128906,0.0031957626342773438,-0.033023834228515625,0.1660299301147461,0.9666604995727539,0.19309043884277344,-0.027923583984375
557,473274112.0,-1.230656623840332,-2.8874950408935547,9.109017372131348,-0.005326271057128906,0.0031957626342773438,-0.033023834228515625,0.1660299301147461,0.9666604995727539,0.19309043884277344,-0.027923583984375
558,473274144.0,-1.1384773254394531,-2.838412284851074,9.053949356079102,0.00852203369140625,-0.007456779479980469,-0.030893325805664062,0.1660299301147461,0.9666604995727539,0.19309043884277344,-0.027923583984375
559,473274144.0,-1.1384773254394531,-2.838412284851074,9.053949356079102,0.00852203369140625,-0.007456779479980469,-0.030893325805664062,0.1660299301147461,0.9666604995727539,0.19309043884277344,-0.027923583984375
560,473274144.0,-1.142068862915039,-2.9030580520629883,9.067117691040039,0.00852203369140625,-0.007456779479980469,-0.030893325805664062,0.1660299301147461,0.9666604995727539,0.19309043884277344,-0.027923583984375
561,473274176.0,-1.142068862915039,-2.9246063232421875,9.0754976272583,0.00852203369140625,-0.007456779479980469,-0.030893325805664062,0.1660299301147461,0.9666604995727539,0.19309043884277344,-0.027923583984375
562,473274208.0,-1.0893945693969727,-2.853975296020508,9.099440574645996,0.00852203369140625,-0.007456779479980469,-0.030893325805664062,0.1660299301147461,0.9666604995727539,0.19309043884277344,-0.027923583984375
563,473274208.0,-0.9936237335205078,-2.9210147857666016,9.103032112121582,0.00852203369140625,-0.007456779479980469,-0.030893325805664062,0.1660299301147461,0.9666604995727539,0.19309043884277344,-0.027923583984375
