,timestamp,accel_x,accel_y,accel_z,gyro_x,gyro_y,gyro_z,ori_scalar,ori_x,ori_y,ori_z
0,274635936.0,10.351646423339844,-1.6173324584960938,2.0231618881225586,0.3568744659423828,-0.2929563522338867,-0.678593635559082,-0.16710948944091797,0.9586334228515625,0.22701263427734375,-0.03970623016357422
1,274635936.0,10.351646423339844,-1.6173324584960938,2.0231618881225586,0.3568744659423828,-0.2929563522338867,-0.678593635559082,-0.16710948944091797,0.9586334228515625,0.22701263427734375,-0.03970623016357422
2,274635968.0,11.029226303100586,-0.956512451171875,2.135692596435547,-0.10865974426269531,-0.20347118377685547,-0.5369091033935547,-0.16710948944091797,0.9586334228515625,0.22701263427734375,-0.03970623016357422
3,274635968.0,11.029226303100586,-0.956512451171875,2.135692596435547,-0.10865974426269531,-0.20347118377685547,-0.5369091033935547,-0.16710948944091797,0.9586334228515625,0.22701263427734375,-0.03970623016357422
4,274636000.0,10.393546104431152,-1.9597129821777344,2.0937929153442383,-0.7105522155761719,-0.03621959686279297,-0.06711292266845703,-0.16710948944091797,0.9586334228515625,0.22701263427734375,-0.03970623016357422
5,274636000.0,9.626180648803711,-3.087416648864746,2.0315418243408203,-0.7105522155761719,-0.03621959686279297,-0.06711292266845703,-0.16710948944091797,0.9586334228515625,0.22701263427734375,-0.03970623016357422
6,274636000.0,10.393546104431152,-1.9597129821777344,2.0937929153442383,-0.7105522155761719,-0.03621959686279297,-0.06711292266845703,-0.16710948944091797,0.9586334228515625,0.22701263427734375,-0.03970623016357422
7,274636000.0,9.626180648803711,-3.087416648864746,2.0315418243408203,-0.7105522155761719,-0.03621959686279297,-0.06711292266845703,-0.16710948944091797,0.9586334228515625,0.22701263427734375,-0.03970623016357422
8,274636032.0,10.103838920593262,-2.660038948059082,2.4649057388305664,-0.3877677917480469,-0.2759113311767578,0.1619243621826172,-0.16710948944091797,0.9586334228515625,0.22701263427734375,-0.03970623016357422
9,274636032.0,10.103838920593262,-2.660038948059082,2.4649057388305664,-0.3877677917480469,-0.2759113311767578,0.1619243621826172,-0.16710948944091797,0.9586334228515625,0.22701263427734375,-0.03970623016357422
10,274636160.0,9.59505558013916,-0.9086265563964844,2.288926124572754,-0.3877677917480469,-0.2759113311767578,0.1619243621826172,-0.17902183532714844,0.9537563323974609,0.23879432678222656,-0.03590869903564453
11,274636160.0,9.377176284790039,-0.9062328338623047,2.2637863159179688,-0.3877677917480469,-0.2759113311767578,0.1619243621826172,-0.17902183532714844,0.9537563323974609,0.23879432678222656,-0.03590869903564453
12,274636192.0,9.937437057495117,-1.1911516189575195,1.7909173965454102,-0.3877677917480469,-0.2759113311767578,0.1619243621826172,-0.17902183532714844,0.9537563323974609,0.23879432678222656,-0.03590869903564453
13,274636192.0,10.23791790008545,-1.6472606658935547,1.391073226928711,-0.3877677917480469,-0.2759113311767578,0.1619243621826172,-0.17902183532714844,0.9537563323974609,0.23879432678222656,-0.03590869903564453
14,274636224.0,9.833285331726074,-1.2414312362670898,1.6783857345581055,-0.3877677917480469,-0.2759113311767578,0.1619243621826172,-0.17902183532714844,0.9537563323974609,0.23879432678222656,-0.03590869903564453
15,274636256.0,9.566324234008789,-0.9601039886474609,1.9513330459594727,-0.022370338439941406,0.0916147232055664,0.14807605743408203,-0.17902183532714844,0.9537563323974609,0.23879432678222656,-0.03590869903564453
16,274636480.0,9.408302307128906,-1.9214048385620117,1.7250747680664062,0.18749141693115234,0.005326271057128906,0.0862884521484375,-0.17694950103759766,0.6806068420410156,0.32636260986328125,0.6316652297973633
17,274636768.0,9.458581924438477,-2.0315418243408203,1.693948745727539,0.18749141693115234,0.005326271057128906,0.0862884521484375,-0.17841720581054688,0.6801319122314453,0.32839107513427734,0.6307153701782227
18,274636800.0,9.605829238891602,-1.9285879135131836,1.7131032943725586,0.18749141693115234,0.005326271057128906,0.0862884521484375,-0.17841720581054688,0.6801319122314453,0.32839107513427734,0.6307153701782227
19,274636800.0,9.657306671142578,-1.9297847747802734,1.7154970169067383,0.18749141693115234,0.005326271057128906,0.0862884521484375,-0.17841720581054688,0.6801319122314453,0.32839107513427734,0.6307153701782227
20,274636832.0,9.460975646972656,-1.9441509246826172,1.5886011123657227,0.18749141693115234,0.005326271057128906,0.0862884521484375,-0.17841720581054688,0.6801319122314453,0.32839107513427734,0.6307153701782227
21,274636832.0,9.401119232177734,-1.978867530822754,1.6759920120239258,0.18749141693115234,0.005326271057128906,0.0862884521484375,-0.17841720581054688,0.6801319122314453,0.32839107513427734,0.6307153701782227
22,274637056.0,9.602238655090332,-2.121326446533203,1.8603506088256836,-0.07244014739990234,-0.04367637634277344,0.04793834686279297,-0.17181396484375,0.6782760620117188,0.33344078063964844,0.6318807601928711
23,274637088.0,9.840468406677246,-2.0494985580444336,1.8124656677246094,-0.07244014739990234,-0.04367637634277344,0.04793834686279297,-0.17181396484375,0.6782760620117188,0.33344078063964844,0.6318807601928711
24,274637088.0,9.97454833984375,-2.0171756744384766,1.7047233581542969,-0.07244014739990234,-0.04367637634277344,0.04793834686279297,-0.17181396484375,0.6782760620117188,0.33344078063964844,0.6318807601928711
25,274637120.0,9.797371864318848,-1.916616439819336,1.6795835494995117,-0.07244014739990234,-0.04367637634277344,0.04793834686279297,-0.17181396484375,0.6782760620117188,0.33344078063964844,0.6318807601928711
26,274637152.0,9.483721733093262,-2.0195703506469727,1.6137409210205078,-0.23862648010253906,0.040480613708496094,0.10865974426269531,-0.1597299575805664,0.6776285171508789,0.33417510986328125,0.6353340148925781
27,274637248.0,8.681639671325684,-2.4900455474853516,1.7478199005126953,0.040480613708496094,-0.02982807159423828,0.14594554901123047,-0.1537303924560547,0.6763772964477539,0.3347358703613281,0.6377935409545898
28,274637280.0,9.034794807434082,-2.3416004180908203,1.6448659896850586,0.040480613708496094,-0.02982807159423828,0.14594554901123047,-0.1537303924560547,0.6763772964477539,0.3347358703613281,0.6377935409545898
29,274637312.0,9.21436595916748,-2.324840545654297,1.599374771118164,0.040480613708496094,-0.02982807159423828,0.14594554901123047,-0.1537303924560547,0.6763772964477539,0.3347358703613281,0.6377935409545898
30,274637312.0,9.299362182617188,-2.540325164794922,1.7047233581542969,0.040480613708496094,-0.02982807159423828,0.14594554901123047,-0.1537303924560547,0.6763772964477539,0.3347358703613281,0.6377935409545898
31,274637344.0,9.703994750976562,-2.6085615158081055,1.6795835494995117,0.06711292266845703,-0.1555328369140625,0.1906881332397461,-0.15351486206054688,0.6670980453491211,0.3471221923828125,0.6410303115844727
32,274637472.0,8.942615509033203,-2.3451919555664062,1.599374771118164,-0.0916147232055664,-0.08522319793701172,0.05646038055419922,-0.1521768569946289,0.6629981994628906,0.3509635925292969,0.6434907913208008
33,274637472.0,8.747482299804688,-2.405048370361328,1.5957832336425781,-0.0916147232055664,-0.08522319793701172,0.05646038055419922,-0.1521768569946289,0.6629981994628906,0.3509635925292969,0.6434907913208008
34,274637504.0,9.298165321350098,-2.164423942565918,1.4700841903686523,-0.0916147232055664,-0.08522319793701172,0.05646038055419922,-0.1521768569946289,0.6629981994628906,0.3509635925292969,0.6434907913208008
35,274637536.0,9.724346160888672,-2.1811838150024414,1.2522048950195312,-0.0916147232055664,-0.08522319793701172,0.05646038055419922,-0.1521768569946289,0.6629981994628906,0.3509635925292969,0.6434907913208008
36,274637536.0,9.743500709533691,-2.3092775344848633,1.289316177368164,-0.0916147232055664,-0.08522319793701172,0.05646038055419922,-0.1521768569946289,0.6629981994628906,0.3509635925292969,0.6434907913208008
37,274637568.0,9.620195388793945,-2.288926124572754,1.4066362380981445,-0.00852203369140625,-0.022370338439941406,-0.2024059295654297,-0.1521768569946289,0.6629981994628906,0.3509635925292969,0.6434907913208008
38,274637568.0,9.462173461914062,-2.322445869445801,1.2545995712280273,-0.00852203369140625,-0.022370338439941406,-0.2024059295654297,-0.1521768569946289,0.6629981994628906,0.3509635925292969,0.6434907913208008
39,274637600.0,9.372387886047363,-2.3607540130615234,1.1827716827392578,-0.1502065658569336,-0.07030868530273438,-0.0980072021484375,-0.1521768569946289,0.6629981994628906,0.3509635925292969,0.6434907913208008
40,274637632.0,9.517241477966309,-2.407443046569824,1.168405532836914,-0.16831684112548828,-0.09054946899414062,-0.02769756317138672,-0.1521768569946289,0.6629981994628906,0.3509635925292969,0.6434907913208008
41,274637632.0,9.671671867370605,-2.316460609436035,1.2210798263549805,-0.16831684112548828,-0.09054946899414062,-0.02769756317138672,-0.1521768569946289,0.6629981994628906,0.3509635925292969,0.6434907913208008
42,274637664.0,9.538789749145508,-2.187169075012207,1.1815738677978516,-0.16831684112548828,-0.09054946899414062,-0.02769756317138672,-0.1521768569946289,0.6629981994628906,0.3509635925292969,0.6434907913208008
43,274637696.0,9.319713592529297,-2.160832405090332,1.1384773254394531,-0.16831684112548828,-0.09054946899414062,-0.02769756317138672,-0.1521768569946289,0.6629981994628906,0.3509635925292969,0.6434907913208008
44,274637696.0,9.460975646972656,-2.2434349060058594,1.1672086715698242,-0.16831684112548828,-0.09054946899414062,-0.02769756317138672,-0.1521768569946289,0.6629981994628906,0.3509635925292969,0.6434907913208008
45,274637728.0,9.568717956542969,-2.2111120223999023,1.2162914276123047,-0.16831684112548828,-0.09054946899414062,-0.02769756317138672,-0.1521768569946289,0.6629981994628906,0.3509635925292969,0.6434907913208008
46,274637728.0,9.227534294128418,-2.124917984008789,1.2881193161010742,-0.16831684112548828,-0.09054946899414062,-0.02769756317138672,-0.1521768569946289,0.6629981994628906,0.3509635925292969,0.6434907913208008
47,274637760.0,8.971346855163574,-2.071046829223633,1.3072738647460938,-0.16831684112548828,-0.09054946899414062,-0.02769756317138672,-0.1521768569946289,0.6629981994628906,0.3509635925292969,0.6434907913208008
48,274637760.0,8.971346855163574,-2.071046829223633,1.3072738647460938,-0.16831684112548828,-0.09054946899414062,-0.02769756317138672,-0.1521768569946289,0.6629981994628906,0.3509635925292969,0.6434907913208008
49,274637792.0,9.123383522033691,-2.29251766204834,1.3048791885375977,-0.16831684112548828,-0.09054946899414062,-0.02769756317138672,-0.1521768569946289,0.6629981994628906,0.3509635925292969,0.6434907913208008
50,274637792.0,9.431047439575195,-2.470890998840332,1.2905139923095703,-0.16831684112548828,-0.09054946899414062,-0.02769756317138672,-0.1521768569946289,0.6629981994628906,0.3509635925292969,0.6434907913208008
51,274637792.0,9.123383522033691,-2.29251766204834,1.3048791885375977,-0.16831684112548828,-0.09054946899414062,-0.02769756317138672,-0.1521768569946289,0.6629981994628906,0.3509635925292969,0.6434907913208008
52,274637792.0,9.431047439575195,-2.470890998840332,1.2905139923095703,-0.16831684112548828,-0.09054946899414062,-0.02769756317138672,-0.1521768569946289,0.6629981994628906,0.3509635925292969,0.6434907913208008
53,274637824.0,9.629772186279297,-2.467299461364746,1.3048791885375977,-0.16831684112548828,-0.09054946899414062,-0.02769756317138672,-0.1521768569946289,0.6629981994628906,0.3509635925292969,0.6434907913208008
54,274637824.0,9.833285331726074,-2.4301881790161133,1.2857246398925781,-0.16831684112548828,-0.09054946899414062,-0.02769756317138672,-0.1521768569946289,0.6629981994628906,0.3509635925292969,0.6434907913208008
55,274637824.0,9.629772186279297,-2.467299461364746,1.3048791885375977,-0.16831684112548828,-0.09054946899414062,-0.02769756317138672,-0.1521768569946289,0.6629981994628906,0.3509635925292969,0.6434907913208008
56,274637824.0,9.833285331726074,-2.4301881790161133,1.2857246398925781,-0.16831684112548828,-0.09054946899414062,-0.02769756317138672,-0.1521768569946289,0.6629981994628906,0.3509635925292969,0.6434907913208008
57,274637856.0,9.963773727416992,-2.4876508712768555,1.2881193161010742,-0.07030868530273438,-0.0063915252685546875,0.0,-0.1521768569946289,0.6629981994628906,0.3509635925292969,0.6434907913208008
58,274637888.0,9.943422317504883,-2.53314208984375,1.289316177368164,-0.033023834228515625,0.011717796325683594,0.022370338439941406,-0.1521768569946289,0.6629981994628906,0.3509635925292969,0.6434907913208008
59,274637888.0,9.839271545410156,-2.5091991424560547,1.3072738647460938,-0.033023834228515625,0.011717796325683594,0.022370338439941406,-0.1521768569946289,0.6629981994628906,0.3509635925292969,0.6434907913208008
60,274637920.0,9.720754623413086,-2.3990631103515625,1.3671302795410156,-0.024501800537109375,0.06498241424560547,0.031958580017089844,-0.1521768569946289,0.6629981994628906,0.3509635925292969,0.6434907913208008
61,274637952.0,9.362811088562012,-2.3320226669311523,1.4473390579223633,-0.07137489318847656,0.11292076110839844,0.052199363708496094,-0.1521768569946289,0.6629981994628906,0.3509635925292969,0.6434907913208008
62,274637952.0,8.991698265075684,-2.415822982788086,1.5490951538085938,-0.07137489318847656,0.11292076110839844,0.052199363708496094,-0.1521768569946289,0.6629981994628906,0.3509635925292969,0.6434907913208008
63,274637984.0,9.171268463134766,-2.496030807495117,1.4940271377563477,-0.12250900268554688,0.041545867919921875,0.07350540161132812,-0.1521768569946289,0.6629981994628906,0.3509635925292969,0.6434907913208008
64,274637984.0,9.472947120666504,-2.5786333084106445,1.4341697692871094,-0.12250900268554688,0.041545867919921875,0.07350540161132812,-0.1521768569946289,0.6629981994628906,0.3509635925292969,0.6434907913208008
65,274638016.0,9.54716968536377,-2.625321388244629,1.667612075805664,-0.04367637634277344,0.06711292266845703,0.10013771057128906,-0.1521768569946289,0.6629981994628906,0.3509635925292969,0.6434907913208008
66,274638048.0,9.71476936340332,-2.4792709350585938,1.7190885543823242,-0.04367637634277344,0.06711292266845703,0.10013771057128906,-0.1521768569946289,0.6629981994628906,0.3509635925292969,0.6434907913208008
67,274638048.0,9.676461219787598,-2.528353691101074,1.7119054794311523,-0.04367637634277344,0.06711292266845703,0.10013771057128906,-0.1521768569946289,0.6629981994628906,0.3509635925292969,0.6434907913208008
68,274638080.0,9.531606674194336,-2.5738449096679688,1.763382911682129,-0.04367637634277344,0.06711292266845703,0.10013771057128906,-0.1521768569946289,0.6629981994628906,0.3509635925292969,0.6434907913208008
69,274638112.0,9.449005126953125,-2.7043323516845703,1.8256340026855469,-0.04367637634277344,0.06711292266845703,0.10013771057128906,-0.1521768569946289,0.6629981994628906,0.3509635925292969,0.6434907913208008
70,274638112.0,9.592660903930664,-2.6744041442871094,1.7849311828613281,-0.04367637634277344,0.06711292266845703,0.10013771057128906,-0.1521768569946289,0.6629981994628906,0.3509635925292969,0.6434907913208008
71,274638144.0,9.68484115600586,-2.540325164794922,1.6819772720336914,0.00852203369140625,0.10013771057128906,0.13103103637695312,-0.1521768569946289,0.6629981994628906,0.3509635925292969,0.6434907913208008
72,274638144.0,9.369993209838867,-2.5463104248046875,1.7346515655517578,0.00852203369140625,0.10013771057128906,0.13103103637695312,-0.1521768569946289,0.6629981994628906,0.3509635925292969,0.6434907913208008
73,274638176.0,9.107820510864258,-2.6432790756225586,1.6819772720336914,-0.0862884521484375,0.08522319793701172,0.13955307006835938,-0.1521768569946289,0.6629981994628906,0.3509635925292969,0.6434907913208008
74,274638208.0,9.267040252685547,-2.625321388244629,1.4509296417236328,-0.030893325805664062,0.06817817687988281,0.14807605743408203,-0.1521768569946289,0.6629981994628906,0.3509635925292969,0.6434907913208008
75,274638208.0,9.35443115234375,-2.632504463195801,1.4712810516357422,-0.030893325805664062,0.06817817687988281,0.14807605743408203,-0.1521768569946289,0.6629981994628906,0.3509635925292969,0.6434907913208008
76,274638240.0,9.198802947998047,-2.5558881759643555,1.4066362380981445,0.022370338439941406,0.09907245635986328,0.14807605743408203,-0.1521768569946289,0.6629981994628906,0.3509635925292969,0.6434907913208008
77,274638272.0,9.149720191955566,-2.4900455474853516,1.4437475204467773,0.022370338439941406,0.09907245635986328,0.14807605743408203,-0.1521768569946289,0.6629981994628906,0.3509635925292969,0.6434907913208008
78,274638272.0,9.183239936828613,-2.3451919555664062,1.3336105346679688,0.022370338439941406,0.09907245635986328,0.14807605743408203,-0.1521768569946289,0.6629981994628906,0.3509635925292969,0.6434907913208008
79,274638272.0,9.149720191955566,-2.4900455474853516,1.4437475204467773,0.022370338439941406,0.09907245635986328,0.14807605743408203,-0.1521768569946289,0.6629981994628906,0.3509635925292969,0.6434907913208008
80,274638272.0,9.183239936828613,-2.3451919555664062,1.3336105346679688,0.022370338439941406,0.09907245635986328,0.14807605743408203,-0.1521768569946289,0.6629981994628906,0.3509635925292969,0.6434907913208008
81,274638304.0,9.217957496643066,-2.34279727935791,1.2522048950195312,0.022370338439941406,0.09907245635986328,0.14807605743408203,-0.1521768569946289,0.6629981994628906,0.3509635925292969,0.6434907913208008
82,274638304.0,9.119791984558105,-2.3954715728759766,1.3204421997070312,0.022370338439941406,0.09907245635986328,0.14807605743408203,-0.1521768569946289,0.6629981994628906,0.3509635925292969,0.6434907913208008
83,274638304.0,9.217957496643066,-2.34279727935791,1.2522048950195312,0.022370338439941406,0.09907245635986328,0.14807605743408203,-0.1521768569946289,0.6629981994628906,0.3509635925292969,0.6434907913208008
84,274638304.0,9.119791984558105,-2.3954715728759766,1.3204421997070312,0.022370338439941406,0.09907245635986328,0.14807605743408203,-0.1521768569946289,0.6629981994628906,0.3509635925292969,0.6434907913208008
85,274638336.0,9.152114868164062,-2.3918800354003906,1.4449443817138672,0.023435592651367188,0.0170440673828125,0.08948421478271484,-0.1521768569946289,0.6629981994628906,0.3509635925292969,0.6434907913208008
86,274638336.0,9.152114868164062,-2.3918800354003906,1.4449443817138672,0.023435592651367188,0.0170440673828125,0.08948421478271484,-0.1521768569946289,0.6629981994628906,0.3509635925292969,0.6434907913208008
87,274638368.0,9.40471076965332,-2.3296289443969727,1.2941045761108398,-0.030893325805664062,0.0287628173828125,0.09694194793701172,-0.1521768569946289,0.6629981994628906,0.3509635925292969,0.6434907913208008
88,274638368.0,9.342459678649902,-2.4253997802734375,1.3048791885375977,-0.030893325805664062,0.0287628173828125,0.09694194793701172,-0.1521768569946289,0.6629981994628906,0.3509635925292969,0.6434907913208008
89,274638400.0,9.250279426574707,-2.543916702270508,1.3012876510620117,-0.07030868530273438,0.0010652542114257812,0.07883167266845703,-0.1521768569946289,0.6629981994628906,0.3509635925292969,0.6434907913208008
90,274638432.0,9.507664680480957,-2.7067270278930664,1.2785425186157227,0.0010652542114257812,-0.030893325805664062,0.06498241424560547,-0.1521768569946289,0.6629981994628906,0.3509635925292969,0.6434907913208008
91,274638432.0,9.639349937438965,-2.7079238891601562,1.2522048950195312,0.0010652542114257812,-0.030893325805664062,0.06498241424560547,-0.1521768569946289,0.6629981994628906,0.3509635925292969,0.6434907913208008
92,274638464.0,9.328093528747559,-2.5822248458862305,1.29290771484375,0.15340232849121094,0.01810932159423828,0.007456779479980469,-0.1521768569946289,0.6629981994628906,0.3509635925292969,0.6434907913208008
93,274638464.0,8.92465877532959,-2.6480674743652344,1.2198820114135742,0.15340232849121094,0.01810932159423828,0.007456779479980469,-0.1521768569946289,0.6629981994628906,0.3509635925292969,0.6434907913208008
94,274638496.0,8.934235572814941,-2.807286262512207,1.4030447006225586,0.23862648010253906,-0.04900360107421875,-0.1438150405883789,-0.1521768569946289,0.6629981994628906,0.3509635925292969,0.6434907913208008
95,274638528.0,9.132960319519043,-2.60257625579834,1.207911491394043,0.20560169219970703,-0.031958580017089844,-0.1789693832397461,-0.1521768569946289,0.6629981994628906,0.3509635925292969,0.6434907913208008
96,274638528.0,9.204788208007812,-2.7390499114990234,1.1803770065307617,0.20560169219970703,-0.031958580017089844,-0.1789693832397461,-0.1521768569946289,0.6629981994628906,0.3509635925292969,0.6434907913208008
97,274638560.0,9.280208587646484,-2.964111328125,1.2210798263549805,-0.011717796325683594,-0.03941535949707031,-0.19175338745117188,-0.1521768569946289,0.6629981994628906,0.3509635925292969,0.6434907913208008
98,274638592.0,9.422667503356934,-3.185582160949707,1.3994531631469727,0.01810932159423828,-0.09481048583984375,-0.04474163055419922,-0.1521768569946289,0.6629981994628906,0.3509635925292969,0.6434907913208008
99,274638592.0,9.530409812927246,-3.007208824157715,1.332413673400879,0.01810932159423828,-0.09481048583984375,-0.04474163055419922,-0.1521768569946289,0.6629981994628906,0.3509635925292969,0.6434907913208008
100,274638624.0,9.49569320678711,-2.989251136779785,1.3862848281860352,0.02982807159423828,-0.08522319793701172,0.053264617919921875,-0.1521768569946289,0.6629981994628906,0.3509635925292969,0.6434907913208008
101,274638624.0,9.159296989440918,-3.088613510131836,1.6281061172485352,0.02982807159423828,-0.08522319793701172,0.053264617919921875,-0.1521768569946289,0.6629981994628906,0.3509635925292969,0.6434907913208008
102,274638752.0,9.296968460083008,-2.6372928619384766,2.0219640731811523,0.02982807159423828,-0.08522319793701172,0.053264617919921875,-0.14104175567626953,0.6590280532836914,0.36261653900146484,0.6436634063720703
103,274638784.0,9.267040252685547,-2.809680938720703,1.820845603942871,0.02982807159423828,-0.08522319793701172,0.053264617919921875,-0.14104175567626953,0.6590280532836914,0.36261653900146484,0.6436634063720703
104,274638784.0,9.131763458251953,-3.025165557861328,1.6807804107666016,0.02982807159423828,-0.08522319793701172,0.053264617919921875,-0.14104175567626953,0.6590280532836914,0.36261653900146484,0.6436634063720703
105,274638816.0,8.99528980255127,-3.1616392135620117,1.6568374633789062,0.02982807159423828,-0.08522319793701172,0.053264617919921875,-0.14104175567626953,0.6590280532836914,0.36261653900146484,0.6436634063720703
106,274638848.0,9.100637435913086,-3.1592445373535156,1.6161346435546875,-0.08948421478271484,0.07670116424560547,0.04367637634277344,-0.14104175567626953,0.6590280532836914,0.36261653900146484,0.6436634063720703
107,274638848.0,9.231125831604004,-3.116147994995117,1.449732780456543,-0.08948421478271484,0.07670116424560547,0.04367637634277344,-0.14104175567626953,0.6590280532836914,0.36261653900146484,0.6436634063720703
108,274638880.0,8.936630249023438,-3.2382564544677734,1.3671302795410156,-0.11292076110839844,0.15340232849121094,0.013848304748535156,-0.14104175567626953,0.6590280532836914,0.36261653900146484,0.6436634063720703
109,274638912.0,8.849238395690918,-3.345998764038086,1.3779048919677734,-0.07137489318847656,0.06498241424560547,-0.031958580017089844,-0.14104175567626953,0.6590280532836914,0.36261653900146484,0.6436634063720703
110,274638912.0,9.324501991271973,-3.217905044555664,1.2677679061889648,-0.07137489318847656,0.06498241424560547,-0.031958580017089844,-0.14104175567626953,0.6590280532836914,0.36261653900146484,0.6436634063720703
111,274638944.0,9.68484115600586,-3.0850229263305664,1.1899538040161133,-0.1320962905883789,0.12890052795410156,-0.03941535949707031,-0.12900066375732422,0.6642932891845703,0.3652057647705078,0.6393041610717773
112,274638944.0,9.313728332519531,-3.216707229614258,1.2258682250976562,-0.1320962905883789,0.12890052795410156,-0.03941535949707031,-0.12900066375732422,0.6642932891845703,0.3652057647705078,0.6393041610717773
113,274638976.0,8.61460018157959,-3.247833251953125,1.2091083526611328,-0.11292076110839844,0.12783527374267578,0.010652542114257812,-0.1260232925415039,0.666839599609375,0.3636951446533203,0.6380529403686523
114,274639008.0,8.573897361755371,-3.1676254272460938,1.2234735488891602,-0.06817817687988281,0.0063915252685546875,0.04474163055419922,-0.12515926361083984,0.6670122146606445,0.3635225296020508,0.6382255554199219
115,274639008.0,9.071906089782715,-3.252621650695801,1.1887569427490234,-0.06817817687988281,0.0063915252685546875,0.04474163055419922,-0.12515926361083984,0.6670122146606445,0.3635225296020508,0.6382255554199219
116,274639040.0,9.457385063171387,-3.2023420333862305,1.1121397018432617,0.0,-0.020239830017089844,0.07030868530273438,-0.12468528747558594,0.6666669845581055,0.3637809753417969,0.6384410858154297
117,274639040.0,9.700403213500977,-3.063473701477051,1.2821340560913086,0.0,-0.020239830017089844,0.07030868530273438,-0.12468528747558594,0.6666669845581055,0.3637809753417969,0.6384410858154297
118,274639072.0,9.985321998596191,-2.948549270629883,1.3204421997070312,0.0,-0.020239830017089844,0.07030868530273438,-0.12468528747558594,0.6666669845581055,0.3637809753417969,0.6384410858154297
119,274639104.0,10.1852445602417,-2.816864013671875,1.3467788696289062,0.0,-0.020239830017089844,0.07030868530273438,-0.12468528747558594,0.6666669845581055,0.3637809753417969,0.6384410858154297
120,274639104.0,9.817723274230957,-2.901860237121582,1.455718994140625,0.0,-0.020239830017089844,0.07030868530273438,-0.12468528747558594,0.6666669845581055,0.3637809753417969,0.6384410858154297
121,274639136.0,9.252674102783203,-3.088613510131836,1.5933895111083984,-0.0063915252685546875,-0.031958580017089844,0.030893325805664062,-0.12468528747558594,0.6666669845581055,0.3637809753417969,0.6384410858154297
122,274639264.0,9.107820510864258,-2.968899726867676,1.7753543853759766,0.13103103637695312,-0.013848304748535156,-0.034089088439941406,-0.12468528747558594,0.6666669845581055,0.3637809753417969,0.6384410858154297
123,274639264.0,9.220351219177246,-2.9521398544311523,1.7286663055419922,0.13103103637695312,-0.013848304748535156,-0.034089088439941406,-0.12468528747558594,0.6666669845581055,0.3637809753417969,0.6384410858154297
124,274639264.0,9.107820510864258,-2.968899726867676,1.7753543853759766,0.13103103637695312,-0.013848304748535156,-0.034089088439941406,-0.12468528747558594,0.6666669845581055,0.3637809753417969,0.6384410858154297
125,274639264.0,9.220351219177246,-2.9521398544311523,1.7286663055419922,0.13103103637695312,-0.013848304748535156,-0.034089088439941406,-0.12468528747558594,0.6666669845581055,0.3637809753417969,0.6384410858154297
126,274639264.0,9.107820510864258,-2.968899726867676,1.7753543853759766,0.13103103637695312,-0.013848304748535156,-0.034089088439941406,-0.12468528747558594,0.6666669845581055,0.3637809753417969,0.6384410858154297
127,274639264.0,9.220351219177246,-2.9521398544311523,1.7286663055419922,0.13103103637695312,-0.013848304748535156,-0.034089088439941406,-0.12468528747558594,0.6666669845581055,0.3637809753417969,0.6384410858154297
128,274639296.0,9.33407974243164,-3.0467138290405273,1.762186050415039,0.06711292266845703,-0.013848304748535156,-0.023435592651367188,-0.12468528747558594,0.6666669845581055,0.3637809753417969,0.6384410858154297
129,274639296.0,9.33407974243164,-3.0467138290405273,1.762186050415039,0.06711292266845703,-0.013848304748535156,-0.023435592651367188,-0.12468528747558594,0.6666669845581055,0.3637809753417969,0.6384410858154297
130,274639296.0,9.33407974243164,-3.0467138290405273,1.762186050415039,0.06711292266845703,-0.013848304748535156,-0.023435592651367188,-0.12468528747558594,0.6666669845581055,0.3637809753417969,0.6384410858154297
131,274639328.0,9.530409812927246,-2.8970718383789062,1.763382911682129,0.041545867919921875,-0.005326271057128906,-0.012783050537109375,-0.12468528747558594,0.6666669845581055,0.3637809753417969,0.6384410858154297
132,274639328.0,9.443018913269043,-2.901860237121582,1.6544437408447266,0.041545867919921875,-0.005326271057128906,-0.012783050537109375,-0.12468528747558594,0.6666669845581055,0.3637809753417969,0.6384410858154297
133,274639328.0,9.530409812927246,-2.8970718383789062,1.763382911682129,0.041545867919921875,-0.005326271057128906,-0.012783050537109375,-0.12468528747558594,0.6666669845581055,0.3637809753417969,0.6384410858154297
134,274639328.0,9.443018913269043,-2.901860237121582,1.6544437408447266,0.041545867919921875,-0.005326271057128906,-0.012783050537109375,-0.12468528747558594,0.6666669845581055,0.3637809753417969,0.6384410858154297
135,274639328.0,9.530409812927246,-2.8970718383789062,1.763382911682129,0.041545867919921875,-0.005326271057128906,-0.012783050537109375,-0.12468528747558594,0.6666669845581055,0.3637809753417969,0.6384410858154297
136,274639328.0,9.443018913269043,-2.901860237121582,1.6544437408447266,0.041545867919921875,-0.005326271057128906,-0.012783050537109375,-0.12468528747558594,0.6666669845581055,0.3637809753417969,0.6384410858154297
137,274639456.0,9.125777244567871,-2.937774658203125,1.5586719512939453,0.09694194793701172,0.023435592651367188,-0.023435592651367188,-0.12468528747558594,0.6666669845581055,0.3637809753417969,0.6384410858154297
138,274639456.0,9.125777244567871,-2.937774658203125,1.5586719512939453,0.09694194793701172,0.023435592651367188,-0.023435592651367188,-0.12468528747558594,0.6666669845581055,0.3637809753417969,0.6384410858154297
139,274639488.0,9.276617050170898,-2.853975296020508,1.5790233612060547,0.09694194793701172,0.023435592651367188,-0.023435592651367188,-0.12468528747558594,0.6666669845581055,0.3637809753417969,0.6384410858154297
140,274639488.0,9.413090705871582,-2.8994665145874023,1.5012102127075195,0.09694194793701172,0.023435592651367188,-0.023435592651367188,-0.12468528747558594,0.6666669845581055,0.3637809753417969,0.6384410858154297
141,274639488.0,9.276617050170898,-2.853975296020508,1.5790233612060547,0.09694194793701172,0.023435592651367188,-0.023435592651367188,-0.12468528747558594,0.6666669845581055,0.3637809753417969,0.6384410858154297
142,274639488.0,9.413090705871582,-2.8994665145874023,1.5012102127075195,0.09694194793701172,0.023435592651367188,-0.023435592651367188,-0.12468528747558594,0.6666669845581055,0.3637809753417969,0.6384410858154297
143,274639520.0,9.342459678649902,-2.9653091430664062,1.5658550262451172,0.09694194793701172,0.023435592651367188,-0.023435592651367188,-0.12468528747558594,0.6666669845581055,0.3637809753417969,0.6384410858154297
144,274639520.0,9.268237113952637,-3.0383338928222656,1.667612075805664,0.09694194793701172,0.023435592651367188,-0.023435592651367188,-0.12468528747558594,0.6666669845581055,0.3637809753417969,0.6384410858154297
145,274639520.0,9.342459678649902,-2.9653091430664062,1.5658550262451172,0.09694194793701172,0.023435592651367188,-0.023435592651367188,-0.12468528747558594,0.6666669845581055,0.3637809753417969,0.6384410858154297
146,274639520.0,9.268237113952637,-3.0383338928222656,1.667612075805664,0.09694194793701172,0.023435592651367188,-0.023435592651367188,-0.12468528747558594,0.6666669845581055,0.3637809753417969,0.6384410858154297
147,274639552.0,9.35682487487793,-2.937774658203125,1.6640205383300781,0.09694194793701172,0.023435592651367188,-0.023435592651367188,-0.12468528747558594,0.6666669845581055,0.3637809753417969,0.6384410858154297
148,274639584.0,9.28499698638916,-2.934183120727539,1.632894515991211,0.09694194793701172,0.023435592651367188,-0.023435592651367188,-0.12468528747558594,0.6666669845581055,0.3637809753417969,0.6384410858154297
149,274639584.0,9.190423011779785,-2.960519790649414,1.6508522033691406,0.09694194793701172,0.023435592651367188,-0.023435592651367188,-0.12468528747558594,0.6666669845581055,0.3637809753417969,0.6384410858154297
150,274639616.0,9.194014549255371,-2.966506004333496,1.7095117568969727,0.09694194793701172,0.023435592651367188,-0.023435592651367188,-0.12468528747558594,0.6666669845581055,0.3637809753417969,0.6384410858154297
151,274639648.0,9.292180061340332,-2.8958749771118164,1.6520490646362305,-0.020239830017089844,0.021305084228515625,-0.034089088439941406,-0.12468528747558594,0.6666669845581055,0.3637809753417969,0.6384410858154297
152,274639648.0,9.352036476135254,-2.8851003646850586,1.599374771118164,-0.020239830017089844,0.021305084228515625,-0.034089088439941406,-0.12468528747558594,0.6666669845581055,0.3637809753417969,0.6384410858154297
153,274639680.0,9.290982246398926,-2.971294403076172,1.5682497024536133,-0.024501800537109375,0.02982807159423828,-0.03621959686279297,-0.12468528747558594,0.6666669845581055,0.3637809753417969,0.6384410858154297
154,274639680.0,9.232322692871094,-3.0455169677734375,1.5526866912841797,-0.024501800537109375,0.02982807159423828,-0.03621959686279297,-0.12468528747558594,0.6666669845581055,0.3637809753417969,0.6384410858154297
155,274639712.0,9.267040252685547,-2.9174232482910156,1.4880409240722656,0.01597881317138672,0.01810932159423828,-0.0170440673828125,-0.12468528747558594,0.6666669845581055,0.3637809753417969,0.6384410858154297
156,274639744.0,9.28739070892334,-2.8288354873657227,1.5203638076782227,-0.05113410949707031,0.010652542114257812,-0.004261016845703125,-0.12468528747558594,0.6666669845581055,0.3637809753417969,0.6384410858154297
157,274639968.0,9.189226150512695,-2.84200382232666,1.7992973327636719,0.0031957626342773438,0.01597881317138672,-0.04474163055419922,-0.13577651977539062,0.6606245040893555,0.37767791748046875,0.6344270706176758
158,274639968.0,9.269433975219727,-2.874326705932617,1.7166948318481445,0.0031957626342773438,0.01597881317138672,-0.04474163055419922,-0.13577651977539062,0.6606245040893555,0.37767791748046875,0.6344270706176758
159,274639968.0,9.189226150512695,-2.84200382232666,1.7992973327636719,0.0031957626342773438,0.01597881317138672,-0.04474163055419922,-0.13577651977539062,0.6606245040893555,0.37767791748046875,0.6344270706176758
160,274639968.0,9.269433975219727,-2.874326705932617,1.7166948318481445,0.0031957626342773438,0.01597881317138672,-0.04474163055419922,-0.13577651977539062,0.6606245040893555,0.37767791748046875,0.6344270706176758
161,274639968.0,9.189226150512695,-2.84200382232666,1.7992973327636719,0.0031957626342773438,0.01597881317138672,-0.04474163055419922,-0.13577651977539062,0.6606245040893555,0.37767791748046875,0.6344270706176758
162,274639968.0,9.269433975219727,-2.874326705932617,1.7166948318481445,0.0031957626342773438,0.01597881317138672,-0.04474163055419922,-0.13577651977539062,0.6606245040893555,0.37767791748046875,0.6344270706176758
163,274640000.0,9.21675968170166,-3.028757095336914,1.6879634857177734,0.011717796325683594,0.031958580017089844,-0.04687213897705078,-0.13577651977539062,0.6606245040893555,0.37767791748046875,0.6344270706176758
164,274640000.0,9.135354995727539,-3.0239686965942383,1.6867656707763672,0.011717796325683594,0.031958580017089844,-0.04687213897705078,-0.13577651977539062,0.6606245040893555,0.37767791748046875,0.6344270706176758
165,274640000.0,9.21675968170166,-3.028757095336914,1.6879634857177734,0.011717796325683594,0.031958580017089844,-0.04687213897705078,-0.13577651977539062,0.6606245040893555,0.37767791748046875,0.6344270706176758
166,274640000.0,9.135354995727539,-3.0239686965942383,1.6867656707763672,0.011717796325683594,0.031958580017089844,-0.04687213897705078,-0.13577651977539062,0.6606245040893555,0.37767791748046875,0.6344270706176758
167,274640000.0,9.21675968170166,-3.028757095336914,1.6879634857177734,0.011717796325683594,0.031958580017089844,-0.04687213897705078,-0.13577651977539062,0.6606245040893555,0.37767791748046875,0.6344270706176758
168,274640000.0,9.135354995727539,-3.0239686965942383,1.6867656707763672,0.011717796325683594,0.031958580017089844,-0.04687213897705078,-0.13577651977539062,0.6606245040893555,0.37767791748046875,0.6344270706176758
169,274640032.0,9.182043075561523,-3.035940170288086,1.6005725860595703,0.04367637634277344,0.020239830017089844,-0.05646038055419922,-0.1381072998046875,0.662135124206543,0.37746238708496094,0.6324424743652344
170,274640032.0,9.182043075561523,-3.035940170288086,1.6005725860595703,0.04367637634277344,0.020239830017089844,-0.05646038055419922,-0.1381072998046875,0.662135124206543,0.37746238708496094,0.6324424743652344
171,274640032.0,9.182043075561523,-3.035940170288086,1.6005725860595703,0.04367637634277344,0.020239830017089844,-0.05646038055419922,-0.1381072998046875,0.662135124206543,0.37746238708496094,0.6324424743652344
172,274640160.0,9.203591346740723,-2.9521398544311523,1.5838127136230469,0.04367637634277344,0.020239830017089844,-0.05646038055419922,-0.13966083526611328,0.6627826690673828,0.3775920867919922,0.6314067840576172
173,274640160.0,9.21675968170166,-2.9904489517211914,1.632894515991211,0.04367637634277344,0.020239830017089844,-0.05646038055419922,-0.13966083526611328,0.6627826690673828,0.3775920867919922,0.6314067840576172
174,274640192.0,9.270630836486816,-2.9581260681152344,1.7178916931152344,0.04367637634277344,0.020239830017089844,-0.05646038055419922,-0.13966083526611328,0.6627826690673828,0.3775920867919922,0.6314067840576172
175,274640224.0,9.233519554138184,-2.935379981994629,1.6161346435546875,0.04367637634277344,0.020239830017089844,-0.05646038055419922,-0.13966083526611328,0.6627826690673828,0.3775920867919922,0.6314067840576172
176,274640224.0,9.1868314743042,-2.906648635864258,1.6556406021118164,0.04367637634277344,0.020239830017089844,-0.05646038055419922,-0.13966083526611328,0.6627826690673828,0.3775920867919922,0.6314067840576172
177,274640256.0,9.23591423034668,-2.96291446685791,1.7023286819458008,0.00852203369140625,-0.0170440673828125,0.01810932159423828,-0.14004898071289062,0.6619625091552734,0.37867069244384766,0.631535530090332
178,274640256.0,9.312531471252441,-3.0084056854248047,1.6963434219360352,0.00852203369140625,-0.0170440673828125,0.01810932159423828,-0.14004898071289062,0.6619625091552734,0.37867069244384766,0.631535530090332
179,274640288.0,9.328093528747559,-2.9138317108154297,1.6640205383300781,0.041545867919921875,-0.0063915252685546875,0.026632308959960938,-0.14022159576416016,0.6615304946899414,0.37944793701171875,0.6314496994018555
180,274640320.0,9.282602310180664,-2.936577796936035,1.6987371444702148,0.040480613708496094,-0.0010652542114257812,0.024501800537109375,-0.1403512954711914,0.6614017486572266,0.3798360824584961,0.6313199996948242
181,274640320.0,9.250279426574707,-2.9509429931640625,1.6867656707763672,0.040480613708496094,-0.0010652542114257812,0.024501800537109375,-0.1403512954711914,0.6614017486572266,0.3798360824584961,0.6313199996948242
182,274640448.0,9.241899490356445,-2.876720428466797,1.6795835494995117,0.040480613708496094,0.014913558959960938,-0.0010652542114257812,-0.1403512954711914,0.6614017486572266,0.3798360824584961,0.6313199996948242
183,274640448.0,9.241899490356445,-2.876720428466797,1.6795835494995117,0.040480613708496094,0.014913558959960938,-0.0010652542114257812,-0.1403512954711914,0.6614017486572266,0.3798360824584961,0.6313199996948242
184,274640480.0,9.21436595916748,-2.816864013671875,1.606557846069336,0.040480613708496094,0.014913558959960938,-0.0010652542114257812,-0.1403512954711914,0.6614017486572266,0.3798360824584961,0.6313199996948242
185,274640480.0,9.189226150512695,-2.84200382232666,1.6209230422973633,0.040480613708496094,0.014913558959960938,-0.0010652542114257812,-0.1403512954711914,0.6614017486572266,0.3798360824584961,0.6313199996948242
186,274640480.0,9.21436595916748,-2.816864013671875,1.606557846069336,0.040480613708496094,0.014913558959960938,-0.0010652542114257812,-0.1403512954711914,0.6614017486572266,0.3798360824584961,0.6313199996948242
187,274640480.0,9.189226150512695,-2.84200382232666,1.6209230422973633,0.040480613708496094,0.014913558959960938,-0.0010652542114257812,-0.1403512954711914,0.6614017486572266,0.3798360824584961,0.6313199996948242
188,274640512.0,9.244294166564941,-2.9234085083007812,1.6257123947143555,0.040480613708496094,0.014913558959960938,-0.0010652542114257812,-0.1403512954711914,0.6614017486572266,0.3798360824584961,0.6313199996948242
189,274640512.0,9.244294166564941,-2.9234085083007812,1.6257123947143555,0.040480613708496094,0.014913558959960938,-0.0010652542114257812,-0.1403512954711914,0.6614017486572266,0.3798360824584961,0.6313199996948242
190,274640544.0,9.319713592529297,-2.832426071166992,1.6101493835449219,0.041545867919921875,0.00852203369140625,0.0010652542114257812,-0.1403512954711914,0.6614017486572266,0.3798360824584961,0.6313199996948242
191,274640544.0,9.319713592529297,-2.832426071166992,1.6101493835449219,0.041545867919921875,0.00852203369140625,0.0010652542114257812,-0.1403512954711914,0.6614017486572266,0.3798360824584961,0.6313199996948242
192,274640640.0,9.227534294128418,-2.821652412414551,1.6556406021118164,0.05646038055419922,-0.013848304748535156,0.004261016845703125,-0.1403512954711914,0.6614017486572266,0.3798360824584961,0.6313199996948242
193,274640640.0,9.227534294128418,-2.821652412414551,1.6556406021118164,0.05646038055419922,-0.013848304748535156,0.004261016845703125,-0.1403512954711914,0.6614017486572266,0.3798360824584961,0.6313199996948242
194,274640672.0,9.300559997558594,-2.8240461349487305,1.6771888732910156,0.05646038055419922,-0.013848304748535156,0.004261016845703125,-0.1403512954711914,0.6614017486572266,0.3798360824584961,0.6313199996948242
195,274640672.0,9.300559997558594,-2.8240461349487305,1.6771888732910156,0.05646038055419922,-0.013848304748535156,0.004261016845703125,-0.1403512954711914,0.6614017486572266,0.3798360824584961,0.6313199996948242
196,274640704.0,9.250279426574707,-2.840806007385254,1.7095117568969727,0.05646038055419922,-0.013848304748535156,0.004261016845703125,-0.1403512954711914,0.6614017486572266,0.3798360824584961,0.6313199996948242
197,274640704.0,9.150917053222656,-2.8288354873657227,1.7466230392456055,0.05646038055419922,-0.013848304748535156,0.004261016845703125,-0.1403512954711914,0.6614017486572266,0.3798360824584961,0.6313199996948242
198,274640704.0,9.250279426574707,-2.840806007385254,1.7095117568969727,0.05646038055419922,-0.013848304748535156,0.004261016845703125,-0.1403512954711914,0.6614017486572266,0.3798360824584961,0.6313199996948242
199,274640704.0,9.150917053222656,-2.8288354873657227,1.7466230392456055,0.05646038055419922,-0.013848304748535156,0.004261016845703125,-0.1403512954711914,0.6614017486572266,0.3798360824584961,0.6313199996948242
200,274640736.0,9.183239936828613,-2.7570066452026367,1.7226800918579102,0.02769756317138672,-0.030893325805664062,0.021305084228515625,-0.1403512954711914,0.6614017486572266,0.3798360824584961,0.6313199996948242
201,274640736.0,9.183239936828613,-2.7570066452026367,1.7226800918579102,0.02769756317138672,-0.030893325805664062,0.021305084228515625,-0.1403512954711914,0.6614017486572266,0.3798360824584961,0.6313199996948242
202,274640736.0,9.353233337402344,-2.693558692932129,1.7071170806884766,0.02769756317138672,-0.030893325805664062,0.021305084228515625,-0.1403512954711914,0.6614017486572266,0.3798360824584961,0.6313199996948242
203,274640768.0,9.340065002441406,-2.741443634033203,1.7250747680664062,-0.03515434265136719,0.0170440673828125,0.0031957626342773438,-0.1403512954711914,0.6614017486572266,0.3798360824584961,0.6313199996948242
204,274640800.0,9.238308906555176,-2.853975296020508,1.7035255432128906,-0.012783050537109375,0.0063915252685546875,-0.00852203369140625,-0.1403512954711914,0.6614017486572266,0.3798360824584961,0.6313199996948242
205,274640800.0,9.211971282958984,-2.8300323486328125,1.737046241760254,-0.012783050537109375,0.0063915252685546875,-0.00852203369140625,-0.1403512954711914,0.6614017486572266,0.3798360824584961,0.6313199996948242
206,274640832.0,9.28619384765625,-2.7869348526000977,1.733454704284668,0.01810932159423828,-0.011717796325683594,-0.009587287902832031,-0.14475345611572266,0.6600198745727539,0.38501548767089844,0.6286439895629883
207,274640960.0,9.253870964050293,-2.84439754486084,1.7753543853759766,0.01810932159423828,-0.011717796325683594,-0.009587287902832031,-0.14527130126953125,0.6600637435913086,0.3848857879638672,0.6285581588745117
208,274640960.0,9.199999809265137,-2.8048925399780273,1.737046241760254,0.01810932159423828,-0.011717796325683594,-0.009587287902832031,-0.14527130126953125,0.6600637435913086,0.3848857879638672,0.6285581588745117
209,274640992.0,9.250279426574707,-2.7653865814208984,1.795705795288086,0.01810932159423828,-0.011717796325683594,-0.009587287902832031,-0.14527130126953125,0.6600637435913086,0.3848857879638672,0.6285581588745117
210,274641024.0,9.271828651428223,-2.7366552352905273,1.7705659866333008,-0.042611122131347656,0.023435592651367188,-0.04900360107421875,-0.14527130126953125,0.6600637435913086,0.3848857879638672,0.6285581588745117
211,274641024.0,9.350839614868164,-2.814469337463379,1.7490167617797852,-0.042611122131347656,0.023435592651367188,-0.04900360107421875,-0.14527130126953125,0.6600637435913086,0.3848857879638672,0.6285581588745117
212,274641056.0,9.252674102783203,-2.882706642150879,1.695145606994629,-0.019174575805664062,0.030893325805664062,-0.042611122131347656,-0.14527130126953125,0.6600637435913086,0.3848857879638672,0.6285581588745117
213,274641056.0,9.225139617919922,-2.873128890991211,1.665217399597168,-0.019174575805664062,0.030893325805664062,-0.042611122131347656,-0.14527130126953125,0.6600637435913086,0.3848857879638672,0.6285581588745117
214,274641088.0,9.261054039001465,-2.818060874938965,1.6843719482421875,0.0063915252685546875,0.024501800537109375,-0.03941535949707031,-0.14527130126953125,0.6600637435913086,0.3848857879638672,0.6285581588745117
215,274641120.0,9.232322692871094,-2.8001041412353516,1.6795835494995117,-0.013848304748535156,0.024501800537109375,-0.040480613708496094,-0.14527130126953125,0.6600637435913086,0.3848857879638672,0.6285581588745117
216,274641120.0,9.197606086730957,-2.821652412414551,1.6640205383300781,-0.013848304748535156,0.024501800537109375,-0.040480613708496094,-0.14527130126953125,0.6600637435913086,0.3848857879638672,0.6285581588745117
217,274641152.0,9.28739070892334,-2.813272476196289,1.5909948348999023,-0.013848304748535156,0.024501800537109375,-0.040480613708496094,-0.14527130126953125,0.6600637435913086,0.3848857879638672,0.6285581588745117
218,274641184.0,9.252674102783203,-2.853975296020508,1.5658550262451172,-0.013848304748535156,0.024501800537109375,-0.040480613708496094,-0.14527130126953125,0.6600637435913086,0.3848857879638672,0.6285581588745117
219,274641184.0,9.232322692871094,-2.8851003646850586,1.6161346435546875,-0.013848304748535156,0.024501800537109375,-0.040480613708496094,-0.14527130126953125,0.6600637435913086,0.3848857879638672,0.6285581588745117
220,274641216.0,9.30534839630127,-2.869537353515625,1.6185293197631836,-0.013848304748535156,0.024501800537109375,-0.040480613708496094,-0.14527130126953125,0.6600637435913086,0.3848857879638672,0.6285581588745117
221,274641216.0,9.319713592529297,-2.7941179275512695,1.6640205383300781,-0.013848304748535156,0.024501800537109375,-0.040480613708496094,-0.14527130126953125,0.6600637435913086,0.3848857879638672,0.6285581588745117
222,274641344.0,9.304150581359863,-2.785737991333008,1.7358484268188477,0.011717796325683594,-0.019174575805664062,-0.02769756317138672,-0.1466960906982422,0.6639041900634766,0.37871456146240234,0.6279106140136719
223,274641344.0,9.304150581359863,-2.785737991333008,1.7358484268188477,0.011717796325683594,-0.019174575805664062,-0.02769756317138672,-0.1466960906982422,0.6639041900634766,0.37871456146240234,0.6279106140136719
224,274641376.0,9.276617050170898,-2.8563690185546875,1.752608299255371,0.011717796325683594,-0.019174575805664062,-0.02769756317138672,-0.1466960906982422,0.6639041900634766,0.37871456146240234,0.6279106140136719
225,274641376.0,9.299362182617188,-2.8958749771118164,1.7382431030273438,0.011717796325683594,-0.019174575805664062,-0.02769756317138672,-0.1466960906982422,0.6639041900634766,0.37871456146240234,0.6279106140136719
226,274641376.0,9.276617050170898,-2.8563690185546875,1.752608299255371,0.011717796325683594,-0.019174575805664062,-0.02769756317138672,-0.1466960906982422,0.6639041900634766,0.37871456146240234,0.6279106140136719
227,274641376.0,9.299362182617188,-2.8958749771118164,1.7382431030273438,0.011717796325683594,-0.019174575805664062,-0.02769756317138672,-0.1466960906982422,0.6639041900634766,0.37871456146240234,0.6279106140136719
228,274641408.0,9.271828651428223,-2.7941179275512695,1.7059202194213867,0.011717796325683594,-0.019174575805664062,-0.02769756317138672,-0.1466960906982422,0.6639041900634766,0.37871456146240234,0.6279106140136719
229,274641408.0,9.271828651428223,-2.7941179275512695,1.7059202194213867,0.011717796325683594,-0.019174575805664062,-0.02769756317138672,-0.1466960906982422,0.6639041900634766,0.37871456146240234,0.6279106140136719
230,274641440.0,9.204788208007812,-2.7989063262939453,1.638880729675293,0.011717796325683594,-0.019174575805664062,-0.02769756317138672,-0.1466960906982422,0.6639041900634766,0.37871456146240234,0.6279106140136719
231,274641440.0,9.204788208007812,-2.7989063262939453,1.638880729675293,0.011717796325683594,-0.019174575805664062,-0.02769756317138672,-0.1466960906982422,0.6639041900634766,0.37871456146240234,0.6279106140136719
232,274641536.0,9.323305130004883,-2.7318668365478516,1.6376838684082031,0.011717796325683594,-0.019174575805664062,-0.02769756317138672,-0.1466960906982422,0.6639041900634766,0.37871456146240234,0.6279106140136719
233,274641536.0,9.281405448913574,-2.777358055114746,1.674795150756836,0.011717796325683594,-0.019174575805664062,-0.02769756317138672,-0.1466960906982422,0.6639041900634766,0.37871456146240234,0.6279106140136719
234,274641568.0,9.331685066223145,-2.664827346801758,1.6735973358154297,0.011717796325683594,-0.019174575805664062,-0.02769756317138672,-0.1466960906982422,0.6639041900634766,0.37871456146240234,0.6279106140136719
235,274641568.0,9.342459678649902,-2.692361831665039,1.6281061172485352,0.011717796325683594,-0.019174575805664062,-0.02769756317138672,-0.1466960906982422,0.6639041900634766,0.37871456146240234,0.6279106140136719
236,274641568.0,9.282602310180664,-2.6995439529418945,1.693948745727539,0.011717796325683594,-0.019174575805664062,-0.02769756317138672,-0.1466960906982422,0.6639041900634766,0.37871456146240234,0.6279106140136719
237,274641600.0,9.243097305297852,-2.749823570251465,1.668808937072754,0.011717796325683594,-0.019174575805664062,-0.02769756317138672,-0.1466960906982422,0.6639041900634766,0.37871456146240234,0.6279106140136719
238,274641600.0,9.222745895385742,-2.84320068359375,1.6855688095092773,0.011717796325683594,-0.019174575805664062,-0.02769756317138672,-0.1466960906982422,0.6639041900634766,0.37871456146240234,0.6279106140136719
239,274641600.0,9.223942756652832,-2.8048925399780273,1.6879634857177734,0.011717796325683594,-0.019174575805664062,-0.02769756317138672,-0.1466960906982422,0.6639041900634766,0.37871456146240234,0.6279106140136719
240,274641632.0,9.274222373962402,-2.77376651763916,1.6783857345581055,0.011717796325683594,-0.019174575805664062,-0.02769756317138672,-0.1466960906982422,0.6639041900634766,0.37871456146240234,0.6279106140136719
241,274641632.0,9.300559997558594,-2.693558692932129,1.699934959411621,0.011717796325683594,-0.019174575805664062,-0.02769756317138672,-0.1466960906982422,0.6639041900634766,0.37871456146240234,0.6279106140136719
242,274641632.0,9.247885704040527,-2.8084840774536133,1.6783857345581055,0.011717796325683594,-0.019174575805664062,-0.02769756317138672,-0.1466960906982422,0.6639041900634766,0.37871456146240234,0.6279106140136719
243,274641632.0,9.308939933776855,-2.7079238891601562,1.7059202194213867,0.011717796325683594,-0.019174575805664062,-0.02769756317138672,-0.1466960906982422,0.6639041900634766,0.37871456146240234,0.6279106140136719
244,274641664.0,9.26464557647705,-2.7318668365478516,1.6891603469848633,0.0,-0.004261016845703125,-0.014913558959960938,-0.1466960906982422,0.6639041900634766,0.37871456146240234,0.6279106140136719
245,274641664.0,9.246688842773438,-2.788132667541504,1.6592321395874023,0.0,-0.004261016845703125,-0.014913558959960938,-0.1466960906982422,0.6639041900634766,0.37871456146240234,0.6279106140136719
246,274641696.0,9.28739070892334,-2.8348207473754883,1.701131820678711,0.041545867919921875,-0.01810932159423828,-0.023435592651367188,-0.1466960906982422,0.6639041900634766,0.37871456146240234,0.6279106140136719
247,274641728.0,9.369993209838867,-2.7653865814208984,1.7418346405029297,0.02769756317138672,-0.012783050537109375,-0.01597881317138672,-0.1466960906982422,0.6639041900634766,0.37871456146240234,0.6279106140136719
248,274641728.0,9.353233337402344,-2.7342615127563477,1.6640205383300781,0.02769756317138672,-0.012783050537109375,-0.01597881317138672,-0.1466960906982422,0.6639041900634766,0.37871456146240234,0.6279106140136719
249,274641760.0,9.267040252685547,-2.785737991333008,1.6628236770629883,-0.033023834228515625,0.005326271057128906,-0.007456779479980469,-0.1466960906982422,0.6639041900634766,0.37871456146240234,0.6279106140136719
250,274641792.0,9.277813911437988,-2.847989082336426,1.6783857345581055,-0.0010652542114257812,0.0,0.0,-0.1466960906982422,0.6639041900634766,0.37871456146240234,0.6279106140136719
251,274641792.0,9.301756858825684,-2.7689781188964844,1.6843719482421875,-0.0010652542114257812,0.0,0.0,-0.1466960906982422,0.6639041900634766,0.37871456146240234,0.6279106140136719
252,274641824.0,9.274222373962402,-2.7366552352905273,1.6795835494995117,-0.025567054748535156,-0.005326271057128906,0.00852203369140625,-0.1466960906982422,0.6639041900634766,0.37871456146240234,0.6279106140136719
253,274641824.0,9.313728332519531,-2.7617950439453125,1.6412744522094727,-0.025567054748535156,-0.005326271057128906,0.00852203369140625,-0.1466960906982422,0.6639041900634766,0.37871456146240234,0.6279106140136719
254,274641856.0,9.313728332519531,-2.784541130065918,1.6472606658935547,-0.03728485107421875,-0.0031957626342773438,0.00852203369140625,-0.1466960906982422,0.6639041900634766,0.37871456146240234,0.6279106140136719
255,274641856.0,9.277813911437988,-2.7905263900756836,1.6448659896850586,-0.03728485107421875,-0.0031957626342773438,0.00852203369140625,-0.1466960906982422,0.6639041900634766,0.37871456146240234,0.6279106140136719
256,274641888.0,9.275420188903809,-2.7713727951049805,1.658034324645996,-0.03728485107421875,-0.0031957626342773438,0.00852203369140625,-0.1466960906982422,0.6639041900634766,0.37871456146240234,0.6279106140136719
257,274641888.0,9.331685066223145,-2.717501640319824,1.6795835494995117,-0.03728485107421875,-0.0031957626342773438,0.00852203369140625,-0.1466960906982422,0.6639041900634766,0.37871456146240234,0.6279106140136719
258,274641888.0,9.279010772705078,-2.7402467727661133,1.667612075805664,-0.03728485107421875,-0.0031957626342773438,0.00852203369140625,-0.1466960906982422,0.6639041900634766,0.37871456146240234,0.6279106140136719
259,274641920.0,9.369993209838867,-2.661235809326172,1.6795835494995117,-0.03728485107421875,-0.0031957626342773438,0.00852203369140625,-0.1466960906982422,0.6639041900634766,0.37871456146240234,0.6279106140136719
260,274641920.0,9.298165321350098,-2.7282752990722656,1.7035255432128906,-0.03728485107421875,-0.0031957626342773438,0.00852203369140625,-0.1466960906982422,0.6639041900634766,0.37871456146240234,0.6279106140136719
261,274641920.0,9.359219551086426,-2.689967155456543,1.6484575271606445,-0.03728485107421875,-0.0031957626342773438,0.00852203369140625,-0.1466960906982422,0.6639041900634766,0.37871456146240234,0.6279106140136719
262,274641920.0,9.33647346496582,-2.6815872192382812,1.6568374633789062,-0.03728485107421875,-0.0031957626342773438,0.00852203369140625,-0.1466960906982422,0.6639041900634766,0.37871456146240234,0.6279106140136719
263,274641952.0,9.330488204956055,-2.6803903579711914,1.6484575271606445,-0.03728485107421875,-0.0031957626342773438,0.00852203369140625,-0.1466960906982422,0.6639041900634766,0.37871456146240234,0.6279106140136719
264,274641952.0,9.28499698638916,-2.6995439529418945,1.7035255432128906,-0.03728485107421875,-0.0031957626342773438,0.00852203369140625,-0.1466960906982422,0.6639041900634766,0.37871456146240234,0.6279106140136719
265,274642080.0,9.317319869995117,-2.846792221069336,1.6137409210205078,-0.07030868530273438,-0.04900360107421875,0.042611122131347656,-0.1466960906982422,0.6639041900634766,0.37871456146240234,0.6279106140136719
266,274642080.0,9.422667503356934,-2.944957733154297,1.6197261810302734,-0.07030868530273438,-0.04900360107421875,0.042611122131347656,-0.1466960906982422,0.6639041900634766,0.37871456146240234,0.6279106140136719
267,274642080.0,9.317319869995117,-2.846792221069336,1.6137409210205078,-0.07030868530273438,-0.04900360107421875,0.042611122131347656,-0.1466960906982422,0.6639041900634766,0.37871456146240234,0.6279106140136719
268,274642080.0,9.422667503356934,-2.944957733154297,1.6197261810302734,-0.07030868530273438,-0.04900360107421875,0.042611122131347656,-0.1466960906982422,0.6639041900634766,0.37871456146240234,0.6279106140136719
269,274642112.0,9.663291931152344,-3.1724138259887695,1.7609882354736328,-0.12783527374267578,-0.09374523162841797,0.08309268951416016,-0.1466960906982422,0.6639041900634766,0.37871456146240234,0.6279106140136719
270,274642112.0,9.839271545410156,-3.675210952758789,2.0255556106567383,-0.12783527374267578,-0.09374523162841797,0.08309268951416016,-0.1466960906982422,0.6639041900634766,0.37871456146240234,0.6279106140136719
271,274642112.0,9.663291931152344,-3.1724138259887695,1.7609882354736328,-0.12783527374267578,-0.09374523162841797,0.08309268951416016,-0.1466960906982422,0.6639041900634766,0.37871456146240234,0.6279106140136719
272,274642112.0,9.839271545410156,-3.675210952758789,2.0255556106567383,-0.12783527374267578,-0.09374523162841797,0.08309268951416016,-0.1466960906982422,0.6639041900634766,0.37871456146240234,0.6279106140136719
273,274642144.0,9.990110397338867,-4.4066619873046875,2.047104835510254,0.10759449005126953,-0.41120433807373047,0.0980072021484375,-0.1466960906982422,0.6639041900634766,0.37871456146240234,0.6279106140136719
274,274642144.0,9.990110397338867,-4.4066619873046875,2.047104835510254,0.10759449005126953,-0.41120433807373047,0.0980072021484375,-0.1466960906982422,0.6639041900634766,0.37871456146240234,0.6279106140136719
275,274642176.0,10.538399696350098,-4.1648406982421875,1.8986597061157227,0.10759449005126953,-0.41120433807373047,0.0980072021484375,-0.1466960906982422,0.6639041900634766,0.37871456146240234,0.6279106140136719
276,274642176.0,10.740715980529785,-5.051918983459473,1.419804573059082,0.10759449005126953,-0.41120433807373047,0.0980072021484375,-0.1466960906982422,0.6639041900634766,0.37871456146240234,0.6279106140136719
277,274642208.0,11.092674255371094,-6.525595664978027,2.372725486755371,0.10759449005126953,-0.41120433807373047,0.0980072021484375,-0.1466960906982422,0.6639041900634766,0.37871456146240234,0.6279106140136719
278,274642240.0,11.335693359375,-7.18641471862793,3.128119468688965,0.10759449005126953,-0.41120433807373047,0.0980072021484375,-0.1466960906982422,0.6639041900634766,0.37871456146240234,0.6279106140136719
279,274642240.0,11.21478271484375,-7.910683631896973,2.7342615127563477,0.10759449005126953,-0.41120433807373047,0.0980072021484375,-0.1466960906982422,0.6639041900634766,0.37871456146240234,0.6279106140136719
280,274642464.0,19.273910522460938,-16.806610107421875,-15.909955024719238,3.9863405227661133,0.2599315643310547,11.983524322509766,0.011911392211914062,0.25342559814453125,0.6691265106201172,0.6985607147216797
281,274642496.0,19.423553466796875,-13.465400695800781,-18.263526916503906,5.3925323486328125,-0.184295654296875,12.102837562561035,0.011911392211914062,0.25342559814453125,0.6691265106201172,0.6985607147216797
282,274642496.0,21.893247604370117,-9.538789749145508,-17.018505096435547,5.3925323486328125,-0.184295654296875,12.102837562561035,0.011911392211914062,0.25342559814453125,0.6691265106201172,0.6985607147216797
283,274642528.0,24.03013801574707,-6.617774963378906,-14.175302505493164,9.421485900878906,-0.45914268493652344,11.680980682373047,0.011911392211914062,0.25342559814453125,0.6691265106201172,0.6985607147216797
284,274642560.0,23.663814544677734,-4.558698654174805,-14.991750717163086,10.878811836242676,1.0365333557128906,10.346163749694824,0.011911392211914062,0.25342559814453125,0.6691265106201172,0.6985607147216797
285,274642560.0,23.469877243041992,-0.19633007049560547,-16.612674713134766,10.878811836242676,1.0365333557128906,10.346163749694824,0.011911392211914062,0.25342559814453125,0.6691265106201172,0.6985607147216797
286,274642592.0,21.73881721496582,5.098607063293457,-15.651372909545898,9.4694242477417,2.7154417037963867,9.375678062438965,0.011911392211914062,0.25342559814453125,0.6691265106201172,0.6985607147216797
287,274642592.0,17.42552947998047,8.95458698272705,-12.83810043334961,9.4694242477417,2.7154417037963867,9.375678062438965,0.011911392211914062,0.25342559814453125,0.6691265106201172,0.6985607147216797
288,274642624.0,12.252700805664062,11.93545913696289,-11.339284896850586,4.063041687011719,3.4632797241210938,7.638178825378418,0.011911392211914062,0.25342559814453125,0.6691265106201172,0.6985607147216797
289,274642656.0,8.007651329040527,13.864047050476074,-10.832895278930664,1.1451940536499023,2.5311450958251953,6.654909133911133,0.011911392211914062,0.25342559814453125,0.6691265106201172,0.6985607147216797
290,274642656.0,5.241066932678223,13.00689697265625,-9.346051216125488,1.1451940536499023,2.5311450958251953,6.654909133911133,0.011911392211914062,0.25342559814453125,0.6691265106201172,0.6985607147216797
291,274642688.0,4.781366348266602,11.138165473937988,-6.674039840698242,-0.6668758392333984,-0.44209766387939453,3.4909772872924805,0.011911392211914062,0.25342559814453125,0.6691265106201172,0.6985607147216797
292,274642688.0,6.480104446411133,11.545191764831543,-2.9461545944213867,-0.6668758392333984,-0.44209766387939453,3.4909772872924805,0.011911392211914062,0.25342559814453125,0.6691265106201172,0.6985607147216797
293,274642720.0,6.992478370666504,13.884398460388184,-0.7793359756469727,1.947361946105957,-1.6000757217407227,-0.15979385375976562,0.011911392211914062,0.25342559814453125,0.6691265106201172,0.6985607147216797
294,274642752.0,6.87396240234375,15.22878360748291,0.1628103256225586,1.189936637878418,-2.1955766677856445,-1.4796972274780273,0.011911392211914062,0.25342559814453125,0.6691265106201172,0.6985607147216797
295,274642752.0,7.478516578674316,15.043227195739746,-0.9098243713378906,1.189936637878418,-2.1955766677856445,-1.4796972274780273,0.011911392211914062,0.25342559814453125,0.6691265106201172,0.6985607147216797
296,274642784.0,8.055537223815918,15.984177589416504,-2.770174980163574,1.189936637878418,-2.1955766677856445,-1.4796972274780273,0.011911392211914062,0.25342559814453125,0.6691265106201172,0.6985607147216797
297,274642816.0,9.160494804382324,16.61865997314453,-5.382328987121582,1.189936637878418,-2.1955766677856445,-1.4796972274780273,0.011911392211914062,0.25342559814453125,0.6691265106201172,0.6985607147216797
298,274642816.0,13.31934928894043,14.443461418151855,-6.787768363952637,1.189936637878418,-2.1955766677856445,-1.4796972274780273,0.011911392211914062,0.25342559814453125,0.6691265106201172,0.6985607147216797
299,274642848.0,22.16020965576172,9.640546798706055,-8.87557601928711,1.189936637878418,-2.1955766677856445,-1.4796972274780273,0.011911392211914062,0.25342559814453125,0.6691265106201172,0.6985607147216797
300,274642848.0,30.131946563720703,2.569056510925293,-10.131373405456543,1.189936637878418,-2.1955766677856445,-1.4796972274780273,0.011911392211914062,0.25342559814453125,0.6691265106201172,0.6985607147216797
301,274642880.0,29.82787322998047,-1.789719581604004,-13.072739601135254,-6.924429893493652,6.506833076477051,-12.791019439697266,0.011911392211914062,0.25342559814453125,0.6691265106201172,0.6985607147216797
302,274642912.0,28.250045776367188,-1.2294597625732422,-15.620247840881348,-2.845407485961914,6.3864545822143555,-14.016111373901367,0.011911392211914062,0.25342559814453125,0.6691265106201172,0.6985607147216797
303,274642912.0,31.774417877197266,0.17957019805908203,-15.58912181854248,-2.845407485961914,6.3864545822143555,-14.016111373901367,0.011911392211914062,0.25342559814453125,0.6691265106201172,0.6985607147216797
304,274642944.0,36.65394973754883,-2.2039289474487305,-10.965777397155762,-5.245521545410156,3.505891799926758,-17.027706146240234,0.011911392211914062,0.25342559814453125,0.6691265106201172,0.6985607147216797
305,274642976.0,39.226600646972656,5.027976036071777,-9.840468406677246,-14.549824714660645,2.4256811141967773,-16.955265045166016,0.011911392211914062,0.25342559814453125,0.6691265106201172,0.6985607147216797
306,274642976.0,39.226600646972656,2.1524524688720703,-25.9024600982666,-14.549824714660645,2.4256811141967773,-16.955265045166016,0.011911392211914062,0.25342559814453125,0.6691265106201172,0.6985607147216797
307,274643008.0,39.226600646972656,-34.56734085083008,-39.226600646972656,0.40587806701660156,10.326988220214844,-17.42612648010254,0.011911392211914062,0.25342559814453125,0.6691265106201172,0.6985607147216797
308,274643008.0,34.50628662109375,-39.203853607177734,1.2522048950195312,0.40587806701660156,10.326988220214844,-17.42612648010254,0.011911392211914062,0.25342559814453125,0.6691265106201172,0.6985607147216797
309,274643040.0,6.312504768371582,-6.120963096618652,-39.226600646972656,29.785701751708984,-2.102895736694336,-8.198524475097656,0.011911392211914062,0.25342559814453125,0.6691265106201172,0.6985607147216797
310,274643264.0,13.219986915588379,-2.41103458404541,-0.7230701446533203,29.785701751708984,-2.102895736694336,-8.198524475097656,-0.14755916595458984,0.6519927978515625,0.30146026611328125,0.6798734664916992
311,274643264.0,13.219986915588379,-2.41103458404541,-0.7230701446533203,29.785701751708984,-2.102895736694336,-8.198524475097656,-0.14755916595458984,0.6519927978515625,0.30146026611328125,0.6798734664916992
312,274643296.0,12.032426834106445,2.438568115234375,1.011580467224121,29.785701751708984,-2.102895736694336,-8.198524475097656,-0.14755916595458984,0.6519927978515625,0.30146026611328125,0.6798734664916992
313,274643296.0,7.727520942687988,1.2138967514038086,0.6620168685913086,29.785701751708984,-2.102895736694336,-8.198524475097656,-0.14755916595458984,0.6519927978515625,0.30146026611328125,0.6798734664916992
314,274643296.0,12.032426834106445,2.438568115234375,1.011580467224121,29.785701751708984,-2.102895736694336,-8.198524475097656,-0.14755916595458984,0.6519927978515625,0.30146026611328125,0.6798734664916992
315,274643296.0,7.727520942687988,1.2138967514038086,0.6620168685913086,29.785701751708984,-2.102895736694336,-8.198524475097656,-0.14755916595458984,0.6519927978515625,0.30146026611328125,0.6798734664916992
316,274643328.0,7.35640811920166,-1.262979507446289,-0.44772911071777344,29.785701751708984,-2.102895736694336,-8.198524475097656,-0.14755916595458984,0.6519927978515625,0.30146026611328125,0.6798734664916992
317,274643328.0,10.072712898254395,-2.2697715759277344,-1.0834083557128906,29.785701751708984,-2.102895736694336,-8.198524475097656,-0.14755916595458984,0.6519927978515625,0.30146026611328125,0.6798734664916992
318,274643328.0,7.35640811920166,-1.262979507446289,-0.44772911071777344,29.785701751708984,-2.102895736694336,-8.198524475097656,-0.14755916595458984,0.6519927978515625,0.30146026611328125,0.6798734664916992
319,274643328.0,10.072712898254395,-2.2697715759277344,-1.0834083557128906,29.785701751708984,-2.102895736694336,-8.198524475097656,-0.14755916595458984,0.6519927978515625,0.30146026611328125,0.6798734664916992
320,274643360.0,10.345660209655762,-2.497227668762207,-0.7015218734741211,29.785701751708984,-2.102895736694336,-8.198524475097656,-0.14755916595458984,0.6519927978515625,0.30146026611328125,0.6798734664916992
321,274643392.0,9.032401084899902,-2.543916702270508,-0.2502012252807617,29.785701751708984,-2.102895736694336,-8.198524475097656,-0.14755916595458984,0.6519927978515625,0.30146026611328125,0.6798734664916992
322,274643392.0,8.59424877166748,-2.284137725830078,-0.5853996276855469,29.785701751708984,-2.102895736694336,-8.198524475097656,-0.14755916595458984,0.6519927978515625,0.30146026611328125,0.6798734664916992
323,274643424.0,8.61579704284668,-2.2985029220581055,-0.6871566772460938,29.785701751708984,-2.102895736694336,-8.198524475097656,-0.14755916595458984,0.6519927978515625,0.30146026611328125,0.6798734664916992
324,274643456.0,8.441015243530273,-2.2506179809570312,0.5135717391967773,29.785701751708984,-2.102895736694336,-8.198524475097656,-0.14755916595458984,0.6519927978515625,0.30146026611328125,0.6798734664916992
325,274643456.0,8.61460018157959,-1.8974618911743164,0.8463754653930664,29.785701751708984,-2.102895736694336,-8.198524475097656,-0.14755916595458984,0.6519927978515625,0.30146026611328125,0.6798734664916992
326,274643488.0,9.032401084899902,-1.4640989303588867,0.7015218734741211,29.785701751708984,-2.102895736694336,-8.198524475097656,-0.14755916595458984,0.6519927978515625,0.30146026611328125,0.6798734664916992
327,274643488.0,9.132960319519043,-1.9501361846923828,0.5506830215454102,29.785701751708984,-2.102895736694336,-8.198524475097656,-0.14755916595458984,0.6519927978515625,0.30146026611328125,0.6798734664916992
328,274643520.0,9.052752494812012,-3.1951589584350586,0.7122964859008789,29.785701751708984,-2.102895736694336,-8.198524475097656,-0.14755916595458984,0.6519927978515625,0.30146026611328125,0.6798734664916992
329,274643552.0,9.28380012512207,-4.022380828857422,0.42498302459716797,29.785701751708984,-2.102895736694336,-8.198524475097656,-0.14755916595458984,0.6519927978515625,0.30146026611328125,0.6798734664916992
330,274643552.0,9.507664680480957,-3.630917549133301,0.20590686798095703,29.785701751708984,-2.102895736694336,-8.198524475097656,-0.14755916595458984,0.6519927978515625,0.30146026611328125,0.6798734664916992
331,274643584.0,9.28619384765625,-3.03115177154541,0.8212356567382812,0.2897605895996094,-0.1214437484741211,-0.08202743530273438,-0.14755916595458984,0.6519927978515625,0.30146026611328125,0.6798734664916992
332,274643584.0,9.125777244567871,-3.440572738647461,1.4640989303588867,0.2897605895996094,-0.1214437484741211,-0.08202743530273438,-0.14755916595458984,0.6519927978515625,0.30146026611328125,0.6798734664916992
333,274643584.0,9.125777244567871,-3.440572738647461,1.4640989303588867,0.2897605895996094,-0.1214437484741211,-0.08202743530273438,-0.14755916595458984,0.6519927978515625,0.30146026611328125,0.6798734664916992
334,274643616.0,9.23591423034668,-3.6117630004882812,1.0355234146118164,0.2897605895996094,-0.1214437484741211,-0.08202743530273438,-0.14755916595458984,0.6519927978515625,0.30146026611328125,0.6798734664916992
335,274643616.0,9.23591423034668,-3.6117630004882812,1.0355234146118164,0.2897605895996094,-0.1214437484741211,-0.08202743530273438,-0.14755916595458984,0.6519927978515625,0.30146026611328125,0.6798734664916992
336,274643648.0,9.09465217590332,-3.185582160949707,0.888275146484375,0.2897605895996094,-0.1214437484741211,-0.08202743530273438,-0.14755916595458984,0.6519927978515625,0.30146026611328125,0.6798734664916992
337,274643648.0,9.09465217590332,-3.185582160949707,0.888275146484375,0.2897605895996094,-0.1214437484741211,-0.08202743530273438,-0.14755916595458984,0.6519927978515625,0.30146026611328125,0.6798734664916992
338,274643776.0,9.383162498474121,-3.9792842864990234,1.0307350158691406,0.4367713928222656,-0.013848304748535156,-0.31426239013671875,-0.14755916595458984,0.6519927978515625,0.30146026611328125,0.6798734664916992
339,274643776.0,9.344853401184082,-3.8188676834106445,1.048691749572754,0.4367713928222656,-0.013848304748535156,-0.31426239013671875,-0.14755916595458984,0.6519927978515625,0.30146026611328125,0.6798734664916992
340,274643808.0,9.158100128173828,-3.956538200378418,1.2545995712280273,0.4367713928222656,-0.013848304748535156,-0.31426239013671875,-0.14755916595458984,0.6519927978515625,0.30146026611328125,0.6798734664916992
341,274643808.0,9.124580383300781,-3.833232879638672,1.1588287353515625,0.4367713928222656,-0.013848304748535156,-0.31426239013671875,-0.14755916595458984,0.6519927978515625,0.30146026611328125,0.6798734664916992
342,274643840.0,9.239505767822266,-3.7207021713256836,0.920598030090332,0.4367713928222656,-0.013848304748535156,-0.31426239013671875,-0.14755916595458984,0.6519927978515625,0.30146026611328125,0.6798734664916992
343,274643872.0,9.221549034118652,-3.6596479415893555,0.7242679595947266,0.02769756317138672,0.053264617919921875,0.013848304748535156,-0.14755916595458984,0.6519927978515625,0.30146026611328125,0.6798734664916992
344,274643872.0,9.106623649597168,-3.8559789657592773,0.6943387985229492,0.02769756317138672,0.053264617919921875,0.013848304748535156,-0.14755916595458984,0.6519927978515625,0.30146026611328125,0.6798734664916992
345,274643904.0,9.085075378417969,-3.901470184326172,0.8691215515136719,0.13422679901123047,0.03621959686279297,0.014913558959960938,-0.14755916595458984,0.6519927978515625,0.30146026611328125,0.6798734664916992
346,274643904.0,9.294573783874512,-3.642888069152832,0.8164472579956055,0.13422679901123047,0.03621959686279297,0.014913558959960938,-0.14755916595458984,0.6519927978515625,0.30146026611328125,0.6798734664916992
347,274643936.0,9.289785385131836,-3.529160499572754,0.6979303359985352,0.08415794372558594,0.08202743530273438,0.040480613708496094,-0.14755916595458984,0.6519927978515625,0.30146026611328125,0.6798734664916992
348,274643968.0,9.168874740600586,-3.617748260498047,0.7506046295166016,0.04793834686279297,0.09267997741699219,0.04474163055419922,-0.14755916595458984,0.6519927978515625,0.30146026611328125,0.6798734664916992
349,274643968.0,9.1868314743042,-3.6692256927490234,0.7637729644775391,0.04793834686279297,0.09267997741699219,0.04474163055419922,-0.14755916595458984,0.6519927978515625,0.30146026611328125,0.6798734664916992
350,274643968.0,9.168874740600586,-3.617748260498047,0.7506046295166016,0.04793834686279297,0.09267997741699219,0.04474163055419922,-0.14755916595458984,0.6519927978515625,0.30146026611328125,0.6798734664916992
351,274643968.0,9.1868314743042,-3.6692256927490234,0.7637729644775391,0.04793834686279297,0.09267997741699219,0.04474163055419922,-0.14755916595458984,0.6519927978515625,0.30146026611328125,0.6798734664916992
352,274644000.0,9.111412048339844,-3.5435256958007812,0.678776741027832,0.0170440673828125,0.11079025268554688,0.05006885528564453,-0.14755916595458984,0.6519927978515625,0.30146026611328125,0.6798734664916992
353,274644000.0,9.111412048339844,-3.5435256958007812,0.678776741027832,0.0170440673828125,0.11079025268554688,0.05006885528564453,-0.14755916595458984,0.6519927978515625,0.30146026611328125,0.6798734664916992
354,274644032.0,8.943812370300293,-3.5040206909179688,0.7242679595947266,0.007456779479980469,0.04900360107421875,0.045806884765625,-0.14755916595458984,0.6519927978515625,0.30146026611328125,0.6798734664916992
355,274644032.0,8.972543716430664,-3.484866142272949,0.7362394332885742,0.007456779479980469,0.04900360107421875,0.045806884765625,-0.14755916595458984,0.6519927978515625,0.30146026611328125,0.6798734664916992
356,274644032.0,8.943812370300293,-3.5040206909179688,0.7242679595947266,0.007456779479980469,0.04900360107421875,0.045806884765625,-0.14755916595458984,0.6519927978515625,0.30146026611328125,0.6798734664916992
357,274644032.0,8.972543716430664,-3.484866142272949,0.7362394332885742,0.007456779479980469,0.04900360107421875,0.045806884765625,-0.14755916595458984,0.6519927978515625,0.30146026611328125,0.6798734664916992
358,274644160.0,9.201197624206543,-3.34360408782959,0.855952262878418,0.14061832427978516,-0.04687213897705078,0.041545867919921875,-0.14755916595458984,0.6519927978515625,0.30146026611328125,0.6798734664916992
359,274644160.0,9.201197624206543,-3.34360408782959,0.855952262878418,0.14061832427978516,-0.04687213897705078,0.041545867919921875,-0.14755916595458984,0.6519927978515625,0.30146026611328125,0.6798734664916992
360,274644192.0,9.11500358581543,-3.2598047256469727,0.7829275131225586,0.14061832427978516,-0.06391716003417969,-0.014913558959960938,-0.14755916595458984,0.6519927978515625,0.30146026611328125,0.6798734664916992
361,274644192.0,9.038386344909668,-3.3627586364746094,0.7745475769042969,0.14061832427978516,-0.06391716003417969,-0.014913558959960938,-0.14755916595458984,0.6519927978515625,0.30146026611328125,0.6798734664916992
362,274644192.0,9.11500358581543,-3.2598047256469727,0.7829275131225586,0.14061832427978516,-0.06391716003417969,-0.014913558959960938,-0.14755916595458984,0.6519927978515625,0.30146026611328125,0.6798734664916992
363,274644192.0,9.038386344909668,-3.3627586364746094,0.7745475769042969,0.14061832427978516,-0.06391716003417969,-0.014913558959960938,-0.14755916595458984,0.6519927978515625,0.30146026611328125,0.6798734664916992
364,274644224.0,9.159296989440918,-3.520780563354492,0.8320102691650391,0.24608325958251953,-0.061786651611328125,-0.04367637634277344,-0.14755916595458984,0.6519927978515625,0.30146026611328125,0.6798734664916992
365,274644224.0,9.18443775177002,-3.618946075439453,0.7841243743896484,0.24608325958251953,-0.061786651611328125,-0.04367637634277344,-0.14755916595458984,0.6519927978515625,0.30146026611328125,0.6798734664916992
366,274644224.0,9.159296989440918,-3.520780563354492,0.8320102691650391,0.24608325958251953,-0.061786651611328125,-0.04367637634277344,-0.14755916595458984,0.6519927978515625,0.30146026611328125,0.6798734664916992
367,274644224.0,9.18443775177002,-3.618946075439453,0.7841243743896484,0.24608325958251953,-0.061786651611328125,-0.04367637634277344,-0.14755916595458984,0.6519927978515625,0.30146026611328125,0.6798734664916992
368,274644256.0,9.109017372131348,-3.751828193664551,0.767364501953125,0.6860504150390625,-0.023435592651367188,-0.09587669372558594,-0.14755916595458984,0.6519927978515625,0.30146026611328125,0.6798734664916992
369,274644256.0,9.0970458984375,-3.798516273498535,0.7146902084350586,0.6860504150390625,-0.023435592651367188,-0.09587669372558594,-0.14755916595458984,0.6519927978515625,0.30146026611328125,0.6798734664916992
370,274644288.0,9.087469100952148,-3.834430694580078,0.7853212356567383,1.0226850509643555,-0.021305084228515625,-0.12250900268554688,-0.14755916595458984,0.6519927978515625,0.30146026611328125,0.6798734664916992
371,274644288.0,9.088665962219238,-3.5135974884033203,1.204319953918457,1.0226850509643555,-0.021305084228515625,-0.12250900268554688,-0.14755916595458984,0.6519927978515625,0.30146026611328125,0.6798734664916992
372,274644288.0,9.131763458251953,-3.784151077270508,1.0032005310058594,1.0226850509643555,-0.021305084228515625,-0.12250900268554688,-0.14755916595458984,0.6519927978515625,0.30146026611328125,0.6798734664916992
373,274644320.0,9.080286026000977,-3.0790367126464844,1.36114501953125,1.0280113220214844,-0.06817817687988281,-0.11292076110839844,-0.14755916595458984,0.6519927978515625,0.30146026611328125,0.6798734664916992
374,274644320.0,9.037189483642578,-3.246636390686035,1.2462196350097656,1.0280113220214844,-0.06817817687988281,-0.11292076110839844,-0.14755916595458984,0.6519927978515625,0.30146026611328125,0.6798734664916992
375,274644320.0,9.171268463134766,-2.9234085083007812,1.5215606689453125,1.0280113220214844,-0.06817817687988281,-0.11292076110839844,-0.14755916595458984,0.6519927978515625,0.30146026611328125,0.6798734664916992
376,274644352.0,9.259857177734375,-2.880311965942383,1.5323352813720703,1.0280113220214844,-0.06817817687988281,-0.11292076110839844,-0.14755916595458984,0.6519927978515625,0.30146026611328125,0.6798734664916992
377,274644448.0,9.179648399353027,-3.3412094116210938,1.4257898330688477,1.0280113220214844,-0.06817817687988281,-0.11292076110839844,-0.13793468475341797,0.6377935409545898,0.40680980682373047,0.6392612457275391
378,274644480.0,9.158100128173828,-3.3867006301879883,1.3970584869384766,1.0280113220214844,-0.06817817687988281,-0.11292076110839844,-0.13819313049316406,0.6379232406616211,0.40685367584228516,0.6390886306762695
379,274644480.0,9.247885704040527,-3.4250097274780273,1.3431873321533203,1.0280113220214844,-0.06817817687988281,-0.11292076110839844,-0.13819313049316406,0.6379232406616211,0.40685367584228516,0.6390886306762695
380,274644512.0,9.279010772705078,-3.365152359008789,1.3168506622314453,1.0280113220214844,-0.06817817687988281,-0.11292076110839844,-0.13871097564697266,0.6377506256103516,0.40788936614990234,0.638484001159668
381,274644512.0,9.192817687988281,-3.1652307510375977,1.2905139923095703,1.0280113220214844,-0.06817817687988281,-0.11292076110839844,-0.13871097564697266,0.6377506256103516,0.40788936614990234,0.638484001159668
382,274644544.0,9.210774421691895,-3.2538185119628906,1.4018478393554688,1.0280113220214844,-0.06817817687988281,-0.11292076110839844,-0.13871097564697266,0.6377506256103516,0.40788936614990234,0.638484001159668
383,274644544.0,9.23591423034668,-3.270578384399414,1.3312158584594727,1.0280113220214844,-0.06817817687988281,-0.11292076110839844,-0.13871097564697266,0.6377506256103516,0.40788936614990234,0.638484001159668
384,274644576.0,9.282602310180664,-3.249030113220215,1.2354450225830078,1.0280113220214844,-0.06817817687988281,-0.11292076110839844,-0.13871097564697266,0.6377506256103516,0.40788936614990234,0.638484001159668
385,274644576.0,9.223942756652832,-3.270578384399414,1.2234735488891602,1.0280113220214844,-0.06817817687988281,-0.11292076110839844,-0.13871097564697266,0.6377506256103516,0.40788936614990234,0.638484001159668
386,274644576.0,9.290982246398926,-3.251424789428711,1.2246713638305664,1.0280113220214844,-0.06817817687988281,-0.11292076110839844,-0.13871097564697266,0.6377506256103516,0.40788936614990234,0.638484001159668
387,274644608.0,9.118595123291016,-3.2274818420410156,1.2725563049316406,1.0280113220214844,-0.06817817687988281,-0.11292076110839844,-0.13871097564697266,0.6377506256103516,0.40788936614990234,0.638484001159668
388,274644608.0,9.165283203125,-3.2562131881713867,1.2354450225830078,1.0280113220214844,-0.06817817687988281,-0.11292076110839844,-0.13871097564697266,0.6377506256103516,0.40788936614990234,0.638484001159668
389,274644608.0,9.059934616088867,-3.246636390686035,1.2557964324951172,1.0280113220214844,-0.06817817687988281,-0.11292076110839844,-0.13871097564697266,0.6377506256103516,0.40788936614990234,0.638484001159668
390,274644640.0,9.0754976272583,-3.3148727416992188,1.2354450225830078,1.0280113220214844,-0.06817817687988281,-0.11292076110839844,-0.13871097564697266,0.6377506256103516,0.40788936614990234,0.638484001159668
391,274644640.0,9.199999809265137,-3.374730110168457,1.1923484802246094,1.0280113220214844,-0.06817817687988281,-0.11292076110839844,-0.13871097564697266,0.6377506256103516,0.40788936614990234,0.638484001159668
392,274644640.0,9.141340255737305,-3.371138572692871,1.2246713638305664,1.0280113220214844,-0.06817817687988281,-0.11292076110839844,-0.13871097564697266,0.6377506256103516,0.40788936614990234,0.638484001159668
393,274644672.0,9.18563461303711,-3.312479019165039,1.1468572616577148,0.05965614318847656,0.0287628173828125,0.01597881317138672,-0.13871097564697266,0.6377506256103516,0.40788936614990234,0.638484001159668
394,274644672.0,9.122185707092285,-3.277761459350586,1.1887569427490234,0.05965614318847656,0.0287628173828125,0.01597881317138672,-0.13871097564697266,0.6377506256103516,0.40788936614990234,0.638484001159668
395,274644704.0,9.0754976272583,-3.2669878005981445,1.2462196350097656,0.025567054748535156,-0.013848304748535156,0.020239830017089844,-0.13871097564697266,0.6377506256103516,0.40788936614990234,0.638484001159668
396,274644704.0,9.191619873046875,-3.174807548522949,1.2845277786254883,0.025567054748535156,-0.013848304748535156,0.020239830017089844,-0.13871097564697266,0.6377506256103516,0.40788936614990234,0.638484001159668
397,274644736.0,9.191619873046875,-3.1700191497802734,1.145660400390625,-0.020239830017089844,0.0,0.02982807159423828,-0.13871097564697266,0.6377506256103516,0.40788936614990234,0.638484001159668
398,274644864.0,9.106623649597168,-3.361560821533203,1.200728416442871,0.060721397399902344,-0.02769756317138672,-0.005326271057128906,-0.14117145538330078,0.6356363296508789,0.40939998626708984,0.6391315460205078
399,274644864.0,9.176057815551758,-3.3017044067382812,1.2821340560913086,0.060721397399902344,-0.02769756317138672,-0.005326271057128906,-0.14117145538330078,0.6356363296508789,0.40939998626708984,0.6391315460205078
400,274644896.0,9.282602310180664,-3.1592445373535156,1.3204421997070312,0.060721397399902344,-0.02769756317138672,-0.005326271057128906,-0.1425952911376953,0.6350317001342773,0.41009044647216797,0.638916015625
401,274644928.0,9.240702629089355,-3.148470878601074,1.3300189971923828,0.060721397399902344,-0.02769756317138672,-0.005326271057128906,-0.14402008056640625,0.6343412399291992,0.4105215072631836,0.6390457153320312
402,274644928.0,9.190423011779785,-3.2502269744873047,1.2857246398925781,0.060721397399902344,-0.02769756317138672,-0.005326271057128906,-0.14402008056640625,0.6343412399291992,0.4105215072631836,0.6390457153320312
403,274645056.0,9.208379745483398,-3.2861413955688477,1.4018478393554688,0.02769756317138672,-0.040480613708496094,-0.013848304748535156,-0.14630699157714844,0.6327877044677734,0.4110393524169922,0.6396923065185547
404,274645088.0,9.21556282043457,-3.2035388946533203,1.4126214981079102,0.02769756317138672,-0.040480613708496094,-0.013848304748535156,-0.14630699157714844,0.6327877044677734,0.4110393524169922,0.6396923065185547
405,274645088.0,9.239505767822266,-3.1652307510375977,1.3383989334106445,0.02769756317138672,-0.040480613708496094,-0.013848304748535156,-0.14630699157714844,0.6327877044677734,0.4110393524169922,0.6396923065185547
406,274645120.0,9.152114868164062,-3.2681846618652344,1.3204421997070312,0.02769756317138672,-0.040480613708496094,-0.013848304748535156,-0.14630699157714844,0.6327877044677734,0.4110393524169922,0.6396923065185547
407,274645120.0,9.188028335571289,-3.3232526779174805,1.3108654022216797,0.02769756317138672,-0.040480613708496094,-0.013848304748535156,-0.14630699157714844,0.6327877044677734,0.4110393524169922,0.6396923065185547
408,274645344.0,9.156903266906738,-3.2873382568359375,1.266571044921875,-0.01810932159423828,-0.0010652542114257812,-0.01810932159423828,-0.14911270141601562,0.632960319519043,0.41009044647216797,0.6394767761230469
409,274645344.0,9.156903266906738,-3.2873382568359375,1.266571044921875,-0.01810932159423828,-0.0010652542114257812,-0.01810932159423828,-0.14911270141601562,0.632960319519043,0.41009044647216797,0.6394767761230469
410,274645376.0,9.209577560424805,-3.240650177001953,1.2749509811401367,0.0,-0.009587287902832031,-0.01810932159423828,-0.14911270141601562,0.632960319519043,0.41009044647216797,0.6394767761230469
411,274645376.0,9.209577560424805,-3.240650177001953,1.2749509811401367,0.0,-0.009587287902832031,-0.01810932159423828,-0.14911270141601562,0.632960319519043,0.41009044647216797,0.6394767761230469
412,274645408.0,9.263448715209961,-3.1975536346435547,1.2713594436645508,-0.03728485107421875,0.0010652542114257812,-0.0063915252685546875,-0.14911270141601562,0.632960319519043,0.41009044647216797,0.6394767761230469
413,274645408.0,9.190423011779785,-3.22269344329834,1.2103052139282227,-0.03728485107421875,0.0010652542114257812,-0.0063915252685546875,-0.14911270141601562,0.632960319519043,0.41009044647216797,0.6394767761230469
414,274645408.0,9.263448715209961,-3.1975536346435547,1.2713594436645508,-0.03728485107421875,0.0010652542114257812,-0.0063915252685546875,-0.14911270141601562,0.632960319519043,0.41009044647216797,0.6394767761230469
415,274645408.0,9.190423011779785,-3.22269344329834,1.2103052139282227,-0.03728485107421875,0.0010652542114257812,-0.0063915252685546875,-0.14911270141601562,0.632960319519043,0.41009044647216797,0.6394767761230469
416,274645440.0,9.160494804382324,-3.258607864379883,1.2438249588012695,-0.041545867919921875,0.0,-0.007456779479980469,-0.14911270141601562,0.632960319519043,0.41009044647216797,0.6394767761230469
417,274645440.0,9.160494804382324,-3.258607864379883,1.2438249588012695,-0.041545867919921875,0.0,-0.007456779479980469,-0.14911270141601562,0.632960319519043,0.41009044647216797,0.6394767761230469
418,274645440.0,9.18563461303711,-3.302901268005371,1.29290771484375,-0.041545867919921875,0.0,-0.007456779479980469,-0.14911270141601562,0.632960319519043,0.41009044647216797,0.6394767761230469
419,274645472.0,9.252674102783203,-3.269381523132324,1.2749509811401367,-0.041545867919921875,0.0,-0.007456779479980469,-0.14911270141601562,0.632960319519043,0.41009044647216797,0.6394767761230469
420,274645504.0,9.239505767822266,-3.2095251083374023,1.2785425186157227,-0.041545867919921875,0.0,-0.007456779479980469,-0.14911270141601562,0.632960319519043,0.41009044647216797,0.6394767761230469
421,274645504.0,9.150917053222656,-3.210721969604492,1.2510080337524414,-0.041545867919921875,0.0,-0.007456779479980469,-0.14911270141601562,0.632960319519043,0.41009044647216797,0.6394767761230469
422,274645536.0,9.132960319519043,-3.295718193054199,1.2450227737426758,-0.0287628173828125,-0.007456779479980469,0.0,-0.14911270141601562,0.632960319519043,0.41009044647216797,0.6394767761230469
423,274645664.0,9.233519554138184,-3.158047676086426,1.1923484802246094,-0.021305084228515625,0.0010652542114257812,0.0031957626342773438,-0.14911270141601562,0.632960319519043,0.41009044647216797,0.6394767761230469
424,274645664.0,9.134157180786133,-3.15206241607666,1.1887569427490234,-0.021305084228515625,0.0010652542114257812,0.0031957626342773438,-0.14911270141601562,0.632960319519043,0.41009044647216797,0.6394767761230469
425,274645696.0,9.158100128173828,-3.244241714477539,1.1815738677978516,0.0,-0.02769756317138672,-0.02769756317138672,-0.14911270141601562,0.632960319519043,0.41009044647216797,0.6394767761230469
426,274645728.0,9.261054039001465,-3.3005075454711914,1.2198820114135742,0.05859088897705078,-0.01810932159423828,-0.034089088439941406,-0.14911270141601562,0.632960319519043,0.41009044647216797,0.6394767761230469
427,274645728.0,9.240702629089355,-3.1879758834838867,1.2857246398925781,0.05859088897705078,-0.01810932159423828,-0.034089088439941406,-0.14911270141601562,0.632960319519043,0.41009044647216797,0.6394767761230469
428,274645728.0,9.23471736907959,-3.116147994995117,1.2737541198730469,0.05859088897705078,-0.01810932159423828,-0.034089088439941406,-0.14911270141601562,0.632960319519043,0.41009044647216797,0.6394767761230469
429,274645760.0,9.195211410522461,-3.1065711975097656,1.2749509811401367,0.05859088897705078,-0.01810932159423828,-0.034089088439941406,-0.14911270141601562,0.632960319519043,0.41009044647216797,0.6394767761230469
430,274645760.0,9.092257499694824,-3.2286787033081055,1.2761478424072266,0.05859088897705078,-0.01810932159423828,-0.034089088439941406,-0.14911270141601562,0.632960319519043,0.41009044647216797,0.6394767761230469
431,274645760.0,9.132960319519043,-3.1616392135620117,1.2821340560913086,0.05859088897705078,-0.01810932159423828,-0.034089088439941406,-0.14911270141601562,0.632960319519043,0.41009044647216797,0.6394767761230469
432,274645792.0,9.180846214294434,-3.3531808853149414,1.262979507446289,0.05859088897705078,-0.01810932159423828,-0.034089088439941406,-0.14911270141601562,0.632960319519043,0.41009044647216797,0.6394767761230469
433,274645792.0,9.099440574645996,-3.2945213317871094,1.2210798263549805,0.05859088897705078,-0.01810932159423828,-0.034089088439941406,-0.14911270141601562,0.632960319519043,0.41009044647216797,0.6394767761230469
434,274645792.0,9.250279426574707,-3.307689666748047,1.2857246398925781,0.05859088897705078,-0.01810932159423828,-0.034089088439941406,-0.14911270141601562,0.632960319519043,0.41009044647216797,0.6394767761230469
435,274645824.0,9.288588523864746,-3.214313507080078,1.2593879699707031,0.05859088897705078,-0.01810932159423828,-0.034089088439941406,-0.14911270141601562,0.632960319519043,0.41009044647216797,0.6394767761230469
436,274645824.0,9.243097305297852,-3.183187484741211,1.2462196350097656,0.05859088897705078,-0.01810932159423828,-0.034089088439941406,-0.14911270141601562,0.632960319519043,0.41009044647216797,0.6394767761230469
437,274645824.0,9.282602310180664,-3.189173698425293,1.2510080337524414,0.05859088897705078,-0.01810932159423828,-0.034089088439941406,-0.14911270141601562,0.632960319519043,0.41009044647216797,0.6394767761230469
438,274645856.0,9.210774421691895,-3.1760053634643555,1.230656623840332,-0.06498241424560547,0.0021305084228515625,-0.005326271057128906,-0.14911270141601562,0.632960319519043,0.41009044647216797,0.6394767761230469
439,274645856.0,9.179648399353027,-3.3005075454711914,1.1971368789672852,-0.06498241424560547,0.0021305084228515625,-0.005326271057128906,-0.14911270141601562,0.632960319519043,0.41009044647216797,0.6394767761230469
440,274645888.0,9.201197624206543,-3.320858955383301,1.201925277709961,-0.005326271057128906,-0.01597881317138672,0.0,-0.14911270141601562,0.632960319519043,0.41009044647216797,0.6394767761230469
441,274645888.0,9.268237113952637,-3.2202987670898438,1.1875600814819336,-0.005326271057128906,-0.01597881317138672,0.0,-0.14911270141601562,0.632960319519043,0.41009044647216797,0.6394767761230469
442,274645920.0,9.219154357910156,-3.1879758834838867,1.1815738677978516,-0.019174575805664062,-0.0010652542114257812,0.004261016845703125,-0.14911270141601562,0.632960319519043,0.41009044647216797,0.6394767761230469
443,274645952.0,9.165283203125,-3.2250871658325195,1.168405532836914,-0.019174575805664062,-0.0010652542114257812,0.004261016845703125,-0.14911270141601562,0.632960319519043,0.41009044647216797,0.6394767761230469
444,274646048.0,9.182043075561523,-3.2011451721191406,1.1839685440063477,0.022370338439941406,-0.021305084228515625,-0.0170440673828125,-0.14911270141601562,0.632960319519043,0.41009044647216797,0.6394767761230469
445,274646048.0,9.182043075561523,-3.2011451721191406,1.1839685440063477,0.022370338439941406,-0.021305084228515625,-0.0170440673828125,-0.14911270141601562,0.632960319519043,0.41009044647216797,0.6394767761230469
446,274646048.0,9.182043075561523,-3.2011451721191406,1.1839685440063477,0.022370338439941406,-0.021305084228515625,-0.0170440673828125,-0.14911270141601562,0.632960319519043,0.41009044647216797,0.6394767761230469
447,274646080.0,9.239505767822266,-3.123331069946289,1.1911516189575195,-0.007456779479980469,-0.0170440673828125,-0.020239830017089844,-0.14911270141601562,0.632960319519043,0.41009044647216797,0.6394767761230469
448,274646080.0,9.23591423034668,-3.113753318786621,1.1636171340942383,-0.007456779479980469,-0.0170440673828125,-0.020239830017089844,-0.14911270141601562,0.632960319519043,0.41009044647216797,0.6394767761230469
449,274646080.0,9.239505767822266,-3.123331069946289,1.1911516189575195,-0.007456779479980469,-0.0170440673828125,-0.020239830017089844,-0.14911270141601562,0.632960319519043,0.41009044647216797,0.6394767761230469
450,274646080.0,9.23591423034668,-3.113753318786621,1.1636171340942383,-0.007456779479980469,-0.0170440673828125,-0.020239830017089844,-0.14911270141601562,0.632960319519043,0.41009044647216797,0.6394767761230469
451,274646080.0,9.239505767822266,-3.123331069946289,1.1911516189575195,-0.007456779479980469,-0.0170440673828125,-0.020239830017089844,-0.14911270141601562,0.632960319519043,0.41009044647216797,0.6394767761230469
452,274646080.0,9.23591423034668,-3.113753318786621,1.1636171340942383,-0.007456779479980469,-0.0170440673828125,-0.020239830017089844,-0.14911270141601562,0.632960319519043,0.41009044647216797,0.6394767761230469
453,274646112.0,9.161691665649414,-3.2382564544677734,1.1241111755371094,-0.040480613708496094,-0.007456779479980469,-0.0287628173828125,-0.14911270141601562,0.632960319519043,0.41009044647216797,0.6394767761230469
454,274646112.0,9.161691665649414,-3.2382564544677734,1.1241111755371094,-0.040480613708496094,-0.007456779479980469,-0.0287628173828125,-0.14911270141601562,0.632960319519043,0.41009044647216797,0.6394767761230469
455,274646112.0,9.161691665649414,-3.2382564544677734,1.1241111755371094,-0.040480613708496094,-0.007456779479980469,-0.0287628173828125,-0.14911270141601562,0.632960319519043,0.41009044647216797,0.6394767761230469
456,274646144.0,9.189226150512695,-3.2909297943115234,1.1145343780517578,-0.040480613708496094,-0.007456779479980469,-0.0287628173828125,-0.14911270141601562,0.632960319519043,0.41009044647216797,0.6394767761230469
457,274646144.0,9.189226150512695,-3.2909297943115234,1.1145343780517578,-0.040480613708496094,-0.007456779479980469,-0.0287628173828125,-0.14911270141601562,0.632960319519043,0.41009044647216797,0.6394767761230469
458,274646144.0,9.189226150512695,-3.2909297943115234,1.1145343780517578,-0.040480613708496094,-0.007456779479980469,-0.0287628173828125,-0.14911270141601562,0.632960319519043,0.41009044647216797,0.6394767761230469
459,274646240.0,9.341261863708496,-3.1652307510375977,1.1408710479736328,0.024501800537109375,-0.03941535949707031,-0.004261016845703125,-0.15109825134277344,0.6326580047607422,0.40236473083496094,0.6442241668701172
460,274646272.0,9.233519554138184,-3.2023420333862305,1.169602394104004,-0.040480613708496094,-0.004261016845703125,0.010652542114257812,-0.15088176727294922,0.6325283050537109,0.4021492004394531,0.644526481628418
461,274646304.0,9.170071601867676,-3.276564598083496,1.1839685440063477,-0.01810932159423828,-0.01810932159423828,0.00852203369140625,-0.15075302124023438,0.6324853897094727,0.4020195007324219,0.6447420120239258
462,274646304.0,9.23471736907959,-3.269381523132324,1.1959400177001953,-0.01810932159423828,-0.01810932159423828,0.00852203369140625,-0.15075302124023438,0.6324853897094727,0.4020195007324219,0.6447420120239258
463,274646336.0,9.251477241516113,-3.160442352294922,1.1971368789672852,0.019174575805664062,-0.01810932159423828,0.010652542114257812,-0.15088176727294922,0.6323127746582031,0.4020195007324219,0.6447858810424805
464,274646336.0,9.23711109161377,-3.1628360748291016,1.1372804641723633,0.019174575805664062,-0.01810932159423828,0.010652542114257812,-0.15088176727294922,0.6323127746582031,0.4020195007324219,0.6447858810424805
465,274646368.0,9.289785385131836,-3.2095251083374023,1.1827716827392578,0.019174575805664062,-0.01810932159423828,0.010652542114257812,-0.15088176727294922,0.6323127746582031,0.4020195007324219,0.6447858810424805
466,274646400.0,9.273025512695312,-3.2562131881713867,1.1899538040161133,0.019174575805664062,-0.01810932159423828,0.010652542114257812,-0.15088176727294922,0.6323127746582031,0.4020195007324219,0.6447858810424805
467,274646400.0,9.258659362792969,-3.1616392135620117,1.2031221389770508,0.019174575805664062,-0.01810932159423828,0.010652542114257812,-0.15088176727294922,0.6323127746582031,0.4020195007324219,0.6447858810424805
468,274646432.0,9.26584243774414,-3.1041765213012695,1.200728416442871,0.019174575805664062,-0.01810932159423828,0.010652542114257812,-0.15088176727294922,0.6323127746582031,0.4020195007324219,0.6447858810424805
469,274646464.0,9.209577560424805,-3.1975536346435547,1.1672086715698242,0.019174575805664062,-0.01810932159423828,0.010652542114257812,-0.15088176727294922,0.6323127746582031,0.4020195007324219,0.6447858810424805
470,274646464.0,9.210774421691895,-3.2645931243896484,1.1372804641723633,0.019174575805664062,-0.01810932159423828,0.010652542114257812,-0.15088176727294922,0.6323127746582031,0.4020195007324219,0.6447858810424805
471,274646496.0,9.262250900268555,-3.2358617782592773,1.1719970703125,0.019174575805664062,-0.01810932159423828,0.010652542114257812,-0.15088176727294922,0.6323127746582031,0.4020195007324219,0.6447858810424805
472,274646496.0,9.314925193786621,-3.1185426712036133,1.1600255966186523,0.019174575805664062,-0.01810932159423828,0.010652542114257812,-0.15088176727294922,0.6323127746582031,0.4020195007324219,0.6447858810424805
473,274646528.0,9.208379745483398,-3.116147994995117,1.168405532836914,-0.040480613708496094,0.0170440673828125,0.02982807159423828,-0.15088176727294922,0.6323127746582031,0.4020195007324219,0.6447858810424805
474,274646560.0,9.136551856994629,-3.192765235900879,1.132491111755371,-0.02769756317138672,-0.004261016845703125,0.024501800537109375,-0.15088176727294922,0.6323127746582031,0.4020195007324219,0.6447858810424805
475,274646560.0,9.263448715209961,-3.2238903045654297,1.132491111755371,-0.02769756317138672,-0.004261016845703125,0.024501800537109375,-0.15088176727294922,0.6323127746582031,0.4020195007324219,0.6447858810424805
476,274646560.0,9.136551856994629,-3.192765235900879,1.132491111755371,-0.02769756317138672,-0.004261016845703125,0.024501800537109375,-0.15088176727294922,0.6323127746582031,0.4020195007324219,0.6447858810424805
477,274646560.0,9.263448715209961,-3.2238903045654297,1.132491111755371,-0.02769756317138672,-0.004261016845703125,0.024501800537109375,-0.15088176727294922,0.6323127746582031,0.4020195007324219,0.6447858810424805
478,274646592.0,9.318516731262207,-3.113753318786621,1.175588607788086,0.021305084228515625,0.009587287902832031,0.0170440673828125,-0.15088176727294922,0.6323127746582031,0.4020195007324219,0.6447858810424805
479,274646592.0,9.318516731262207,-3.113753318786621,1.175588607788086,0.021305084228515625,0.009587287902832031,0.0170440673828125,-0.15088176727294922,0.6323127746582031,0.4020195007324219,0.6447858810424805
480,274646624.0,9.195211410522461,-3.1113595962524414,1.175588607788086,0.0,0.009587287902832031,0.0063915252685546875,-0.15088176727294922,0.6323127746582031,0.4020195007324219,0.6447858810424805
481,274646624.0,9.18563461303711,-3.1412878036499023,1.1516456604003906,0.0,0.009587287902832031,0.0063915252685546875,-0.15088176727294922,0.6323127746582031,0.4020195007324219,0.6447858810424805
482,274646624.0,9.195211410522461,-3.1113595962524414,1.175588607788086,0.0,0.009587287902832031,0.0063915252685546875,-0.15088176727294922,0.6323127746582031,0.4020195007324219,0.6447858810424805
483,274646624.0,9.18563461303711,-3.1412878036499023,1.1516456604003906,0.0,0.009587287902832031,0.0063915252685546875,-0.15088176727294922,0.6323127746582031,0.4020195007324219,0.6447858810424805
484,274646752.0,9.259857177734375,-3.1772022247314453,1.1384773254394531,-0.022370338439941406,0.0063915252685546875,-0.012783050537109375,-0.15088176727294922,0.6323127746582031,0.4020195007324219,0.6447858810424805
485,274646784.0,9.231125831604004,-3.2059335708618164,1.1253089904785156,-0.022370338439941406,0.0063915252685546875,-0.012783050537109375,-0.15088176727294922,0.6323127746582031,0.4020195007324219,0.6447858810424805
486,274646784.0,9.150917053222656,-3.219101905822754,1.1229143142700195,-0.022370338439941406,0.0063915252685546875,-0.012783050537109375,-0.15088176727294922,0.6323127746582031,0.4020195007324219,0.6447858810424805
487,274646816.0,9.257462501525879,-3.2071304321289062,1.107351303100586,-0.022370338439941406,0.0063915252685546875,-0.012783050537109375,-0.15088176727294922,0.6323127746582031,0.4020195007324219,0.6447858810424805
488,274646816.0,9.312531471252441,-3.1807937622070312,1.1121397018432617,-0.022370338439941406,0.0063915252685546875,-0.012783050537109375,-0.15088176727294922,0.6323127746582031,0.4020195007324219,0.6447858810424805
489,274646848.0,9.263448715209961,-3.148470878601074,1.1624202728271484,-0.0287628173828125,-0.005326271057128906,-0.0031957626342773438,-0.15088176727294922,0.6323127746582031,0.4020195007324219,0.6447858810424805
490,274646880.0,9.247885704040527,-3.2298765182495117,1.1193227767944336,-0.05646038055419922,-0.0170440673828125,0.007456779479980469,-0.15088176727294922,0.6323127746582031,0.4020195007324219,0.6447858810424805
491,274646880.0,9.299362182617188,-3.2717761993408203,1.0846061706542969,-0.05646038055419922,-0.0170440673828125,0.007456779479980469,-0.15088176727294922,0.6323127746582031,0.4020195007324219,0.6447858810424805
492,274646912.0,9.383162498474121,-3.427403450012207,1.0582685470581055,-0.29721736907958984,-0.07350540161132812,0.09374523162841797,-0.15088176727294922,0.6323127746582031,0.4020195007324219,0.6447858810424805
493,274646912.0,9.658503532409668,-3.5447235107421875,1.0199604034423828,-0.29721736907958984,-0.07350540161132812,0.09374523162841797,-0.15088176727294922,0.6323127746582031,0.4020195007324219,0.6447858810424805
494,274647040.0,10.679661750793457,-6.6093950271606445,0.12210750579833984,-0.4037466049194336,-0.4953622817993164,0.8735427856445312,-0.11493110656738281,0.6174659729003906,0.3899354934692383,0.6733989715576172
495,274647072.0,10.9573974609375,-9.02521800994873,-0.2442159652709961,-0.4037466049194336,-0.4953622817993164,0.8735427856445312,-0.11493110656738281,0.6174659729003906,0.3899354934692383,0.6733989715576172
496,274647104.0,11.773845672607422,-10.348054885864258,-0.8080673217773438,-0.4037466049194336,-0.4953622817993164,0.8735427856445312,-0.11493110656738281,0.6174659729003906,0.3899354934692383,0.6733989715576172
497,274647104.0,13.254704475402832,-10.719167709350586,-0.7470130920410156,-0.4037466049194336,-0.4953622817993164,0.8735427856445312,-0.11493110656738281,0.6174659729003906,0.3899354934692383,0.6733989715576172
498,274647136.0,14.733168601989746,-12.381991386413574,-1.3671302795410156,0.8330621719360352,-2.798534393310547,1.720454216003418,-0.11493110656738281,0.6174659729003906,0.3899354934692383,0.6733989715576172
499,274647136.0,17.62186050415039,-16.25592803955078,-0.6296939849853516,0.8330621719360352,-2.798534393310547,1.720454216003418,-0.11493110656738281,0.6174659729003906,0.3899354934692383,0.6733989715576172
500,274647168.0,20.005361557006836,-20.766740798950195,0.4920225143432617,1.0162925720214844,-2.9231739044189453,2.6994619369506836,-0.11493110656738281,0.6174659729003906,0.3899354934692383,0.6733989715576172
501,274647200.0,20.15021514892578,-23.226858139038086,-0.014365196228027344,0.0745706558227539,-2.5439281463623047,3.744518280029297,-0.11493110656738281,0.6174659729003906,0.3899354934692383,0.6733989715576172
502,274647200.0,20.9223690032959,-22.23563003540039,-8.016031265258789,0.0745706558227539,-2.5439281463623047,3.744518280029297,-0.11493110656738281,0.6174659729003906,0.3899354934692383,0.6733989715576172
503,274647232.0,20.11789321899414,-26.16223907470703,-14.212413787841797,-0.8703470230102539,-1.9388399124145508,5.1752119064331055,-0.01756572723388672,0.3327932357788086,0.5042190551757812,0.7966594696044922
504,274647232.0,18.783084869384766,-27.802318572998047,-15.099493026733398,-0.8703470230102539,-1.9388399124145508,5.1752119064331055,-0.01756572723388672,0.3327932357788086,0.5042190551757812,0.7966594696044922
505,274647264.0,20.494991302490234,-20.637451171875,-16.7802734375,-0.8703470230102539,-1.9388399124145508,5.1752119064331055,0.06957054138183594,0.19050025939941406,0.6128482818603516,0.7637300491333008
506,274647296.0,19.181732177734375,-13.293012619018555,-19.628263473510742,-0.8703470230102539,-1.9388399124145508,5.1752119064331055,0.11665630340576172,0.10146522521972656,0.6748666763305664,0.7215642929077148
507,274647296.0,19.915576934814453,-9.277813911437988,-21.77712631225586,-0.8703470230102539,-1.9388399124145508,5.1752119064331055,0.11665630340576172,0.10146522521972656,0.6748666763305664,0.7215642929077148
508,274647328.0,22.396045684814453,-5.4577484130859375,-16.776683807373047,-0.8703470230102539,-1.9388399124145508,5.1752119064331055,0.16482162475585938,0.006991386413574219,0.7350730895996094,0.6576032638549805
509,274647360.0,24.529342651367188,-2.444554328918457,-16.905973434448242,-0.8703470230102539,-1.9388399124145508,5.1752119064331055,0.16482162475585938,0.006991386413574219,0.7350730895996094,0.6576032638549805
510,274647360.0,26.20772933959961,0.3208322525024414,-16.17811393737793,-0.8703470230102539,-1.9388399124145508,5.1752119064331055,0.16482162475585938,0.006991386413574219,0.7350730895996094,0.6576032638549805
511,274647392.0,23.56564712524414,11.560754776000977,-21.513755798339844,-0.8703470230102539,-1.9388399124145508,5.1752119064331055,0.16482162475585938,0.006991386413574219,0.7350730895996094,0.6576032638549805
512,274647392.0,17.9091739654541,17.374053955078125,-18.0205078125,-0.8703470230102539,-1.9388399124145508,5.1752119064331055,0.16482162475585938,0.006991386413574219,0.7350730895996094,0.6576032638549805
513,274647424.0,9.232322692871094,12.583109855651855,-10.349251747131348,1.3550567626953125,-1.1057777404785156,8.266703605651855,0.16482162475585938,0.006991386413574219,0.7350730895996094,0.6576032638549805
514,274647456.0,6.817696571350098,10.011659622192383,-7.4390106201171875,1.2400054931640625,-3.499500274658203,5.357378005981445,0.16482162475585938,0.006991386413574219,0.7350730895996094,0.6576032638549805
515,274647456.0,10.59466552734375,17.041250228881836,-6.322081565856934,1.2400054931640625,-3.499500274658203,5.357378005981445,0.16482162475585938,0.006991386413574219,0.7350730895996094,0.6576032638549805
516,274647488.0,11.381184577941895,18.443098068237305,-2.448145866394043,3.813762664794922,-2.0251293182373047,2.124201774597168,0.16482162475585938,0.006991386413574219,0.7350730895996094,0.6576032638549805
517,274647520.0,11.115419387817383,15.258711814880371,2.4289913177490234,4.620192527770996,-1.1430635452270508,-0.0063915252685546875,0.16482162475585938,0.006991386413574219,0.7350730895996094,0.6576032638549805
518,274647520.0,10.113415718078613,16.604293823242188,5.662459373474121,4.620192527770996,-1.1430635452270508,-0.0063915252685546875,0.16482162475585938,0.006991386413574219,0.7350730895996094,0.6576032638549805
519,274647552.0,7.698789596557617,17.33574676513672,3.3579702377319336,4.620192527770996,-1.1430635452270508,-0.0063915252685546875,0.16482162475585938,0.006991386413574219,0.7350730895996094,0.6576032638549805
520,274647552.0,8.724736213684082,14.631412506103516,1.0618600845336914,4.620192527770996,-1.1430635452270508,-0.0063915252685546875,0.16482162475585938,0.006991386413574219,0.7350730895996094,0.6576032638549805
521,274647584.0,11.672088623046875,11.351256370544434,-0.6763820648193359,4.620192527770996,-1.1430635452270508,-0.0063915252685546875,0.16482162475585938,0.006991386413574219,0.7350730895996094,0.6576032638549805
522,274647616.0,14.260299682617188,4.82326602935791,-2.6073646545410156,4.620192527770996,-1.1430635452270508,-0.0063915252685546875,0.16482162475585938,0.006991386413574219,0.7350730895996094,0.6576032638549805
523,274647616.0,16.673728942871094,-0.08499622344970703,-5.226700782775879,4.620192527770996,-1.1430635452270508,-0.0063915252685546875,0.16482162475585938,0.006991386413574219,0.7350730895996094,0.6576032638549805
524,274647648.0,18.134235382080078,-0.4465312957763672,-5.877943992614746,-7.228038787841797,5.435144424438477,-11.275102615356445,0.16482162475585938,0.006991386413574219,0.7350730895996094,0.6576032638549805
525,274647648.0,18.134235382080078,-0.4465312957763672,-5.877943992614746,-7.228038787841797,5.435144424438477,-11.275102615356445,0.16482162475585938,0.006991386413574219,0.7350730895996094,0.6576032638549805
526,274647680.0,19.895225524902344,2.0231618881225586,-8.456578254699707,-5.958205223083496,6.168068885803223,-12.933769226074219,0.16482162475585938,0.006991386413574219,0.7350730895996094,0.6576032638549805
527,274647680.0,22.45470428466797,7.103812217712402,-16.610279083251953,-5.958205223083496,6.168068885803223,-12.933769226074219,0.16482162475585938,0.006991386413574219,0.7350730895996094,0.6576032638549805
528,274647680.0,19.895225524902344,2.0231618881225586,-8.456578254699707,-5.958205223083496,6.168068885803223,-12.933769226074219,0.16482162475585938,0.006991386413574219,0.7350730895996094,0.6576032638549805
529,274647680.0,22.45470428466797,7.103812217712402,-16.610279083251953,-5.958205223083496,6.168068885803223,-12.933769226074219,0.16482162475585938,0.006991386413574219,0.7350730895996094,0.6576032638549805
530,274647712.0,30.347431182861328,7.662876129150391,-17.558414459228516,-7.784124374389648,5.892156600952148,-14.995119094848633,0.16482162475585938,0.006991386413574219,0.7350730895996094,0.6576032638549805
531,274647712.0,38.437686920166016,-0.44772911071777344,-14.344099044799805,-7.784124374389648,5.892156600952148,-14.995119094848633,0.16482162475585938,0.006991386413574219,0.7350730895996094,0.6576032638549805
532,274647712.0,30.347431182861328,7.662876129150391,-17.558414459228516,-7.784124374389648,5.892156600952148,-14.995119094848633,0.16482162475585938,0.006991386413574219,0.7350730895996094,0.6576032638549805
533,274647712.0,38.437686920166016,-0.44772911071777344,-14.344099044799805,-7.784124374389648,5.892156600952148,-14.995119094848633,0.16482162475585938,0.006991386413574219,0.7350730895996094,0.6576032638549805
534,274647744.0,38.575355529785156,-7.886740684509277,-8.660091400146484,-7.784124374389648,5.892156600952148,-14.995119094848633,0.16482162475585938,0.006991386413574219,0.7350730895996094,0.6576032638549805
535,274647776.0,39.226600646972656,-4.751438140869141,-17.25194549560547,-7.784124374389648,5.892156600952148,-14.995119094848633,0.16482162475585938,0.006991386413574219,0.7350730895996094,0.6576032638549805
536,274647776.0,39.226600646972656,-7.5958356857299805,-39.226600646972656,-7.784124374389648,5.892156600952148,-14.995119094848633,0.16482162475585938,0.006991386413574219,0.7350730895996094,0.6576032638549805
537,274647808.0,19.758750915527344,-39.226600646972656,-34.35305404663086,-7.784124374389648,5.892156600952148,-14.995119094848633,0.16482162475585938,0.006991386413574219,0.7350730895996094,0.6576032638549805
538,274647840.0,0.646453857421875,-12.889577865600586,-0.4644889831542969,-7.6072845458984375,1.2730293273925781,-1.3721017837524414,0.16482162475585938,0.006991386413574219,0.7350730895996094,0.6576032638549805
539,274647840.0,33.28520584106445,20.260353088378906,-7.840051651000977,-7.6072845458984375,1.2730293273925781,-1.3721017837524414,0.16482162475585938,0.006991386413574219,0.7350730895996094,0.6576032638549805
540,274647840.0,33.28520584106445,20.260353088378906,-7.840051651000977,-7.6072845458984375,1.2730293273925781,-1.3721017837524414,0.16482162475585938,0.006991386413574219,0.7350730895996094,0.6576032638549805
541,274647872.0,11.178868293762207,-30.093639373779297,4.0702667236328125,-20.726417541503906,0.36007022857666016,-1.74176025390625,0.16482162475585938,0.006991386413574219,0.7350730895996094,0.6576032638549805
542,274647872.0,0.7757444381713867,-39.226600646972656,-11.642160415649414,-20.726417541503906,0.36007022857666016,-1.74176025390625,0.16482162475585938,0.006991386413574219,0.7350730895996094,0.6576032638549805
543,274647872.0,11.178868293762207,-30.093639373779297,4.0702667236328125,-20.726417541503906,0.36007022857666016,-1.74176025390625,0.16482162475585938,0.006991386413574219,0.7350730895996094,0.6576032638549805
544,274647872.0,0.7757444381713867,-39.226600646972656,-11.642160415649414,-20.726417541503906,0.36007022857666016,-1.74176025390625,0.16482162475585938,0.006991386413574219,0.7350730895996094,0.6576032638549805
545,274647904.0,14.237554550170898,-17.86966896057129,-7.822094917297363,4.330431938171387,-2.1646833419799805,-0.0031957626342773438,0.16482162475585938,0.006991386413574219,0.7350730895996094,0.6576032638549805
546,274647904.0,14.237554550170898,-17.86966896057129,-7.822094917297363,4.330431938171387,-2.1646833419799805,-0.0031957626342773438,0.16482162475585938,0.006991386413574219,0.7350730895996094,0.6576032638549805
547,274647936.0,10.97535514831543,-5.56429386138916,-5.110578536987305,7.851238250732422,-2.9167823791503906,3.631596565246582,0.16482162475585938,0.006991386413574219,0.7350730895996094,0.6576032638549805
548,274647936.0,10.97535514831543,-5.56429386138916,-5.110578536987305,7.851238250732422,-2.9167823791503906,3.631596565246582,0.16482162475585938,0.006991386413574219,0.7350730895996094,0.6576032638549805
549,274648032.0,8.763045310974121,-4.041535377502441,-0.7745475769042969,1.3348169326782227,-0.3174581527709961,1.290074348449707,0.16482162475585938,0.006991386413574219,0.7350730895996094,0.6576032638549805
550,274648064.0,8.894729614257812,-1.1708002090454102,0.26696109771728516,2.0443038940429688,0.34409046173095703,1.0738191604614258,0.16482162475585938,0.006991386413574219,0.7350730895996094,0.6576032638549805
551,274648096.0,8.530799865722656,-0.3603382110595703,0.7134933471679688,0.9640932083129883,0.12037849426269531,1.0642309188842773,0.16482162475585938,0.006991386413574219,0.7350730895996094,0.6576032638549805
552,274648096.0,9.232322692871094,-1.3132591247558594,-0.09816455841064453,0.9640932083129883,0.12037849426269531,1.0642309188842773,0.16482162475585938,0.006991386413574219,0.7350730895996094,0.6576032638549805
553,274648128.0,9.40471076965332,-2.0267534255981445,-1.2258682250976562,0.2247772216796875,0.4484891891479492,0.716944694519043,0.16482162475585938,0.006991386413574219,0.7350730895996094,0.6576032638549805
554,274648128.0,8.517631530761719,-1.9656991958618164,-1.570643424987793,0.2247772216796875,0.4484891891479492,0.716944694519043,0.16482162475585938,0.006991386413574219,0.7350730895996094,0.6576032638549805
555,274648256.0,7.630553245544434,-3.237058639526367,0.4944171905517578,0.040480613708496094,0.06817817687988281,-0.5241260528564453,0.16482162475585938,0.006991386413574219,0.7350730895996094,0.6576032638549805
556,274648256.0,7.965751647949219,-3.7793617248535156,0.6596221923828125,0.040480613708496094,0.06817817687988281,-0.5241260528564453,0.16482162475585938,0.006991386413574219,0.7350730895996094,0.6576032638549805
557,274648256.0,7.630553245544434,-3.237058639526367,0.4944171905517578,0.040480613708496094,0.06817817687988281,-0.5241260528564453,0.16482162475585938,0.006991386413574219,0.7350730895996094,0.6576032638549805
558,274648256.0,7.965751647949219,-3.7793617248535156,0.6596221923828125,0.040480613708496094,0.06817817687988281,-0.5241260528564453,0.16482162475585938,0.006991386413574219,0.7350730895996094,0.6576032638549805
559,274648288.0,8.417072296142578,-3.656057357788086,0.19513320922851562,0.011717796325683594,-0.07563591003417969,-0.621068000793457,0.16482162475585938,0.006991386413574219,0.7350730895996094,0.6576032638549805
560,274648288.0,8.417072296142578,-3.656057357788086,0.19513320922851562,0.011717796325683594,-0.07563591003417969,-0.621068000793457,0.16482162475585938,0.006991386413574219,0.7350730895996094,0.6576032638549805
561,274648320.0,8.678048133850098,-3.4178266525268555,-0.3806896209716797,-0.10120296478271484,-0.007456779479980469,-0.7925806045532227,0.16482162475585938,0.006991386413574219,0.7350730895996094,0.6576032638549805
562,274648320.0,8.889941215515137,-3.621339797973633,-0.3603382110595703,-0.10120296478271484,-0.007456779479980469,-0.7925806045532227,0.16482162475585938,0.006991386413574219,0.7350730895996094,0.6576032638549805
563,274648320.0,8.678048133850098,-3.4178266525268555,-0.3806896209716797,-0.10120296478271484,-0.007456779479980469,-0.7925806045532227,0.16482162475585938,0.006991386413574219,0.7350730895996094,0.6576032638549805
564,274648320.0,8.889941215515137,-3.621339797973633,-0.3603382110595703,-0.10120296478271484,-0.007456779479980469,-0.7925806045532227,0.16482162475585938,0.006991386413574219,0.7350730895996094,0.6576032638549805
565,274648352.0,9.0754976272583,-4.289342880249023,0.10654449462890625,-0.04367637634277344,0.03515434265136719,-0.9140243530273438,0.16482162475585938,0.006991386413574219,0.7350730895996094,0.6576032638549805
566,274648352.0,9.0754976272583,-4.289342880249023,0.10654449462890625,-0.04367637634277344,0.03515434265136719,-0.9140243530273438,0.16482162475585938,0.006991386413574219,0.7350730895996094,0.6576032638549805
