,timestamp,accel_x,accel_y,accel_z,gyro_x,gyro_y,gyro_z,ori_scalar,ori_x,ori_y,ori_z
0,275427552.0,9.365204811096191,-3.857175827026367,1.8088741302490234,-1.3028573989868164,-0.47512149810791016,-0.15766334533691406,-0.24557113647460938,-0.48937320709228516,0.8088302612304688,0.21449661254882812
1,275427584.0,8.516434669494629,-3.580636978149414,2.218295097351074,-1.3028573989868164,-0.47512149810791016,-0.15766334533691406,-0.24557113647460938,-0.48937320709228516,0.8088302612304688,0.21449661254882812
2,275427616.0,8.510449409484863,-3.678802490234375,2.7665843963623047,-1.3028573989868164,-0.47512149810791016,-0.15766334533691406,-0.24557113647460938,-0.48937320709228516,0.8088302612304688,0.21449661254882812
3,275427616.0,9.02641487121582,-3.6584510803222656,2.9437599182128906,-1.3028573989868164,-0.47512149810791016,-0.15766334533691406,-0.24557113647460938,-0.48937320709228516,0.8088302612304688,0.21449661254882812
4,275427648.0,9.569915771484375,-2.4924392700195312,2.627716064453125,-0.8000373840332031,-0.5496931076049805,-0.3387641906738281,-0.24557113647460938,-0.48937320709228516,0.8088302612304688,0.21449661254882812
5,275427648.0,10.137358665466309,-2.741443634033203,2.339205741882324,-0.8000373840332031,-0.5496931076049805,-0.3387641906738281,-0.24557113647460938,-0.48937320709228516,0.8088302612304688,0.21449661254882812
6,275427680.0,10.26545238494873,-3.219101905822754,2.266180992126465,-0.8405189514160156,-0.45914268493652344,-0.4484891891479492,-0.2547645568847656,-0.48484134674072266,0.8078374862670898,0.21773338317871094
7,275427712.0,10.246297836303711,-3.0491085052490234,2.8372154235839844,-1.0844717025756836,-0.3877677917480469,-0.4506196975708008,-0.27332210540771484,-0.4734048843383789,0.8059816360473633,0.227142333984375
8,275427712.0,10.593467712402344,-2.8779172897338867,2.4146251678466797,-1.0844717025756836,-0.3877677917480469,-0.4506196975708008,-0.27332210540771484,-0.4734048843383789,0.8059816360473633,0.227142333984375
9,275427744.0,10.83648681640625,-3.2358617782592773,2.044710159301758,-1.0844717025756836,-0.3877677917480469,-0.4506196975708008,-0.27332210540771484,-0.4734048843383789,0.8059816360473633,0.227142333984375
10,275427776.0,10.331295013427734,-3.5171890258789062,2.0231618881225586,-1.0844717025756836,-0.3877677917480469,-0.4506196975708008,-0.27332210540771484,-0.4734048843383789,0.8059816360473633,0.227142333984375
11,275427776.0,9.698009490966797,-3.743448257446289,2.162029266357422,-1.0844717025756836,-0.3877677917480469,-0.4506196975708008,-0.27332210540771484,-0.4734048843383789,0.8059816360473633,0.227142333984375
12,275427808.0,9.811737060546875,-3.4800777435302734,2.369133949279785,-1.0844717025756836,-0.3877677917480469,-0.4506196975708008,-0.27332210540771484,-0.4734048843383789,0.8059816360473633,0.227142333984375
13,275427808.0,10.12658405303955,-3.1951589584350586,2.2434349060058594,-1.0844717025756836,-0.3877677917480469,-0.4506196975708008,-0.27332210540771484,-0.4734048843383789,0.8059816360473633,0.227142333984375
14,275427840.0,9.88715648651123,-3.080233573913574,2.379908561706543,-1.0844717025756836,-0.3877677917480469,-0.4506196975708008,-0.27332210540771484,-0.4734048843383789,0.8059816360473633,0.227142333984375
15,275428064.0,9.571112632751465,-2.190760612487793,1.2258682250976562,0.14701080322265625,0.03515434265136719,0.3622007369995117,-0.6386146545410156,-0.2577857971191406,0.7229452133178711,-0.05589008331298828
16,275428096.0,9.199999809265137,-2.4301881790161133,1.3707218170166016,0.14701080322265625,0.03515434265136719,0.3622007369995117,-0.6386146545410156,-0.2577857971191406,0.7229452133178711,-0.05589008331298828
17,275428096.0,9.131763458251953,-2.510396957397461,1.2593879699707031,0.14701080322265625,0.03515434265136719,0.3622007369995117,-0.6386146545410156,-0.2577857971191406,0.7229452133178711,-0.05589008331298828
18,275428128.0,9.322108268737793,-2.5475082397460938,1.0953798294067383,0.14701080322265625,0.03515434265136719,0.3622007369995117,-0.6386146545410156,-0.2577857971191406,0.7229452133178711,-0.05589008331298828
19,275428128.0,9.174860000610352,-2.5510988235473633,1.1528425216674805,0.14701080322265625,0.03515434265136719,0.3622007369995117,-0.6386146545410156,-0.2577857971191406,0.7229452133178711,-0.05589008331298828
20,275428352.0,9.528016090393066,-2.5858163833618164,1.1899538040161133,-0.4325103759765625,-0.03621959686279297,-0.10546398162841797,-0.6512603759765625,-0.2640867233276367,0.7105159759521484,-0.036253929138183594
21,275428384.0,9.554352760314941,-2.8815088272094727,1.1899538040161133,-0.5965662002563477,0.005326271057128906,-0.11292076110839844,-0.6528139114379883,-0.25946807861328125,0.7109041213989258,-0.033145904541015625
22,275428416.0,9.471750259399414,-3.1388940811157227,1.234248161315918,-0.4911012649536133,0.060721397399902344,-0.10439872741699219,-0.6554899215698242,-0.2501029968261719,0.7120695114135742,-0.02658557891845703
23,275428416.0,9.211971282958984,-2.941366195678711,1.207911491394043,-0.4911012649536133,0.060721397399902344,-0.10439872741699219,-0.6554899215698242,-0.2501029968261719,0.7120695114135742,-0.02658557891845703
24,275428448.0,9.031203269958496,-3.057488441467285,1.054677963256836,-0.4048128128051758,0.03835010528564453,-0.08415794372558594,-0.6563100814819336,-0.24660778045654297,0.7126302719116211,-0.024126052856445312
25,275428448.0,9.252674102783203,-3.1113595962524414,1.1492509841918945,-0.4048128128051758,0.03835010528564453,-0.08415794372558594,-0.6563100814819336,-0.24660778045654297,0.7126302719116211,-0.024126052856445312
26,275428480.0,9.462173461914062,-2.8851003646850586,1.4485359191894531,-0.4048128128051758,0.03835010528564453,-0.08415794372558594,-0.6563100814819336,-0.24660778045654297,0.7126302719116211,-0.024126052856445312
27,275428512.0,9.33407974243164,-2.5834217071533203,1.3802986145019531,-0.4048128128051758,0.03835010528564453,-0.08415794372558594,-0.6563100814819336,-0.24660778045654297,0.7126302719116211,-0.024126052856445312
28,275428512.0,9.28619384765625,-2.780949592590332,1.4054384231567383,-0.4048128128051758,0.03835010528564453,-0.08415794372558594,-0.6563100814819336,-0.24660778045654297,0.7126302719116211,-0.024126052856445312
29,275428544.0,9.483721733093262,-3.241847038269043,1.540715217590332,0.08522319793701172,-0.12996578216552734,-0.3643312454223633,-0.6563100814819336,-0.24660778045654297,0.7126302719116211,-0.024126052856445312
30,275428768.0,8.873181343078613,-2.9796743392944336,1.6197261810302734,0.1779041290283203,0.0170440673828125,-0.13955307006835938,-0.6536769866943359,-0.22852420806884766,0.7199239730834961,-0.046784400939941406
31,275428768.0,9.118595123291016,-2.748626708984375,1.60296630859375,0.1779041290283203,0.0170440673828125,-0.13955307006835938,-0.6536769866943359,-0.22852420806884766,0.7199239730834961,-0.046784400939941406
32,275428800.0,9.244294166564941,-2.563070297241211,1.3419904708862305,0.11505126953125,0.024501800537109375,-0.0980072021484375,-0.6532449722290039,-0.22852420806884766,0.7202692031860352,-0.04851055145263672
33,275428832.0,8.939023971557617,-2.779752731323242,1.3767070770263672,0.010652542114257812,0.15766334533691406,0.0692434310913086,-0.6516056060791016,-0.22899913787841797,0.7215213775634766,-0.04807853698730469
34,275428832.0,8.388340950012207,-3.025165557861328,1.2294597625732422,0.010652542114257812,0.15766334533691406,0.0692434310913086,-0.6516056060791016,-0.22899913787841797,0.7215213775634766,-0.04807853698730469
35,275428864.0,8.913884162902832,-2.779752731323242,1.015172004699707,0.010652542114257812,0.15766334533691406,0.0692434310913086,-0.6516056060791016,-0.22899913787841797,0.7215213775634766,-0.04807853698730469
36,275428864.0,10.192426681518555,-2.419414520263672,0.7625761032104492,0.010652542114257812,0.15766334533691406,0.0692434310913086,-0.6516056060791016,-0.22899913787841797,0.7215213775634766,-0.04807853698730469
37,275428896.0,10.567131042480469,-2.5714502334594727,0.6201162338256836,0.010652542114257812,0.15766334533691406,0.0692434310913086,-0.6516056060791016,-0.22899913787841797,0.7215213775634766,-0.04807853698730469
38,275428928.0,9.92785930633545,-2.8300323486328125,0.7757444381713867,0.010652542114257812,0.15766334533691406,0.0692434310913086,-0.6516056060791016,-0.22899913787841797,0.7215213775634766,-0.04807853698730469
39,275428928.0,9.295770645141602,-2.554690361022949,1.0271434783935547,0.010652542114257812,0.15766334533691406,0.0692434310913086,-0.6516056060791016,-0.22899913787841797,0.7215213775634766,-0.04807853698730469
40,275428960.0,9.003669738769531,-2.5570850372314453,0.9732723236083984,-0.3163928985595703,0.08948421478271484,0.1097249984741211,-0.6516056060791016,-0.22899913787841797,0.7215213775634766,-0.04807853698730469
41,275428992.0,9.123383522033691,-2.8240461349487305,1.0869998931884766,-0.13955307006835938,-0.040480613708496094,0.06711292266845703,-0.6516056060791016,-0.22899913787841797,0.7215213775634766,-0.04807853698730469
42,275428992.0,9.317319869995117,-2.8659467697143555,1.2330513000488281,-0.13955307006835938,-0.040480613708496094,0.06711292266845703,-0.6516056060791016,-0.22899913787841797,0.7215213775634766,-0.04807853698730469
43,275429024.0,9.270630836486816,-2.6049699783325195,1.3300189971923828,-0.17151260375976562,-0.03621959686279297,0.11824703216552734,-0.6516056060791016,-0.22899913787841797,0.7215213775634766,-0.04807853698730469
44,275429024.0,9.182043075561523,-2.348782539367676,1.3719186782836914,-0.17151260375976562,-0.03621959686279297,0.11824703216552734,-0.6516056060791016,-0.22899913787841797,0.7215213775634766,-0.04807853698730469
45,275429056.0,9.219154357910156,-2.408639907836914,1.442549705505371,-0.17151260375976562,-0.03621959686279297,0.11824703216552734,-0.6516056060791016,-0.22899913787841797,0.7215213775634766,-0.04807853698730469
46,275429088.0,9.534001350402832,-2.656447410583496,1.4030447006225586,-0.17151260375976562,-0.03621959686279297,0.11824703216552734,-0.6516056060791016,-0.22899913787841797,0.7215213775634766,-0.04807853698730469
47,275429088.0,9.721952438354492,-2.7139101028442383,1.3180475234985352,-0.17151260375976562,-0.03621959686279297,0.11824703216552734,-0.6516056060791016,-0.22899913787841797,0.7215213775634766,-0.04807853698730469
48,275429120.0,9.398724555969238,-2.5451135635375977,1.391073226928711,-0.17151260375976562,-0.03621959686279297,0.11824703216552734,-0.6516056060791016,-0.22899913787841797,0.7215213775634766,-0.04807853698730469
49,275429152.0,8.97613525390625,-2.508002281188965,1.546701431274414,0.09374523162841797,-0.07670116424560547,0.020239830017089844,-0.6516056060791016,-0.22899913787841797,0.7215213775634766,-0.04807853698730469
50,275429152.0,8.90550422668457,-2.536733627319336,1.5694465637207031,0.09374523162841797,-0.07670116424560547,0.020239830017089844,-0.6516056060791016,-0.22899913787841797,0.7215213775634766,-0.04807853698730469
51,275429184.0,8.992895126342773,-2.444554328918457,1.485647201538086,-0.07776641845703125,-0.03515434265136719,-0.0745706558227539,-0.6516056060791016,-0.22899913787841797,0.7215213775634766,-0.04807853698730469
52,275429184.0,8.915081024169922,-2.5056076049804688,1.508392333984375,-0.07776641845703125,-0.03515434265136719,-0.0745706558227539,-0.6516056060791016,-0.22899913787841797,0.7215213775634766,-0.04807853698730469
53,275429216.0,9.040781021118164,-2.8228492736816406,1.3360052108764648,-0.21732044219970703,-0.03728485107421875,-0.09054946899414062,-0.6516056060791016,-0.22899913787841797,0.7215213775634766,-0.04807853698730469
54,275429248.0,9.348444938659668,-3.057488441467285,1.1444625854492188,-0.20560169219970703,-0.04367637634277344,-0.07989692687988281,-0.6594171524047852,-0.2193317413330078,0.7188453674316406,-0.018256187438964844
55,275429344.0,9.358022689819336,-2.9844627380371094,1.1480541229248047,-0.20560169219970703,-0.04367637634277344,-0.07989692687988281,-0.6602802276611328,-0.21747589111328125,0.7185430526733398,-0.02075958251953125
56,275429344.0,9.358022689819336,-2.9844627380371094,1.1480541229248047,-0.20560169219970703,-0.04367637634277344,-0.07989692687988281,-0.6602802276611328,-0.21747589111328125,0.7185430526733398,-0.02075958251953125
57,275429376.0,9.112608909606934,-3.119739532470703,1.1193227767944336,-0.20560169219970703,-0.04367637634277344,-0.07989692687988281,-0.6602802276611328,-0.21747589111328125,0.7185430526733398,-0.02075958251953125
58,275429376.0,9.112608909606934,-3.119739532470703,1.1193227767944336,-0.20560169219970703,-0.04367637634277344,-0.07989692687988281,-0.6602802276611328,-0.21747589111328125,0.7185430526733398,-0.02075958251953125
59,275429408.0,9.207182884216309,-3.1688222885131836,1.1743907928466797,-0.20560169219970703,-0.04367637634277344,-0.07989692687988281,-0.6602802276611328,-0.21747589111328125,0.7185430526733398,-0.02075958251953125
60,275429408.0,9.40590763092041,-3.093402862548828,1.1109428405761719,-0.20560169219970703,-0.04367637634277344,-0.07989692687988281,-0.6602802276611328,-0.21747589111328125,0.7185430526733398,-0.02075958251953125
61,275429408.0,9.207182884216309,-3.1688222885131836,1.1743907928466797,-0.20560169219970703,-0.04367637634277344,-0.07989692687988281,-0.6602802276611328,-0.21747589111328125,0.7185430526733398,-0.02075958251953125
62,275429408.0,9.40590763092041,-3.093402862548828,1.1109428405761719,-0.20560169219970703,-0.04367637634277344,-0.07989692687988281,-0.6602802276611328,-0.21747589111328125,0.7185430526733398,-0.02075958251953125
63,275429440.0,9.319713592529297,-3.1341047286987305,1.1576309204101562,-0.20560169219970703,-0.04367637634277344,-0.07989692687988281,-0.6602802276611328,-0.21747589111328125,0.7185430526733398,-0.02075958251953125
64,275429440.0,9.319713592529297,-3.1341047286987305,1.1576309204101562,-0.20560169219970703,-0.04367637634277344,-0.07989692687988281,-0.6602802276611328,-0.21747589111328125,0.7185430526733398,-0.02075958251953125
65,275429440.0,9.362811088562012,-3.2598047256469727,1.1648139953613281,-0.20560169219970703,-0.04367637634277344,-0.07989692687988281,-0.6602802276611328,-0.21747589111328125,0.7185430526733398,-0.02075958251953125
66,275429440.0,9.362811088562012,-3.2598047256469727,1.1648139953613281,-0.20560169219970703,-0.04367637634277344,-0.07989692687988281,-0.6602802276611328,-0.21747589111328125,0.7185430526733398,-0.02075958251953125
67,275429472.0,9.530409812927246,-3.408249855041504,0.9696807861328125,-0.20560169219970703,-0.04367637634277344,-0.07989692687988281,-0.6602802276611328,-0.21747589111328125,0.7185430526733398,-0.02075958251953125
68,275429472.0,9.530409812927246,-3.408249855041504,0.9696807861328125,-0.20560169219970703,-0.04367637634277344,-0.07989692687988281,-0.6602802276611328,-0.21747589111328125,0.7185430526733398,-0.02075958251953125
69,275429504.0,9.602238655090332,-3.5961999893188477,0.9361610412597656,-0.20560169219970703,-0.04367637634277344,-0.07989692687988281,-0.6602802276611328,-0.21747589111328125,0.7185430526733398,-0.02075958251953125
70,275429504.0,9.632166862487793,-3.5076122283935547,1.2857246398925781,-0.20560169219970703,-0.04367637634277344,-0.07989692687988281,-0.6602802276611328,-0.21747589111328125,0.7185430526733398,-0.02075958251953125
71,275429504.0,9.602238655090332,-3.5961999893188477,0.9361610412597656,-0.20560169219970703,-0.04367637634277344,-0.07989692687988281,-0.6602802276611328,-0.21747589111328125,0.7185430526733398,-0.02075958251953125
72,275429504.0,9.632166862487793,-3.5076122283935547,1.2857246398925781,-0.20560169219970703,-0.04367637634277344,-0.07989692687988281,-0.6602802276611328,-0.21747589111328125,0.7185430526733398,-0.02075958251953125
73,275429536.0,9.745894432067871,-3.117344856262207,1.2294597625732422,-0.20560169219970703,-0.04367637634277344,-0.07989692687988281,-0.6602802276611328,-0.21747589111328125,0.7185430526733398,-0.02075958251953125
74,275429536.0,9.745894432067871,-3.117344856262207,1.2294597625732422,-0.20560169219970703,-0.04367637634277344,-0.07989692687988281,-0.6602802276611328,-0.21747589111328125,0.7185430526733398,-0.02075958251953125
75,275429760.0,9.371191024780273,-6.998464584350586,0.9265842437744141,-0.7957763671875,-0.22690773010253906,2.097569465637207,-0.6887645721435547,-0.2790193557739258,0.6674432754516602,0.047171592712402344
76,275429760.0,9.528016090393066,-6.500454902648926,0.1867532730102539,-0.7957763671875,-0.22690773010253906,2.097569465637207,-0.6887645721435547,-0.2790193557739258,0.6674432754516602,0.047171592712402344
77,275429760.0,9.371191024780273,-6.998464584350586,0.9265842437744141,-0.7957763671875,-0.22690773010253906,2.097569465637207,-0.6887645721435547,-0.2790193557739258,0.6674432754516602,0.047171592712402344
78,275429760.0,9.528016090393066,-6.500454902648926,0.1867532730102539,-0.7957763671875,-0.22690773010253906,2.097569465637207,-0.6887645721435547,-0.2790193557739258,0.6674432754516602,0.047171592712402344
79,275429792.0,10.461782455444336,-6.258633613586426,0.6572275161743164,-0.47512149810791016,-0.3643312454223633,2.072002410888672,-0.6887645721435547,-0.2790193557739258,0.6674432754516602,0.047171592712402344
80,275429792.0,10.461782455444336,-6.258633613586426,0.6572275161743164,-0.47512149810791016,-0.3643312454223633,2.072002410888672,-0.6887645721435547,-0.2790193557739258,0.6674432754516602,0.047171592712402344
81,275429824.0,10.19721508026123,-5.413455009460449,0.5004034042358398,0.7403812408447266,0.1374225616455078,1.8962278366088867,-0.6887645721435547,-0.2790193557739258,0.6674432754516602,0.047171592712402344
82,275429824.0,7.787378311157227,-4.284554481506348,0.3567466735839844,0.7403812408447266,0.1374225616455078,1.8962278366088867,-0.6887645721435547,-0.2790193557739258,0.6674432754516602,0.047171592712402344
83,275429824.0,10.19721508026123,-5.413455009460449,0.5004034042358398,0.7403812408447266,0.1374225616455078,1.8962278366088867,-0.6887645721435547,-0.2790193557739258,0.6674432754516602,0.047171592712402344
84,275429824.0,7.787378311157227,-4.284554481506348,0.3567466735839844,0.7403812408447266,0.1374225616455078,1.8962278366088867,-0.6887645721435547,-0.2790193557739258,0.6674432754516602,0.047171592712402344
85,275429952.0,6.002446174621582,-4.3803253173828125,-0.3866748809814453,-0.2780418395996094,0.22051620483398438,0.3909635543823242,-0.6887645721435547,-0.2790193557739258,0.6674432754516602,0.047171592712402344
86,275429984.0,6.646506309509277,-5.039947509765625,-0.42139148712158203,-0.2780418395996094,0.22051620483398438,0.3909635543823242,-0.6887645721435547,-0.2790193557739258,0.6674432754516602,0.047171592712402344
87,275429984.0,7.198386192321777,-5.18480110168457,-0.3411836624145508,-0.2780418395996094,0.22051620483398438,0.3909635543823242,-0.6887645721435547,-0.2790193557739258,0.6674432754516602,0.047171592712402344
88,275430016.0,6.867976188659668,-4.861574172973633,-0.3519582748413086,-0.2780418395996094,0.22051620483398438,0.3909635543823242,-0.6887645721435547,-0.2790193557739258,0.6674432754516602,0.047171592712402344
89,275430048.0,6.407078742980957,-5.050722122192383,0.08020782470703125,-0.334503173828125,0.15127182006835938,-0.17683887481689453,-0.6618337631225586,-0.38700103759765625,0.6248035430908203,0.14755821228027344
90,275430144.0,7.264228820800781,-7.261835098266602,0.5411052703857422,-0.15340232849121094,0.020239830017089844,-0.3558082580566406,-0.6658906936645508,-0.37263011932373047,0.6291618347167969,0.1479034423828125
91,275430176.0,7.344437599182129,-6.9457902908325195,0.6069478988647461,-0.15340232849121094,0.020239830017089844,-0.3558082580566406,-0.6658906936645508,-0.37263011932373047,0.6291618347167969,0.1479034423828125
92,275430208.0,7.18641471862793,-6.817696571350098,0.7613792419433594,-0.15340232849121094,0.020239830017089844,-0.3558082580566406,-0.6658906936645508,-0.37263011932373047,0.6291618347167969,0.1479034423828125
93,275430208.0,7.219934463500977,-6.8248796463012695,0.8751068115234375,-0.15340232849121094,0.020239830017089844,-0.3558082580566406,-0.6658906936645508,-0.37263011932373047,0.6291618347167969,0.1479034423828125
94,275430240.0,7.42344856262207,-6.7338972091674805,0.9361610412597656,-0.0063915252685546875,-0.05006885528564453,-0.23436450958251953,-0.6658906936645508,-0.37263011932373047,0.6291618347167969,0.1479034423828125
95,275430240.0,7.456968307495117,-6.742277145385742,0.8176441192626953,-0.0063915252685546875,-0.05006885528564453,-0.23436450958251953,-0.6658906936645508,-0.37263011932373047,0.6291618347167969,0.1479034423828125
96,275430240.0,7.456968307495117,-6.742277145385742,0.8176441192626953,-0.0063915252685546875,-0.05006885528564453,-0.23436450958251953,-0.6658906936645508,-0.37263011932373047,0.6291618347167969,0.1479034423828125
97,275430272.0,7.3180999755859375,-6.7566423416137695,0.7817306518554688,0.05113410949707031,-0.023435592651367188,-0.21518993377685547,-0.6658906936645508,-0.37263011932373047,0.6291618347167969,0.1479034423828125
98,275430272.0,7.3180999755859375,-6.7566423416137695,0.7817306518554688,0.05113410949707031,-0.023435592651367188,-0.21518993377685547,-0.6658906936645508,-0.37263011932373047,0.6291618347167969,0.1479034423828125
99,275430304.0,7.296551704406738,-6.553129196166992,0.9792575836181641,0.0628519058227539,-0.05113410949707031,-0.2130584716796875,-0.6658906936645508,-0.37263011932373047,0.6291618347167969,0.1479034423828125
100,275430304.0,7.401899337768555,-6.489681243896484,1.0067920684814453,0.0628519058227539,-0.05113410949707031,-0.2130584716796875,-0.6658906936645508,-0.37263011932373047,0.6291618347167969,0.1479034423828125
101,275430304.0,7.296551704406738,-6.553129196166992,0.9792575836181641,0.0628519058227539,-0.05113410949707031,-0.2130584716796875,-0.6658906936645508,-0.37263011932373047,0.6291618347167969,0.1479034423828125
102,275430304.0,7.401899337768555,-6.489681243896484,1.0067920684814453,0.0628519058227539,-0.05113410949707031,-0.2130584716796875,-0.6658906936645508,-0.37263011932373047,0.6291618347167969,0.1479034423828125
103,275430336.0,7.502459526062012,-6.5507354736328125,0.9445409774780273,-0.0031957626342773438,-0.03835010528564453,-0.19175338745117188,-0.6658906936645508,-0.37263011932373047,0.6291618347167969,0.1479034423828125
104,275430336.0,7.502459526062012,-6.5507354736328125,0.9445409774780273,-0.0031957626342773438,-0.03835010528564453,-0.19175338745117188,-0.6658906936645508,-0.37263011932373047,0.6291618347167969,0.1479034423828125
105,275430464.0,7.531190872192383,-6.784176826477051,0.6739873886108398,-0.031958580017089844,-0.045806884765625,-0.022370338439941406,-0.6658906936645508,-0.37263011932373047,0.6291618347167969,0.1479034423828125
106,275430464.0,7.526402473449707,-6.883539199829102,0.7194786071777344,-0.031958580017089844,-0.045806884765625,-0.022370338439941406,-0.6658906936645508,-0.37263011932373047,0.6291618347167969,0.1479034423828125
107,275430464.0,7.531190872192383,-6.784176826477051,0.6739873886108398,-0.031958580017089844,-0.045806884765625,-0.022370338439941406,-0.6658906936645508,-0.37263011932373047,0.6291618347167969,0.1479034423828125
108,275430464.0,7.526402473449707,-6.883539199829102,0.7194786071777344,-0.031958580017089844,-0.045806884765625,-0.022370338439941406,-0.6658906936645508,-0.37263011932373047,0.6291618347167969,0.1479034423828125
109,275430464.0,7.531190872192383,-6.784176826477051,0.6739873886108398,-0.031958580017089844,-0.045806884765625,-0.022370338439941406,-0.6658906936645508,-0.37263011932373047,0.6291618347167969,0.1479034423828125
110,275430464.0,7.526402473449707,-6.883539199829102,0.7194786071777344,-0.031958580017089844,-0.045806884765625,-0.022370338439941406,-0.6658906936645508,-0.37263011932373047,0.6291618347167969,0.1479034423828125
111,275430496.0,7.518022537231445,-6.684814453125,0.6919450759887695,0.13529205322265625,-0.05006885528564453,0.004261016845703125,-0.6658906936645508,-0.37263011932373047,0.6291618347167969,0.1479034423828125
112,275430496.0,7.518022537231445,-6.684814453125,0.6919450759887695,0.13529205322265625,-0.05006885528564453,0.004261016845703125,-0.6658906936645508,-0.37263011932373047,0.6291618347167969,0.1479034423828125
113,275430496.0,7.518022537231445,-6.684814453125,0.6919450759887695,0.13529205322265625,-0.05006885528564453,0.004261016845703125,-0.6658906936645508,-0.37263011932373047,0.6291618347167969,0.1479034423828125
114,275430528.0,7.559922218322754,-6.30532169342041,0.7901105880737305,0.057525634765625,-0.040480613708496094,0.00852203369140625,-0.6658906936645508,-0.37263011932373047,0.6291618347167969,0.1479034423828125
115,275430528.0,7.534782409667969,-6.318490028381348,0.7422246932983398,0.057525634765625,-0.040480613708496094,0.00852203369140625,-0.6658906936645508,-0.37263011932373047,0.6291618347167969,0.1479034423828125
116,275430528.0,7.559922218322754,-6.30532169342041,0.7901105880737305,0.057525634765625,-0.040480613708496094,0.00852203369140625,-0.6658906936645508,-0.37263011932373047,0.6291618347167969,0.1479034423828125
117,275430528.0,7.534782409667969,-6.318490028381348,0.7422246932983398,0.057525634765625,-0.040480613708496094,0.00852203369140625,-0.6658906936645508,-0.37263011932373047,0.6291618347167969,0.1479034423828125
118,275430528.0,7.559922218322754,-6.30532169342041,0.7901105880737305,0.057525634765625,-0.040480613708496094,0.00852203369140625,-0.6658906936645508,-0.37263011932373047,0.6291618347167969,0.1479034423828125
119,275430528.0,7.534782409667969,-6.318490028381348,0.7422246932983398,0.057525634765625,-0.040480613708496094,0.00852203369140625,-0.6658906936645508,-0.37263011932373047,0.6291618347167969,0.1479034423828125
120,275430752.0,7.486896514892578,-6.13413143157959,0.6452569961547852,0.057525634765625,-0.040480613708496094,0.00852203369140625,-0.671630859375,-0.3579130172729492,0.6369733810424805,0.1224832534790039
121,275430752.0,7.486896514892578,-6.13413143157959,0.6452569961547852,0.057525634765625,-0.040480613708496094,0.00852203369140625,-0.671630859375,-0.3579130172729492,0.6369733810424805,0.1224832534790039
122,275430784.0,7.5395708084106445,-6.159271240234375,0.6500453948974609,0.057525634765625,-0.040480613708496094,0.00852203369140625,-0.671630859375,-0.3579130172729492,0.6369733810424805,0.1224832534790039
123,275430784.0,7.576682090759277,-6.128145217895508,0.6620168685913086,0.057525634765625,-0.040480613708496094,0.00852203369140625,-0.671630859375,-0.3579130172729492,0.6369733810424805,0.1224832534790039
124,275430784.0,7.5395708084106445,-6.159271240234375,0.6500453948974609,0.057525634765625,-0.040480613708496094,0.00852203369140625,-0.671630859375,-0.3579130172729492,0.6369733810424805,0.1224832534790039
125,275430784.0,7.576682090759277,-6.128145217895508,0.6620168685913086,0.057525634765625,-0.040480613708496094,0.00852203369140625,-0.671630859375,-0.3579130172729492,0.6369733810424805,0.1224832534790039
126,275430816.0,7.597033500671387,-6.207157135009766,0.6081457138061523,0.057525634765625,-0.040480613708496094,0.00852203369140625,-0.671630859375,-0.3579130172729492,0.6369733810424805,0.1224832534790039
127,275430816.0,7.551542282104492,-6.246662139892578,0.6177225112915039,0.057525634765625,-0.040480613708496094,0.00852203369140625,-0.671630859375,-0.3579130172729492,0.6369733810424805,0.1224832534790039
128,275430816.0,7.597033500671387,-6.207157135009766,0.6081457138061523,0.057525634765625,-0.040480613708496094,0.00852203369140625,-0.671630859375,-0.3579130172729492,0.6369733810424805,0.1224832534790039
129,275430816.0,7.551542282104492,-6.246662139892578,0.6177225112915039,0.057525634765625,-0.040480613708496094,0.00852203369140625,-0.671630859375,-0.3579130172729492,0.6369733810424805,0.1224832534790039
130,275430848.0,7.587455749511719,-6.215537071228027,0.6452569961547852,0.005326271057128906,-0.01597881317138672,-0.025567054748535156,-0.671630859375,-0.3579130172729492,0.6369733810424805,0.1224832534790039
131,275430880.0,7.703577995300293,-6.217930793762207,0.767364501953125,-0.013848304748535156,-0.004261016845703125,-0.041545867919921875,-0.671630859375,-0.3579130172729492,0.6369733810424805,0.1224832534790039
132,275430880.0,7.6018218994140625,-6.191594123840332,0.6979303359985352,-0.013848304748535156,-0.004261016845703125,-0.041545867919921875,-0.671630859375,-0.3579130172729492,0.6369733810424805,0.1224832534790039
133,275430912.0,7.4713335037231445,-6.277788162231445,0.6691989898681641,-0.020239830017089844,0.0010652542114257812,-0.03621959686279297,-0.671630859375,-0.3579130172729492,0.6369733810424805,0.1224832534790039
134,275430944.0,7.509642601013184,-6.3029279708862305,0.6500453948974609,-0.02769756317138672,-0.0063915252685546875,-0.02982807159423828,-0.671630859375,-0.3579130172729492,0.6369733810424805,0.1224832534790039
135,275431040.0,7.508444786071777,-6.401092529296875,0.7302532196044922,0.04367637634277344,0.0,-0.02982807159423828,-0.671630859375,-0.3579130172729492,0.6369733810424805,0.1224832534790039
136,275431040.0,7.508444786071777,-6.401092529296875,0.7302532196044922,0.04367637634277344,0.0,-0.02982807159423828,-0.671630859375,-0.3579130172729492,0.6369733810424805,0.1224832534790039
137,275431072.0,7.434222221374512,-6.3975019454956055,0.6811704635620117,0.08309268951416016,-0.005326271057128906,-0.0170440673828125,-0.671630859375,-0.3579130172729492,0.6369733810424805,0.1224832534790039
138,275431072.0,7.434222221374512,-6.3975019454956055,0.6811704635620117,0.08309268951416016,-0.005326271057128906,-0.0170440673828125,-0.671630859375,-0.3579130172729492,0.6369733810424805,0.1224832534790039
139,275431104.0,7.574287414550781,-6.379544258117676,0.6392707824707031,0.15979385375976562,0.0021305084228515625,-0.01597881317138672,-0.671630859375,-0.3579130172729492,0.6369733810424805,0.1224832534790039
140,275431104.0,7.646116256713867,-6.211945533752441,0.6871566772460938,0.15979385375976562,0.0021305084228515625,-0.01597881317138672,-0.671630859375,-0.3579130172729492,0.6369733810424805,0.1224832534790039
141,275431104.0,7.574287414550781,-6.379544258117676,0.6392707824707031,0.15979385375976562,0.0021305084228515625,-0.01597881317138672,-0.671630859375,-0.3579130172729492,0.6369733810424805,0.1224832534790039
142,275431104.0,7.646116256713867,-6.211945533752441,0.6871566772460938,0.15979385375976562,0.0021305084228515625,-0.01597881317138672,-0.671630859375,-0.3579130172729492,0.6369733810424805,0.1224832534790039
143,275431136.0,7.577878952026367,-6.082653999328613,0.6703968048095703,0.10865974426269531,0.009587287902832031,-0.01810932159423828,-0.671630859375,-0.35881900787353516,0.6377077102661133,0.1161813735961914
144,275431136.0,7.577878952026367,-6.082653999328613,0.6703968048095703,0.10865974426269531,0.009587287902832031,-0.01810932159423828,-0.671630859375,-0.35881900787353516,0.6377077102661133,0.1161813735961914
145,275431264.0,7.659284591674805,-6.198777198791504,0.6943387985229492,0.10865974426269531,0.009587287902832031,-0.01810932159423828,-0.6718902587890625,-0.3586893081665039,0.6376638412475586,0.11549091339111328
146,275431264.0,7.661678314208984,-6.330461502075195,0.6261024475097656,0.10865974426269531,0.009587287902832031,-0.01810932159423828,-0.6718902587890625,-0.3586893081665039,0.6376638412475586,0.11549091339111328
147,275431296.0,7.609004974365234,-6.347221374511719,0.6237077713012695,0.10865974426269531,0.009587287902832031,-0.01810932159423828,-0.6718902587890625,-0.3586893081665039,0.6376638412475586,0.11549091339111328
148,275431296.0,7.558724403381348,-6.2670135498046875,0.67279052734375,0.10865974426269531,0.009587287902832031,-0.01810932159423828,-0.6718902587890625,-0.3586893081665039,0.6376638412475586,0.11549091339111328
149,275431328.0,7.508444786071777,-6.258633613586426,0.6596221923828125,0.10865974426269531,0.009587287902832031,-0.01810932159423828,-0.6718902587890625,-0.3586893081665039,0.6376638412475586,0.11549091339111328
150,275431360.0,7.688015937805176,-6.318490028381348,0.6871566772460938,0.007456779479980469,-0.025567054748535156,0.0170440673828125,-0.6718902587890625,-0.3586893081665039,0.6376638412475586,0.11549091339111328
151,275431360.0,7.678438186645508,-6.301730155944824,0.6847620010375977,0.007456779479980469,-0.025567054748535156,0.0170440673828125,-0.6718902587890625,-0.3586893081665039,0.6376638412475586,0.11549091339111328
152,275431392.0,7.56471061706543,-6.2933502197265625,0.6560306549072266,0.03728485107421875,-0.022370338439941406,0.010652542114257812,-0.6718902587890625,-0.3586893081665039,0.6376638412475586,0.11549091339111328
153,275431424.0,7.5395708084106445,-6.219127655029297,0.6668052673339844,0.052199363708496094,-0.045806884765625,-0.0021305084228515625,-0.6718902587890625,-0.3586893081665039,0.6376638412475586,0.11549091339111328
154,275431424.0,7.5659074783325195,-6.18321418762207,0.7242679595947266,0.052199363708496094,-0.045806884765625,-0.0021305084228515625,-0.6718902587890625,-0.3586893081665039,0.6376638412475586,0.11549091339111328
155,275431456.0,7.668861389160156,-6.290956497192383,0.6739873886108398,0.052199363708496094,-0.045806884765625,-0.0021305084228515625,-0.6731843948364258,-0.3601999282836914,0.6356363296508789,0.11385154724121094
156,275431456.0,7.671256065368652,-6.292153358459473,0.6416654586791992,0.052199363708496094,-0.045806884765625,-0.0021305084228515625,-0.6731843948364258,-0.3601999282836914,0.6356363296508789,0.11385154724121094
157,275431488.0,7.56351375579834,-6.190396308898926,0.6428623199462891,0.052199363708496094,-0.045806884765625,-0.0021305084228515625,-0.6731414794921875,-0.3607177734375,0.6355495452880859,0.11337661743164062
158,275431520.0,7.5958356857299805,-6.25384521484375,0.6153278350830078,0.052199363708496094,-0.045806884765625,-0.0021305084228515625,-0.673314094543457,-0.36158084869384766,0.6350317001342773,0.1124267578125
159,275431520.0,7.6604814529418945,-6.272998809814453,0.6272993087768555,0.052199363708496094,-0.045806884765625,-0.0021305084228515625,-0.673314094543457,-0.36158084869384766,0.6350317001342773,0.1124267578125
160,275431552.0,7.647313117980957,-6.149694442749023,0.6380739212036133,0.052199363708496094,-0.045806884765625,-0.0021305084228515625,-0.673314094543457,-0.36158084869384766,0.6350317001342773,0.1124267578125
161,275431552.0,7.632946968078613,-6.137722969055176,0.6033563613891602,0.052199363708496094,-0.045806884765625,-0.0021305084228515625,-0.673314094543457,-0.36158084869384766,0.6350317001342773,0.1124267578125
162,275431584.0,7.725127220153809,-6.189199447631836,0.6476507186889648,0.052199363708496094,-0.045806884765625,-0.0021305084228515625,-0.673314094543457,-0.36158084869384766,0.6350317001342773,0.1124267578125
163,275431616.0,7.744280815124512,-6.270605087280273,0.6596221923828125,0.052199363708496094,-0.045806884765625,-0.0021305084228515625,-0.673314094543457,-0.36158084869384766,0.6350317001342773,0.1124267578125
164,275431616.0,7.668861389160156,-6.346024513244629,0.6021595001220703,0.052199363708496094,-0.045806884765625,-0.0021305084228515625,-0.673314094543457,-0.36158084869384766,0.6350317001342773,0.1124267578125
165,275431648.0,7.612595558166504,-6.330461502075195,0.6261024475097656,0.0063915252685546875,-0.034089088439941406,0.02982807159423828,-0.673314094543457,-0.36158084869384766,0.6350317001342773,0.1124267578125
166,275431680.0,7.619778633117676,-6.32327938079834,0.5770196914672852,0.0628519058227539,-0.06498241424560547,0.04367637634277344,-0.673314094543457,-0.36158084869384766,0.6350317001342773,0.1124267578125
167,275431680.0,7.731112480163574,-6.3879241943359375,0.5794143676757812,0.0628519058227539,-0.06498241424560547,0.04367637634277344,-0.673314094543457,-0.36158084869384766,0.6350317001342773,0.1124267578125
168,275431712.0,7.796955108642578,-6.427430152893066,0.6033563613891602,0.07137489318847656,-0.0692434310913086,0.05646038055419922,-0.673314094543457,-0.36158084869384766,0.6350317001342773,0.1124267578125
169,275431744.0,7.732309341430664,-6.265816688537598,0.5913858413696289,0.019174575805664062,-0.07030868530273438,0.10226821899414062,-0.673314094543457,-0.36158084869384766,0.6350317001342773,0.1124267578125
170,275431744.0,7.7287187576293945,-6.278985023498535,0.6392707824707031,0.019174575805664062,-0.07030868530273438,0.10226821899414062,-0.673314094543457,-0.36158084869384766,0.6350317001342773,0.1124267578125
171,275431776.0,7.714352607727051,-6.328067779541016,0.6033563613891602,0.03515434265136719,-0.04474163055419922,0.10226821899414062,-0.673314094543457,-0.36158084869384766,0.6350317001342773,0.1124267578125
172,275431776.0,7.510839462280273,-6.306519508361816,0.6189193725585938,0.03515434265136719,-0.04474163055419922,0.10226821899414062,-0.673314094543457,-0.36158084869384766,0.6350317001342773,0.1124267578125
173,275431808.0,7.379154205322266,-6.137722969055176,0.6751852035522461,0.09694194793701172,-0.04900360107421875,0.09267997741699219,-0.673314094543457,-0.36158084869384766,0.6350317001342773,0.1124267578125
174,275431840.0,7.3240861892700195,-5.904280662536621,0.6883535385131836,0.033023834228515625,-0.009587287902832031,0.01597881317138672,-0.673314094543457,-0.36158084869384766,0.6350317001342773,0.1124267578125
175,275431840.0,7.190006256103516,-5.832452774047852,0.6668052673339844,0.033023834228515625,-0.009587287902832031,0.01597881317138672,-0.673314094543457,-0.36158084869384766,0.6350317001342773,0.1124267578125
176,275431872.0,7.069095611572266,-5.899492263793945,0.6871566772460938,0.057525634765625,0.00852203369140625,-0.08735370635986328,-0.673314094543457,-0.36158084869384766,0.6350317001342773,0.1124267578125
177,275431872.0,7.190006256103516,-5.848015785217285,0.6368770599365234,0.057525634765625,0.00852203369140625,-0.08735370635986328,-0.673314094543457,-0.36158084869384766,0.6350317001342773,0.1124267578125
178,275431904.0,7.2857770919799805,-5.7354841232299805,0.6440591812133789,0.061786651611328125,0.040480613708496094,-0.14701080322265625,-0.673314094543457,-0.36158084869384766,0.6350317001342773,0.1124267578125
179,275431936.0,7.242680549621582,-5.759427070617676,0.7003250122070312,0.026632308959960938,0.06711292266845703,-0.19707965850830078,-0.673314094543457,-0.36158084869384766,0.6350317001342773,0.1124267578125
180,275431936.0,7.313311576843262,-5.814496040344238,0.6021595001220703,0.026632308959960938,0.06711292266845703,-0.19707965850830078,-0.673314094543457,-0.36158084869384766,0.6350317001342773,0.1124267578125
181,275431968.0,7.674846649169922,-5.895900726318359,0.525543212890625,0.026632308959960938,0.06711292266845703,-0.19707965850830078,-0.673314094543457,-0.36158084869384766,0.6350317001342773,0.1124267578125
182,275432000.0,7.928640365600586,-5.991671562194824,0.5590629577636719,0.026632308959960938,0.06711292266845703,-0.19707965850830078,-0.673314094543457,-0.36158084869384766,0.6350317001342773,0.1124267578125
183,275432000.0,7.958568572998047,-6.06589412689209,0.735041618347168,0.026632308959960938,0.06711292266845703,-0.19707965850830078,-0.673314094543457,-0.36158084869384766,0.6350317001342773,0.1124267578125
184,275432032.0,7.986103057861328,-6.097020149230957,0.7805328369140625,0.026632308959960938,0.06711292266845703,-0.19707965850830078,-0.673314094543457,-0.36158084869384766,0.6350317001342773,0.1124267578125
185,275432160.0,8.176447868347168,-6.010826110839844,0.8320102691650391,0.045806884765625,-0.06711292266845703,0.0170440673828125,-0.673314094543457,-0.36158084869384766,0.6350317001342773,0.1124267578125
186,275432192.0,8.16567325592041,-6.023994445800781,0.8308124542236328,-0.031958580017089844,-0.04687213897705078,0.04687213897705078,-0.673314094543457,-0.36158084869384766,0.6350317001342773,0.1124267578125
187,275432192.0,8.176447868347168,-6.008431434631348,0.8248271942138672,-0.031958580017089844,-0.04687213897705078,0.04687213897705078,-0.673314094543457,-0.36158084869384766,0.6350317001342773,0.1124267578125
188,275432192.0,8.169264793395996,-6.018009185791016,0.793701171875,-0.031958580017089844,-0.04687213897705078,0.04687213897705078,-0.673314094543457,-0.36158084869384766,0.6350317001342773,0.1124267578125
189,275432192.0,8.112998962402344,-6.009629249572754,0.8176441192626953,-0.031958580017089844,-0.04687213897705078,0.04687213897705078,-0.673314094543457,-0.36158084869384766,0.6350317001342773,0.1124267578125
190,275432224.0,8.059127807617188,-6.033572196960449,0.8439817428588867,-0.05113410949707031,-0.031958580017089844,0.05539512634277344,-0.673314094543457,-0.36158084869384766,0.6350317001342773,0.1124267578125
191,275432224.0,7.983708381652832,-6.06230354309082,0.8463754653930664,-0.05113410949707031,-0.031958580017089844,0.05539512634277344,-0.673314094543457,-0.36158084869384766,0.6350317001342773,0.1124267578125
192,275432256.0,7.818503379821777,-6.082653999328613,0.8248271942138672,-0.0170440673828125,-0.045806884765625,0.0916147232055664,-0.673314094543457,-0.36158084869384766,0.6350317001342773,0.1124267578125
193,275432256.0,7.788575172424316,-6.0455427169799805,0.8068704605102539,-0.0170440673828125,-0.045806884765625,0.0916147232055664,-0.673314094543457,-0.36158084869384766,0.6350317001342773,0.1124267578125
194,275432288.0,7.838854789733887,-5.980897903442383,0.8248271942138672,-0.020239830017089844,-0.04687213897705078,0.10865974426269531,-0.673314094543457,-0.36158084869384766,0.6350317001342773,0.1124267578125
195,275432320.0,7.829277992248535,-5.922238349914551,0.773350715637207,-0.041545867919921875,-0.013848304748535156,0.10652923583984375,-0.673314094543457,-0.36158084869384766,0.6350317001342773,0.1124267578125
196,275432320.0,7.792166709899902,-5.888718605041504,0.7422246932983398,-0.041545867919921875,-0.013848304748535156,0.10652923583984375,-0.673314094543457,-0.36158084869384766,0.6350317001342773,0.1124267578125
197,275432352.0,7.85441780090332,-5.795341491699219,0.7194786071777344,-0.03515434265136719,-0.042611122131347656,0.07244014739990234,-0.673314094543457,-0.36158084869384766,0.6350317001342773,0.1124267578125
198,275432352.0,8.020819664001465,-5.819284439086914,0.6380739212036133,-0.03515434265136719,-0.042611122131347656,0.07244014739990234,-0.673314094543457,-0.36158084869384766,0.6350317001342773,0.1124267578125
199,275432384.0,7.990891456604004,-5.831255912780762,0.6488475799560547,-0.021305084228515625,-0.023435592651367188,0.05113410949707031,-0.673314094543457,-0.36158084869384766,0.6350317001342773,0.1124267578125
200,275432416.0,7.862797737121582,-5.8037214279174805,0.705113410949707,0.0031957626342773438,-0.045806884765625,0.03515434265136719,-0.673314094543457,-0.36158084869384766,0.6350317001342773,0.1124267578125
201,275432416.0,7.901105880737305,-5.808509826660156,0.7099018096923828,0.0031957626342773438,-0.045806884765625,0.03515434265136719,-0.673314094543457,-0.36158084869384766,0.6350317001342773,0.1124267578125
202,275432448.0,7.963356971740723,-5.782173156738281,0.74102783203125,0.01810932159423828,-0.04367637634277344,0.031958580017089844,-0.673314094543457,-0.36158084869384766,0.6350317001342773,0.1124267578125
203,275432480.0,7.846037864685059,-5.763018608093262,0.7182817459106445,0.0010652542114257812,-0.019174575805664062,0.021305084228515625,-0.673314094543457,-0.36158084869384766,0.6350317001342773,0.1124267578125
204,275432480.0,7.782589912414551,-5.678022384643555,0.7625761032104492,0.0010652542114257812,-0.019174575805664062,0.021305084228515625,-0.673314094543457,-0.36158084869384766,0.6350317001342773,0.1124267578125
205,275432512.0,7.80413818359375,-5.698373794555664,0.7218732833862305,-0.034089088439941406,-0.00852203369140625,-0.013848304748535156,-0.673314094543457,-0.36158084869384766,0.6350317001342773,0.1124267578125
206,275432512.0,7.907092094421387,-5.845621109008789,0.6775789260864258,-0.034089088439941406,-0.00852203369140625,-0.013848304748535156,-0.673314094543457,-0.36158084869384766,0.6350317001342773,0.1124267578125
207,275432544.0,8.012439727783203,-5.809706687927246,0.7075080871582031,-0.01597881317138672,-0.0031957626342773438,-0.026632308959960938,-0.673314094543457,-0.36158084869384766,0.6350317001342773,0.1124267578125
208,275432576.0,7.933428764343262,-5.871957778930664,0.6440591812133789,-0.01597881317138672,-0.0031957626342773438,-0.026632308959960938,-0.673314094543457,-0.36158084869384766,0.6350317001342773,0.1124267578125
209,275432576.0,7.87357234954834,-5.986883163452148,0.5925827026367188,-0.01597881317138672,-0.0031957626342773438,-0.026632308959960938,-0.673314094543457,-0.36158084869384766,0.6350317001342773,0.1124267578125
210,275432608.0,7.954977035522461,-5.8947038650512695,0.7434215545654297,-0.01597881317138672,-0.0031957626342773438,-0.026632308959960938,-0.673314094543457,-0.36158084869384766,0.6350317001342773,0.1124267578125
211,275432640.0,7.935823440551758,-5.833649635314941,0.6991281509399414,-0.01597881317138672,-0.0031957626342773438,-0.026632308959960938,-0.673314094543457,-0.36158084869384766,0.6350317001342773,0.1124267578125
212,275432640.0,7.866389274597168,-5.844424247741699,0.6715936660766602,-0.01597881317138672,-0.0031957626342773438,-0.026632308959960938,-0.673314094543457,-0.36158084869384766,0.6350317001342773,0.1124267578125
213,275432672.0,7.878360748291016,-5.936603546142578,0.6919450759887695,0.02982807159423828,-0.0031957626342773438,-0.02982807159423828,-0.673314094543457,-0.36158084869384766,0.6350317001342773,0.1124267578125
214,275432672.0,7.919063568115234,-5.909069061279297,0.6919450759887695,0.02982807159423828,-0.0031957626342773438,-0.02982807159423828,-0.673314094543457,-0.36158084869384766,0.6350317001342773,0.1124267578125
215,275432704.0,7.962160110473633,-5.791749954223633,0.7015218734741211,0.02982807159423828,0.0031957626342773438,-0.030893325805664062,-0.673314094543457,-0.36158084869384766,0.6350317001342773,0.1124267578125
216,275432736.0,7.935823440551758,-5.845621109008789,0.6859588623046875,-0.012783050537109375,0.005326271057128906,-0.024501800537109375,-0.673314094543457,-0.36158084869384766,0.6350317001342773,0.1124267578125
217,275432736.0,7.920260429382324,-5.915055274963379,0.6584253311157227,-0.012783050537109375,0.005326271057128906,-0.024501800537109375,-0.673314094543457,-0.36158084869384766,0.6350317001342773,0.1124267578125
218,275432768.0,7.904697418212891,-5.891112327575684,0.6153278350830078,0.02769756317138672,-0.0021305084228515625,-0.023435592651367188,-0.673314094543457,-0.36158084869384766,0.6350317001342773,0.1124267578125
219,275432768.0,7.85561466217041,-5.870760917663574,0.6380739212036133,0.02769756317138672,-0.0021305084228515625,-0.023435592651367188,-0.673314094543457,-0.36158084869384766,0.6350317001342773,0.1124267578125
220,275432800.0,7.897514343261719,-5.827664375305176,0.6512422561645508,0.041545867919921875,-0.009587287902832031,-0.01810932159423828,-0.673314094543457,-0.36158084869384766,0.6350317001342773,0.1124267578125
221,275432832.0,7.891529083251953,-5.808509826660156,0.6751852035522461,-0.040480613708496094,0.0010652542114257812,-0.012783050537109375,-0.673314094543457,-0.36158084869384766,0.6350317001342773,0.1124267578125
222,275432832.0,7.925048828125,-5.82407283782959,0.6524391174316406,-0.040480613708496094,0.0010652542114257812,-0.012783050537109375,-0.673314094543457,-0.36158084869384766,0.6350317001342773,0.1124267578125
223,275432960.0,7.898712158203125,-5.998854637145996,0.6488475799560547,0.0031957626342773438,-0.023435592651367188,0.012783050537109375,-0.6782770156860352,-0.3585166931152344,0.6358518600463867,0.08433055877685547
224,275432992.0,7.914274215698242,-5.917448997497559,0.6871566772460938,-0.005326271057128906,-0.01597881317138672,0.01597881317138672,-0.6782770156860352,-0.3585166931152344,0.6358518600463867,0.08433055877685547
225,275432992.0,7.901105880737305,-5.886323928833008,0.7242679595947266,-0.005326271057128906,-0.01597881317138672,0.01597881317138672,-0.6782770156860352,-0.3585166931152344,0.6358518600463867,0.08433055877685547
226,275433024.0,7.837657928466797,-5.922238349914551,0.6751852035522461,-0.012783050537109375,-0.019174575805664062,0.022370338439941406,-0.6782770156860352,-0.3585166931152344,0.6358518600463867,0.08433055877685547
227,275433056.0,7.813714981079102,-5.886323928833008,0.6488475799560547,0.010652542114257812,-0.01597881317138672,0.022370338439941406,-0.6782770156860352,-0.3585166931152344,0.6358518600463867,0.08433055877685547
228,275433056.0,7.87357234954834,-5.854001045227051,0.6751852035522461,0.010652542114257812,-0.01597881317138672,0.022370338439941406,-0.6782770156860352,-0.3585166931152344,0.6358518600463867,0.08433055877685547
229,275433088.0,7.916668891906738,-5.865972518920898,0.74102783203125,0.010652542114257812,-0.01597881317138672,0.022370338439941406,-0.6782770156860352,-0.3585166931152344,0.6358518600463867,0.08433055877685547
230,275433088.0,7.85561466217041,-5.867169380187988,0.6644105911254883,0.010652542114257812,-0.01597881317138672,0.022370338439941406,-0.6782770156860352,-0.3585166931152344,0.6358518600463867,0.08433055877685547
231,275433120.0,7.943005561828613,-5.863577842712402,0.6871566772460938,0.010652542114257812,-0.01597881317138672,0.022370338439941406,-0.6782770156860352,-0.3585166931152344,0.6358518600463867,0.08433055877685547
232,275433152.0,7.940611839294434,-5.986883163452148,0.6524391174316406,-0.014913558959960938,0.012783050537109375,0.010652542114257812,-0.6782770156860352,-0.3585166931152344,0.6358518600463867,0.08433055877685547
233,275433152.0,7.899909019470215,-6.01322078704834,0.5901880264282227,-0.014913558959960938,0.012783050537109375,0.010652542114257812,-0.6782770156860352,-0.3585166931152344,0.6358518600463867,0.08433055877685547
234,275433184.0,7.925048828125,-5.94498348236084,0.5985679626464844,0.005326271057128906,-0.012783050537109375,0.022370338439941406,-0.6782770156860352,-0.3585166931152344,0.6358518600463867,0.08433055877685547
235,275433216.0,7.925048828125,-5.94618034362793,0.5650482177734375,0.005326271057128906,-0.011717796325683594,0.03941535949707031,-0.6782770156860352,-0.3585166931152344,0.6358518600463867,0.08433055877685547
236,275433216.0,7.928640365600586,-5.910266876220703,0.6081457138061523,0.005326271057128906,-0.011717796325683594,0.03941535949707031,-0.6782770156860352,-0.3585166931152344,0.6358518600463867,0.08433055877685547
237,275433248.0,7.890332221984863,-5.846817970275879,0.6488475799560547,-0.025567054748535156,-0.023435592651367188,0.04474163055419922,-0.6782770156860352,-0.3585166931152344,0.6358518600463867,0.08433055877685547
238,275433248.0,7.8759660720825195,-5.849212646484375,0.6261024475097656,-0.025567054748535156,-0.023435592651367188,0.04474163055419922,-0.6782770156860352,-0.3585166931152344,0.6358518600463867,0.08433055877685547
239,275433280.0,7.962160110473633,-5.87315559387207,0.5746250152587891,-0.010652542114257812,-0.025567054748535156,0.041545867919921875,-0.6782770156860352,-0.3585166931152344,0.6358518600463867,0.08433055877685547
240,275433312.0,7.929837226867676,-5.838438034057617,0.610539436340332,-0.031958580017089844,-0.012783050537109375,0.026632308959960938,-0.6782770156860352,-0.3585166931152344,0.6358518600463867,0.08433055877685547
241,275433312.0,7.890332221984863,-5.8264665603637695,0.646453857421875,-0.031958580017089844,-0.012783050537109375,0.026632308959960938,-0.6782770156860352,-0.3585166931152344,0.6358518600463867,0.08433055877685547
242,275433344.0,7.965751647949219,-5.966531753540039,0.5913858413696289,-0.09481048583984375,-0.03835010528564453,0.031958580017089844,-0.6782770156860352,-0.3585166931152344,0.6358518600463867,0.08433055877685547
243,275433472.0,10.055953025817871,-10.571919441223145,-0.22506141662597656,-1.9665374755859375,-0.4655342102050781,0.34302520751953125,-0.6782770156860352,-0.3585166931152344,0.6358518600463867,0.08433055877685547
244,275433472.0,10.270240783691406,-14.870840072631836,-0.21189308166503906,-1.9665374755859375,-0.4655342102050781,0.34302520751953125,-0.6782770156860352,-0.3585166931152344,0.6358518600463867,0.08433055877685547
245,275433472.0,10.055953025817871,-10.571919441223145,-0.22506141662597656,-1.9665374755859375,-0.4655342102050781,0.34302520751953125,-0.6782770156860352,-0.3585166931152344,0.6358518600463867,0.08433055877685547
246,275433472.0,10.270240783691406,-14.870840072631836,-0.21189308166503906,-1.9665374755859375,-0.4655342102050781,0.34302520751953125,-0.6782770156860352,-0.3585166931152344,0.6358518600463867,0.08433055877685547
247,275433504.0,10.874794960021973,-18.196487426757812,1.3970584869384766,-1.9665374755859375,-0.4655342102050781,0.34302520751953125,-0.6782770156860352,-0.3585166931152344,0.6358518600463867,0.08433055877685547
248,275433504.0,10.874794960021973,-18.196487426757812,1.3970584869384766,-1.9665374755859375,-0.4655342102050781,0.34302520751953125,-0.6782770156860352,-0.3585166931152344,0.6358518600463867,0.08433055877685547
249,275433536.0,11.751099586486816,-18.580768585205078,1.9082365036010742,-1.9665374755859375,-0.4655342102050781,0.34302520751953125,-0.6782770156860352,-0.3585166931152344,0.6358518600463867,0.08433055877685547
250,275433536.0,13.310969352722168,-17.351306915283203,2.030344009399414,-1.9665374755859375,-0.4655342102050781,0.34302520751953125,-0.6782770156860352,-0.3585166931152344,0.6358518600463867,0.08433055877685547
251,275433536.0,11.751099586486816,-18.580768585205078,1.9082365036010742,-1.9665374755859375,-0.4655342102050781,0.34302520751953125,-0.6782770156860352,-0.3585166931152344,0.6358518600463867,0.08433055877685547
252,275433536.0,13.310969352722168,-17.351306915283203,2.030344009399414,-1.9665374755859375,-0.4655342102050781,0.34302520751953125,-0.6782770156860352,-0.3585166931152344,0.6358518600463867,0.08433055877685547
253,275433664.0,14.985764503479004,-25.92879867553711,-15.316174507141113,-0.2929563522338867,-2.2062292098999023,9.231863021850586,-0.6782770156860352,-0.3585166931152344,0.6358518600463867,0.08433055877685547
254,275433696.0,15.617853164672852,-21.046871185302734,-18.03846549987793,5.059094429016113,-5.084661483764648,11.433831214904785,-0.6782770156860352,-0.3585166931152344,0.6358518600463867,0.08433055877685547
255,275433696.0,17.729602813720703,-11.752297401428223,-18.269512176513672,5.059094429016113,-5.084661483764648,11.433831214904785,-0.6782770156860352,-0.3585166931152344,0.6358518600463867,0.08433055877685547
256,275433728.0,17.75115203857422,-4.2534284591674805,-13.382798194885254,4.904626846313477,-4.7448320388793945,11.73637580871582,-0.6782770156860352,-0.3585166931152344,0.6358518600463867,0.08433055877685547
257,275433728.0,16.021289825439453,-4.798126220703125,-8.830084800720215,4.904626846313477,-4.7448320388793945,11.73637580871582,-0.6782770156860352,-0.3585166931152344,0.6358518600463867,0.08433055877685547
258,275433760.0,16.312192916870117,-4.228288650512695,-7.049941062927246,4.904626846313477,-4.7448320388793945,11.73637580871582,-0.6782770156860352,-0.3585166931152344,0.6358518600463867,0.08433055877685547
259,275433760.0,17.401588439941406,-3.1616392135620117,-7.699987411499023,4.904626846313477,-4.7448320388793945,11.73637580871582,-0.6782770156860352,-0.3585166931152344,0.6358518600463867,0.08433055877685547
260,275433792.0,18.698087692260742,-1.4868440628051758,-8.457775115966797,4.904626846313477,-4.7448320388793945,11.73637580871582,-0.6782770156860352,-0.3585166931152344,0.6358518600463867,0.08433055877685547
261,275433792.0,19.503761291503906,4.488067626953125,-8.650513648986816,4.904626846313477,-4.7448320388793945,11.73637580871582,-0.6782770156860352,-0.3585166931152344,0.6358518600463867,0.08433055877685547
262,275433792.0,19.452285766601562,1.109745979309082,-8.972543716430664,4.904626846313477,-4.7448320388793945,11.73637580871582,-0.6782770156860352,-0.3585166931152344,0.6358518600463867,0.08433055877685547
263,275433824.0,17.08793830871582,10.721561431884766,-6.131736755371094,4.904626846313477,-4.7448320388793945,11.73637580871582,-0.6782770156860352,-0.3585166931152344,0.6358518600463867,0.08433055877685547
264,275433824.0,18.847728729248047,7.792166709899902,-7.334859848022461,4.904626846313477,-4.7448320388793945,11.73637580871582,-0.6782770156860352,-0.3585166931152344,0.6358518600463867,0.08433055877685547
265,275433824.0,14.661340713500977,12.581912994384766,-4.70355224609375,4.904626846313477,-4.7448320388793945,11.73637580871582,-0.6782770156860352,-0.3585166931152344,0.6358518600463867,0.08433055877685547
266,275433856.0,12.293402671813965,13.589902877807617,-3.4764862060546875,2.5215578079223633,0.3174581527709961,5.6002655029296875,-0.6782770156860352,-0.3585166931152344,0.6358518600463867,0.08433055877685547
267,275433952.0,6.591437339782715,14.335719108581543,1.1516456604003906,-0.28443336486816406,0.3334379196166992,-0.09587669372558594,0.23508358001708984,-0.7906618118286133,-0.34371376037597656,0.4488029479980469
268,275433952.0,6.966141700744629,14.38719654083252,0.3567466735839844,-0.28443336486816406,0.3334379196166992,-0.09587669372558594,0.23508358001708984,-0.7906618118286133,-0.34371376037597656,0.4488029479980469
269,275433984.0,7.419857025146484,14.096291542053223,-0.6608190536499023,-0.28443336486816406,0.3334379196166992,-0.09587669372558594,0.15903854370117188,-0.8232030868530273,-0.26551055908203125,0.47599315643310547
270,275433984.0,8.585868835449219,12.71718978881836,-3.244241714477539,-0.28443336486816406,0.3334379196166992,-0.09587669372558594,0.15903854370117188,-0.8232030868530273,-0.26551055908203125,0.47599315643310547
271,275433984.0,7.9058942794799805,13.312167167663574,-2.004007339477539,-0.28443336486816406,0.3334379196166992,-0.09587669372558594,0.15903854370117188,-0.8232030868530273,-0.26551055908203125,0.47599315643310547
272,275433984.0,9.688431739807129,12.341288566589355,-4.063083648681641,-0.28443336486816406,0.3334379196166992,-0.09587669372558594,0.15903854370117188,-0.8232030868530273,-0.26551055908203125,0.47599315643310547
273,275434016.0,11.26506233215332,11.417098045349121,-4.733480453491211,-0.28443336486816406,0.3334379196166992,-0.09587669372558594,0.08920764923095703,-0.8440485000610352,-0.20962047576904297,0.4854879379272461
274,275434016.0,16.461833953857422,8.235107421875,-3.7554197311401367,-0.28443336486816406,0.3334379196166992,-0.09587669372558594,0.08920764923095703,-0.8440485000610352,-0.20962047576904297,0.4854879379272461
275,275434016.0,13.546805381774902,9.781808853149414,-4.228288650512695,-0.28443336486816406,0.3334379196166992,-0.09587669372558594,0.08920764923095703,-0.8440485000610352,-0.20962047576904297,0.4854879379272461
276,275434048.0,22.38167953491211,5.101001739501953,-5.061496734619141,-0.28443336486816406,0.3334379196166992,-0.09587669372558594,-0.006949424743652344,-0.861872673034668,-0.14380455017089844,0.4862651824951172
277,275434048.0,19.579181671142578,6.709954261779785,-4.345607757568359,-0.28443336486816406,0.3334379196166992,-0.09587669372558594,-0.006949424743652344,-0.861872673034668,-0.14380455017089844,0.4862651824951172
278,275434176.0,39.226600646972656,-0.5734281539916992,-8.11659049987793,-13.314080238342285,1.9793214797973633,-17.939599990844727,-0.006949424743652344,-0.861872673034668,-0.14380455017089844,0.4862651824951172
279,275434176.0,39.226600646972656,4.747846603393555,-21.422771453857422,-13.314080238342285,1.9793214797973633,-17.939599990844727,-0.006949424743652344,-0.861872673034668,-0.14380455017089844,0.4862651824951172
280,275434176.0,39.226600646972656,2.628912925720215,-13.070344924926758,-13.314080238342285,1.9793214797973633,-17.939599990844727,-0.006949424743652344,-0.861872673034668,-0.14380455017089844,0.4862651824951172
281,275434176.0,39.226600646972656,-7.562315940856934,-32.110816955566406,-13.314080238342285,1.9793214797973633,-17.939599990844727,-0.006949424743652344,-0.861872673034668,-0.14380455017089844,0.4862651824951172
282,275434176.0,39.226600646972656,-0.5734281539916992,-8.11659049987793,-13.314080238342285,1.9793214797973633,-17.939599990844727,-0.006949424743652344,-0.861872673034668,-0.14380455017089844,0.4862651824951172
283,275434176.0,39.226600646972656,4.747846603393555,-21.422771453857422,-13.314080238342285,1.9793214797973633,-17.939599990844727,-0.006949424743652344,-0.861872673034668,-0.14380455017089844,0.4862651824951172
284,275434208.0,39.226600646972656,-39.226600646972656,-37.245338439941406,20.324798583984375,13.318342208862305,-15.666255950927734,-0.006949424743652344,-0.861872673034668,-0.14380455017089844,0.4862651824951172
285,275434208.0,14.605074882507324,-37.91693115234375,-26.721302032470703,20.324798583984375,13.318342208862305,-15.666255950927734,-0.006949424743652344,-0.861872673034668,-0.14380455017089844,0.4862651824951172
286,275434208.0,37.258506774902344,-39.226600646972656,7.80533504486084,20.324798583984375,13.318342208862305,-15.666255950927734,-0.006949424743652344,-0.861872673034668,-0.14380455017089844,0.4862651824951172
287,275434208.0,39.226600646972656,-39.226600646972656,-37.245338439941406,20.324798583984375,13.318342208862305,-15.666255950927734,-0.006949424743652344,-0.861872673034668,-0.14380455017089844,0.4862651824951172
288,275434208.0,14.605074882507324,-37.91693115234375,-26.721302032470703,20.324798583984375,13.318342208862305,-15.666255950927734,-0.006949424743652344,-0.861872673034668,-0.14380455017089844,0.4862651824951172
289,275434240.0,8.551151275634766,-5.807312965393066,-30.12236976623535,31.300554275512695,0.8309307098388672,-8.105843544006348,-0.006949424743652344,-0.861872673034668,-0.14380455017089844,0.4862651824951172
290,275434240.0,-0.06225109100341797,-17.73558807373047,-39.226600646972656,31.300554275512695,0.8309307098388672,-8.105843544006348,-0.006949424743652344,-0.861872673034668,-0.14380455017089844,0.4862651824951172
291,275434240.0,8.551151275634766,-5.807312965393066,-30.12236976623535,31.300554275512695,0.8309307098388672,-8.105843544006348,-0.006949424743652344,-0.861872673034668,-0.14380455017089844,0.4862651824951172
292,275434368.0,10.392349243164062,-0.7039165496826172,2.778554916381836,6.906319618225098,-1.7279109954833984,0.3632659912109375,-0.006949424743652344,-0.861872673034668,-0.14380455017089844,0.4862651824951172
293,275434368.0,8.916278839111328,-2.966506004333496,3.2238903045654297,6.906319618225098,-1.7279109954833984,0.3632659912109375,-0.006949424743652344,-0.861872673034668,-0.14380455017089844,0.4862651824951172
294,275434400.0,10.691633224487305,-4.010409355163574,1.4126214981079102,6.906319618225098,-1.7279109954833984,0.3632659912109375,-0.006949424743652344,-0.861872673034668,-0.14380455017089844,0.4862651824951172
295,275434432.0,11.812153816223145,-3.589016914367676,0.1843585968017578,6.906319618225098,-1.7279109954833984,0.3632659912109375,-0.006949424743652344,-0.861872673034668,-0.14380455017089844,0.4862651824951172
296,275434432.0,11.69483470916748,-3.999635696411133,-0.18316173553466797,6.906319618225098,-1.7279109954833984,0.3632659912109375,-0.006949424743652344,-0.861872673034668,-0.14380455017089844,0.4862651824951172
297,275434464.0,9.823708534240723,-2.0638647079467773,1.1995315551757812,1.0748844146728516,0.44209766387939453,1.2453317642211914,-0.006949424743652344,-0.861872673034668,-0.14380455017089844,0.4862651824951172
298,275434464.0,9.270630836486816,1.0893945693969727,1.2294597625732422,1.0748844146728516,0.44209766387939453,1.2453317642211914,-0.006949424743652344,-0.861872673034668,-0.14380455017089844,0.4862651824951172
299,275434496.0,9.846454620361328,1.508392333984375,0.44294071197509766,-0.49323177337646484,0.20027542114257812,1.4892845153808594,-0.006949424743652344,-0.861872673034668,-0.14380455017089844,0.4862651824951172
300,275434528.0,10.85564136505127,-1.1636171340942383,-1.0331287384033203,-1.7854375839233398,0.18003463745117188,1.4189748764038086,-0.006949424743652344,-0.861872673034668,-0.14380455017089844,0.4862651824951172
301,275434528.0,11.35604476928711,-3.029953956604004,-1.4245929718017578,-1.7854375839233398,0.18003463745117188,1.4189748764038086,-0.006949424743652344,-0.861872673034668,-0.14380455017089844,0.4862651824951172
302,275434560.0,9.859622955322266,-2.845595359802246,-0.9636955261230469,-1.7854375839233398,0.18003463745117188,1.4189748764038086,-0.006949424743652344,-0.861872673034668,-0.14380455017089844,0.4862651824951172
303,275434592.0,8.181236267089844,-2.743838310241699,-0.1077423095703125,-1.7854375839233398,0.18003463745117188,1.4189748764038086,-0.006949424743652344,-0.861872673034668,-0.14380455017089844,0.4862651824951172
304,275434592.0,7.940611839294434,-3.08382511138916,0.4070262908935547,-1.7854375839233398,0.18003463745117188,1.4189748764038086,-0.006949424743652344,-0.861872673034668,-0.14380455017089844,0.4862651824951172
305,275434624.0,7.941808700561523,-2.869537353515625,0.6991281509399414,-1.7854375839233398,0.18003463745117188,1.4189748764038086,-0.006949424743652344,-0.861872673034668,-0.14380455017089844,0.4862651824951172
306,275434624.0,7.756252288818359,-2.497227668762207,0.8595438003540039,-1.7854375839233398,0.18003463745117188,1.4189748764038086,-0.006949424743652344,-0.861872673034668,-0.14380455017089844,0.4862651824951172
307,275434752.0,9.556747436523438,-3.6764087677001953,-0.18076705932617188,-0.0809621810913086,0.026632308959960938,-0.30147838592529297,-0.006949424743652344,-0.861872673034668,-0.14380455017089844,0.4862651824951172
308,275434752.0,9.414287567138672,-3.5495119094848633,-0.2418212890625,-0.0809621810913086,0.026632308959960938,-0.30147838592529297,-0.006949424743652344,-0.861872673034668,-0.14380455017089844,0.4862651824951172
309,275434784.0,9.225139617919922,-3.5112037658691406,-0.0814046859741211,-0.10759449005126953,0.16831684112548828,-0.2993478775024414,-0.006949424743652344,-0.861872673034668,-0.14380455017089844,0.4862651824951172
310,275434784.0,9.003669738769531,-3.806896209716797,0.42498302459716797,-0.10759449005126953,0.16831684112548828,-0.2993478775024414,-0.006949424743652344,-0.861872673034668,-0.14380455017089844,0.4862651824951172
311,275434784.0,9.056344032287598,-3.6081714630126953,0.15083885192871094,-0.10759449005126953,0.16831684112548828,-0.2993478775024414,-0.006949424743652344,-0.861872673034668,-0.14380455017089844,0.4862651824951172
312,275434816.0,8.971346855163574,-4.08223819732666,0.5758228302001953,-0.1789693832397461,0.15340232849121094,-0.30147838592529297,-0.006949424743652344,-0.861872673034668,-0.14380455017089844,0.4862651824951172
313,275434816.0,8.99528980255127,-4.000832557678223,0.5662450790405273,-0.1789693832397461,0.15340232849121094,-0.30147838592529297,-0.006949424743652344,-0.861872673034668,-0.14380455017089844,0.4862651824951172
314,275434816.0,8.941418647766113,-4.0116071701049805,0.5303316116333008,-0.1789693832397461,0.15340232849121094,-0.30147838592529297,-0.006949424743652344,-0.861872673034668,-0.14380455017089844,0.4862651824951172
315,275434848.0,8.92705249786377,-3.8152761459350586,0.4022378921508789,-0.2194509506225586,0.1320962905883789,-0.2716503143310547,-0.6859159469604492,-0.2605476379394531,0.6783199310302734,0.03931713104248047
316,275434944.0,9.041977882385254,-4.389902114868164,0.5171632766723633,-0.2194509506225586,0.1320962905883789,-0.2716503143310547,-0.6949796676635742,-0.23767375946044922,0.6777153015136719,0.03629589080810547
317,275434944.0,9.041977882385254,-4.389902114868164,0.5171632766723633,-0.2194509506225586,0.1320962905883789,-0.2716503143310547,-0.6949796676635742,-0.23767375946044922,0.6777153015136719,0.03629589080810547
318,275434976.0,9.136551856994629,-4.553910255432129,0.8703184127807617,-0.2194509506225586,0.1320962905883789,-0.2716503143310547,-0.6949796676635742,-0.23767375946044922,0.6777153015136719,0.03629589080810547
319,275434976.0,9.11500358581543,-4.319271087646484,0.8571500778198242,-0.2194509506225586,0.1320962905883789,-0.2716503143310547,-0.6949796676635742,-0.23767375946044922,0.6777153015136719,0.03629589080810547
320,275434976.0,9.136551856994629,-4.553910255432129,0.8703184127807617,-0.2194509506225586,0.1320962905883789,-0.2716503143310547,-0.6949796676635742,-0.23767375946044922,0.6777153015136719,0.03629589080810547
321,275434976.0,9.11500358581543,-4.319271087646484,0.8571500778198242,-0.2194509506225586,0.1320962905883789,-0.2716503143310547,-0.6949796676635742,-0.23767375946044922,0.6777153015136719,0.03629589080810547
322,275435008.0,8.983318328857422,-4.110969543457031,0.7518014907836914,-0.2194509506225586,0.1320962905883789,-0.2716503143310547,-0.6949796676635742,-0.23767375946044922,0.6777153015136719,0.03629589080810547
323,275435008.0,8.983318328857422,-4.110969543457031,0.7518014907836914,-0.2194509506225586,0.1320962905883789,-0.2716503143310547,-0.6949796676635742,-0.23767375946044922,0.6777153015136719,0.03629589080810547
324,275435040.0,9.016838073730469,-4.1911773681640625,0.7518014907836914,-0.2194509506225586,0.1320962905883789,-0.2716503143310547,-0.6958427429199219,-0.2409963607788086,0.6758594512939453,0.03146171569824219
325,275435040.0,9.016838073730469,-4.1911773681640625,0.7518014907836914,-0.2194509506225586,0.1320962905883789,-0.2716503143310547,-0.6958427429199219,-0.2409963607788086,0.6758594512939453,0.03146171569824219
326,275435136.0,9.087469100952148,-4.218711853027344,0.8858814239501953,0.2418222427368164,-0.0031957626342773438,-0.011717796325683594,-0.6925630569458008,-0.24941253662109375,0.6763343811035156,0.026973724365234375
327,275435168.0,9.142537117004395,-3.991255760192871,0.7637729644775391,0.2418222427368164,-0.0031957626342773438,-0.011717796325683594,-0.6925630569458008,-0.24941253662109375,0.6763343811035156,0.026973724365234375
328,275435200.0,9.134157180786133,-3.8835134506225586,0.6308908462524414,0.2418222427368164,-0.0031957626342773438,-0.011717796325683594,-0.6925630569458008,-0.24941253662109375,0.6763343811035156,0.026973724365234375
329,275435200.0,8.989303588867188,-3.9170331954956055,0.6129341125488281,0.2418222427368164,-0.0031957626342773438,-0.011717796325683594,-0.6925630569458008,-0.24941253662109375,0.6763343811035156,0.026973724365234375
330,275435232.0,9.000078201293945,-4.055900573730469,0.6811704635620117,0.2418222427368164,-0.0031957626342773438,-0.011717796325683594,-0.6925630569458008,-0.24941253662109375,0.6763343811035156,0.026973724365234375
331,275435232.0,9.06472396850586,-4.003227233886719,0.6560306549072266,0.2418222427368164,-0.0031957626342773438,-0.011717796325683594,-0.6925630569458008,-0.24941253662109375,0.6763343811035156,0.026973724365234375
332,275435232.0,9.06472396850586,-4.003227233886719,0.6560306549072266,0.2418222427368164,-0.0031957626342773438,-0.011717796325683594,-0.6925630569458008,-0.24941253662109375,0.6763343811035156,0.026973724365234375
333,275435264.0,9.113805770874023,-3.8583736419677734,0.6117362976074219,0.2418222427368164,-0.0031957626342773438,-0.011717796325683594,-0.6925630569458008,-0.24941253662109375,0.6763343811035156,0.026973724365234375
334,275435264.0,9.113805770874023,-3.8583736419677734,0.6117362976074219,0.2418222427368164,-0.0031957626342773438,-0.011717796325683594,-0.6925630569458008,-0.24941253662109375,0.6763343811035156,0.026973724365234375
335,275435296.0,9.07669448852539,-3.926609992980957,0.6165256500244141,0.2418222427368164,-0.0031957626342773438,-0.011717796325683594,-0.6925630569458008,-0.24941253662109375,0.6763343811035156,0.026973724365234375
336,275435296.0,9.022823333740234,-4.0606889724731445,0.6703968048095703,0.2418222427368164,-0.0031957626342773438,-0.011717796325683594,-0.6925630569458008,-0.24941253662109375,0.6763343811035156,0.026973724365234375
337,275435296.0,9.07669448852539,-3.926609992980957,0.6165256500244141,0.2418222427368164,-0.0031957626342773438,-0.011717796325683594,-0.6925630569458008,-0.24941253662109375,0.6763343811035156,0.026973724365234375
338,275435296.0,9.022823333740234,-4.0606889724731445,0.6703968048095703,0.2418222427368164,-0.0031957626342773438,-0.011717796325683594,-0.6925630569458008,-0.24941253662109375,0.6763343811035156,0.026973724365234375
339,275435328.0,9.063526153564453,-3.952946662902832,0.6524391174316406,0.2418222427368164,-0.0031957626342773438,-0.011717796325683594,-0.6925630569458008,-0.24941253662109375,0.6763343811035156,0.026973724365234375
340,275435328.0,9.063526153564453,-3.952946662902832,0.6524391174316406,0.2418222427368164,-0.0031957626342773438,-0.011717796325683594,-0.6925630569458008,-0.24941253662109375,0.6763343811035156,0.026973724365234375
341,275435360.0,9.083877563476562,-3.804502487182617,0.6225109100341797,0.18855667114257812,0.011717796325683594,0.07563591003417969,-0.6925630569458008,-0.24941253662109375,0.6763343811035156,0.026973724365234375
342,275435360.0,9.020429611206055,-3.737462043762207,0.6715936660766602,0.18855667114257812,0.011717796325683594,0.07563591003417969,-0.6925630569458008,-0.24941253662109375,0.6763343811035156,0.026973724365234375
343,275435392.0,8.918672561645508,-3.860767364501953,0.6763820648193359,0.0745706558227539,0.0063915252685546875,0.06391716003417969,-0.6925630569458008,-0.24941253662109375,0.6763343811035156,0.026973724365234375
344,275435392.0,8.948601722717285,-3.940976142883301,0.7482099533081055,0.0745706558227539,0.0063915252685546875,0.06391716003417969,-0.6925630569458008,-0.24941253662109375,0.6763343811035156,0.026973724365234375
345,275435424.0,9.020429611206055,-3.8296422958374023,0.8200387954711914,0.09481048583984375,-0.0170440673828125,0.07137489318847656,-0.6925630569458008,-0.24941253662109375,0.6763343811035156,0.026973724365234375
346,275435456.0,9.039584159851074,-3.709928512573242,0.6668052673339844,0.09481048583984375,-0.0170440673828125,0.07137489318847656,-0.6925630569458008,-0.24941253662109375,0.6763343811035156,0.026973724365234375
347,275435456.0,8.939023971557617,-3.7494335174560547,0.6452569961547852,0.09481048583984375,-0.0170440673828125,0.07137489318847656,-0.6925630569458008,-0.24941253662109375,0.6763343811035156,0.026973724365234375
348,275435456.0,9.039584159851074,-3.709928512573242,0.6668052673339844,0.09481048583984375,-0.0170440673828125,0.07137489318847656,-0.6925630569458008,-0.24941253662109375,0.6763343811035156,0.026973724365234375
349,275435456.0,8.939023971557617,-3.7494335174560547,0.6452569961547852,0.09481048583984375,-0.0170440673828125,0.07137489318847656,-0.6925630569458008,-0.24941253662109375,0.6763343811035156,0.026973724365234375
350,275435488.0,8.942615509033203,-3.927806854248047,0.6799736022949219,0.09481048583984375,-0.0170440673828125,0.07137489318847656,-0.6925630569458008,-0.24941253662109375,0.6763343811035156,0.026973724365234375
351,275435488.0,8.942615509033203,-3.927806854248047,0.6799736022949219,0.09481048583984375,-0.0170440673828125,0.07137489318847656,-0.6925630569458008,-0.24941253662109375,0.6763343811035156,0.026973724365234375
352,275435520.0,9.021626472473145,-3.9864673614501953,0.6955366134643555,0.09481048583984375,-0.0170440673828125,0.07137489318847656,-0.6925630569458008,-0.24941253662109375,0.6763343811035156,0.026973724365234375
353,275435520.0,9.079089164733887,-3.803304672241211,0.7170848846435547,0.09481048583984375,-0.0170440673828125,0.07137489318847656,-0.6925630569458008,-0.24941253662109375,0.6763343811035156,0.026973724365234375
354,275435520.0,9.021626472473145,-3.9864673614501953,0.6955366134643555,0.09481048583984375,-0.0170440673828125,0.07137489318847656,-0.6925630569458008,-0.24941253662109375,0.6763343811035156,0.026973724365234375
355,275435520.0,9.079089164733887,-3.803304672241211,0.7170848846435547,0.09481048583984375,-0.0170440673828125,0.07137489318847656,-0.6925630569458008,-0.24941253662109375,0.6763343811035156,0.026973724365234375
356,275435648.0,8.895927429199219,-3.9397783279418945,0.8044757843017578,0.02982807159423828,-0.0031957626342773438,0.00852203369140625,-0.6830244064331055,-0.2794942855834961,0.6746511459350586,0.014673233032226562
357,275435680.0,9.035992622375488,-3.9972410202026367,0.8846836090087891,0.02982807159423828,-0.0031957626342773438,0.00852203369140625,-0.6830244064331055,-0.2794942855834961,0.6746511459350586,0.014673233032226562
358,275435680.0,9.068314552307129,-3.955341339111328,0.8056726455688477,0.02982807159423828,-0.0031957626342773438,0.00852203369140625,-0.6830244064331055,-0.2794942855834961,0.6746511459350586,0.014673233032226562
359,275435712.0,9.016838073730469,-3.9445667266845703,0.803278923034668,0.02982807159423828,-0.0031957626342773438,0.00852203369140625,-0.6830244064331055,-0.2794942855834961,0.6746511459350586,0.014673233032226562
360,275435712.0,9.013246536254883,-4.016395568847656,0.8810930252075195,0.02982807159423828,-0.0031957626342773438,0.00852203369140625,-0.6830244064331055,-0.2794942855834961,0.6746511459350586,0.014673233032226562
361,275435744.0,8.968952178955078,-4.01519775390625,0.9732723236083984,0.02982807159423828,-0.0031957626342773438,0.00852203369140625,-0.6830244064331055,-0.2794942855834961,0.6746511459350586,0.014673233032226562
362,275435776.0,8.978529930114746,-3.9110469818115234,0.9457378387451172,0.02982807159423828,-0.0031957626342773438,0.00852203369140625,-0.6830244064331055,-0.2794942855834961,0.6746511459350586,0.014673233032226562
363,275435776.0,9.06472396850586,-3.960129737854004,0.9265842437744141,0.02982807159423828,-0.0031957626342773438,0.00852203369140625,-0.6830244064331055,-0.2794942855834961,0.6746511459350586,0.014673233032226562
364,275435808.0,9.055146217346191,-4.003227233886719,0.8751068115234375,0.02982807159423828,-0.0031957626342773438,0.00852203369140625,-0.6830244064331055,-0.2794942855834961,0.6746511459350586,0.014673233032226562
365,275435840.0,8.980923652648926,-4.118151664733887,0.894261360168457,0.13422679901123047,-0.024501800537109375,-0.005326271057128906,-0.6801328659057617,-0.28566551208496094,0.6751260757446289,0.0053081512451171875
366,275435936.0,8.958178520202637,-3.9026670455932617,0.8822898864746094,0.12463951110839844,0.0010652542114257812,-0.010652542114257812,-0.679011344909668,-0.28859996795654297,0.6750392913818359,0.0023736953735351562
367,275435936.0,8.958178520202637,-3.9026670455932617,0.8822898864746094,0.12463951110839844,0.0010652542114257812,-0.010652542114257812,-0.679011344909668,-0.28859996795654297,0.6750392913818359,0.0023736953735351562
368,275435968.0,8.956981658935547,-3.810487747192383,0.8595438003540039,0.0010652542114257812,0.009587287902832031,0.021305084228515625,-0.679011344909668,-0.28859996795654297,0.6750392913818359,0.0023736953735351562
369,275435968.0,8.95458698272705,-3.9074554443359375,0.8475723266601562,0.0010652542114257812,0.009587287902832031,0.021305084228515625,-0.679011344909668,-0.28859996795654297,0.6750392913818359,0.0023736953735351562
370,275435968.0,8.956981658935547,-3.810487747192383,0.8595438003540039,0.0010652542114257812,0.009587287902832031,0.021305084228515625,-0.679011344909668,-0.28859996795654297,0.6750392913818359,0.0023736953735351562
371,275435968.0,8.95458698272705,-3.9074554443359375,0.8475723266601562,0.0010652542114257812,0.009587287902832031,0.021305084228515625,-0.679011344909668,-0.28859996795654297,0.6750392913818359,0.0023736953735351562
372,275436000.0,8.931840896606445,-4.051112174987793,0.8200387954711914,0.02982807159423828,0.010652542114257812,0.014913558959960938,-0.679011344909668,-0.28859996795654297,0.6750392913818359,0.0023736953735351562
373,275436000.0,8.931840896606445,-4.051112174987793,0.8200387954711914,0.02982807159423828,0.010652542114257812,0.014913558959960938,-0.679011344909668,-0.28859996795654297,0.6750392913818359,0.0023736953735351562
374,275436032.0,8.90311050415039,-3.9768896102905273,0.8367986679077148,0.07883167266845703,-0.0063915252685546875,0.01597881317138672,-0.679011344909668,-0.28859996795654297,0.6750392913818359,0.0023736953735351562
375,275436032.0,8.90311050415039,-3.9768896102905273,0.8367986679077148,0.07883167266845703,-0.0063915252685546875,0.01597881317138672,-0.679011344909668,-0.28859996795654297,0.6750392913818359,0.0023736953735351562
376,275436160.0,9.034794807434082,-3.7494335174560547,0.826024055480957,-0.02982807159423828,-0.026632308959960938,0.020239830017089844,-0.679011344909668,-0.28859996795654297,0.6750392913818359,0.0023736953735351562
377,275436160.0,8.982121467590332,-3.846402168273926,0.8272218704223633,-0.02982807159423828,-0.026632308959960938,0.020239830017089844,-0.679011344909668,-0.28859996795654297,0.6750392913818359,0.0023736953735351562
378,275436160.0,9.034794807434082,-3.7494335174560547,0.826024055480957,-0.02982807159423828,-0.026632308959960938,0.020239830017089844,-0.679011344909668,-0.28859996795654297,0.6750392913818359,0.0023736953735351562
379,275436160.0,8.982121467590332,-3.846402168273926,0.8272218704223633,-0.02982807159423828,-0.026632308959960938,0.020239830017089844,-0.679011344909668,-0.28859996795654297,0.6750392913818359,0.0023736953735351562
380,275436192.0,8.97493839263916,-3.9505529403686523,0.8332071304321289,0.014913558959960938,-0.03941535949707031,0.010652542114257812,-0.679011344909668,-0.28859996795654297,0.6750392913818359,0.0023736953735351562
381,275436192.0,8.984515190124512,-3.940976142883301,0.9648923873901367,0.014913558959960938,-0.03941535949707031,0.010652542114257812,-0.679011344909668,-0.28859996795654297,0.6750392913818359,0.0023736953735351562
382,275436192.0,8.97493839263916,-3.9505529403686523,0.8332071304321289,0.014913558959960938,-0.03941535949707031,0.010652542114257812,-0.679011344909668,-0.28859996795654297,0.6750392913818359,0.0023736953735351562
383,275436192.0,8.984515190124512,-3.940976142883301,0.9648923873901367,0.014913558959960938,-0.03941535949707031,0.010652542114257812,-0.679011344909668,-0.28859996795654297,0.6750392913818359,0.0023736953735351562
384,275436224.0,8.984515190124512,-3.812882423400879,0.9337663650512695,0.05113410949707031,-0.042611122131347656,0.0,-0.679011344909668,-0.28859996795654297,0.6750392913818359,0.0023736953735351562
385,275436224.0,8.984515190124512,-3.812882423400879,0.9337663650512695,0.05113410949707031,-0.042611122131347656,0.0,-0.679011344909668,-0.28859996795654297,0.6750392913818359,0.0023736953735351562
386,275436352.0,9.088665962219238,-3.7554197311401367,0.950526237487793,-0.013848304748535156,0.007456779479980469,-0.06498241424560547,-0.679011344909668,-0.28859996795654297,0.6750392913818359,0.0023736953735351562
387,275436352.0,9.073103904724121,-3.958932876586914,0.9229927062988281,-0.013848304748535156,0.007456779479980469,-0.06498241424560547,-0.679011344909668,-0.28859996795654297,0.6750392913818359,0.0023736953735351562
388,275436352.0,9.088665962219238,-3.7554197311401367,0.950526237487793,-0.013848304748535156,0.007456779479980469,-0.06498241424560547,-0.679011344909668,-0.28859996795654297,0.6750392913818359,0.0023736953735351562
389,275436352.0,9.073103904724121,-3.958932876586914,0.9229927062988281,-0.013848304748535156,0.007456779479980469,-0.06498241424560547,-0.679011344909668,-0.28859996795654297,0.6750392913818359,0.0023736953735351562
390,275436384.0,9.013246536254883,-4.047520637512207,0.9134149551391602,0.025567054748535156,0.0063915252685546875,-0.05646038055419922,-0.679011344909668,-0.28859996795654297,0.6750392913818359,0.0023736953735351562
391,275436384.0,9.013246536254883,-4.047520637512207,0.9134149551391602,0.025567054748535156,0.0063915252685546875,-0.05646038055419922,-0.679011344909668,-0.28859996795654297,0.6750392913818359,0.0023736953735351562
392,275436416.0,9.034794807434082,-3.9206247329711914,0.9720754623413086,-0.01810932159423828,-0.00852203369140625,-0.021305084228515625,-0.679011344909668,-0.28859996795654297,0.6750392913818359,0.0023736953735351562
393,275436416.0,9.083877563476562,-3.8871049880981445,0.8870782852172852,-0.01810932159423828,-0.00852203369140625,-0.021305084228515625,-0.679011344909668,-0.28859996795654297,0.6750392913818359,0.0023736953735351562
394,275436416.0,9.034794807434082,-3.9206247329711914,0.9720754623413086,-0.01810932159423828,-0.00852203369140625,-0.021305084228515625,-0.679011344909668,-0.28859996795654297,0.6750392913818359,0.0023736953735351562
395,275436416.0,9.083877563476562,-3.8871049880981445,0.8870782852172852,-0.01810932159423828,-0.00852203369140625,-0.021305084228515625,-0.679011344909668,-0.28859996795654297,0.6750392913818359,0.0023736953735351562
396,275436544.0,9.107820510864258,-3.9110469818115234,0.855952262878418,-0.01810932159423828,-0.00852203369140625,-0.021305084228515625,-0.679011344909668,-0.28859996795654297,0.6750392913818359,0.0023736953735351562
397,275436544.0,9.107820510864258,-3.9110469818115234,0.855952262878418,-0.01810932159423828,-0.00852203369140625,-0.021305084228515625,-0.679011344909668,-0.28859996795654297,0.6750392913818359,0.0023736953735351562
398,275436576.0,9.002472877502441,-3.926609992980957,0.8763036727905273,-0.01810932159423828,-0.00852203369140625,-0.021305084228515625,-0.679011344909668,-0.28859996795654297,0.6750392913818359,0.0023736953735351562
399,275436576.0,8.97493839263916,-3.8859071731567383,0.8200387954711914,-0.01810932159423828,-0.00852203369140625,-0.021305084228515625,-0.679011344909668,-0.28859996795654297,0.6750392913818359,0.0023736953735351562
400,275436576.0,9.002472877502441,-3.926609992980957,0.8763036727905273,-0.01810932159423828,-0.00852203369140625,-0.021305084228515625,-0.679011344909668,-0.28859996795654297,0.6750392913818359,0.0023736953735351562
401,275436576.0,8.97493839263916,-3.8859071731567383,0.8200387954711914,-0.01810932159423828,-0.00852203369140625,-0.021305084228515625,-0.679011344909668,-0.28859996795654297,0.6750392913818359,0.0023736953735351562
402,275436608.0,9.016838073730469,-3.8835134506225586,0.8415870666503906,-0.01810932159423828,-0.00852203369140625,-0.021305084228515625,-0.679011344909668,-0.28859996795654297,0.6750392913818359,0.0023736953735351562
403,275436608.0,9.04437255859375,-3.872738838195801,0.8236303329467773,-0.01810932159423828,-0.00852203369140625,-0.021305084228515625,-0.679011344909668,-0.28859996795654297,0.6750392913818359,0.0023736953735351562
404,275436608.0,9.016838073730469,-3.8835134506225586,0.8415870666503906,-0.01810932159423828,-0.00852203369140625,-0.021305084228515625,-0.679011344909668,-0.28859996795654297,0.6750392913818359,0.0023736953735351562
405,275436608.0,9.04437255859375,-3.872738838195801,0.8236303329467773,-0.01810932159423828,-0.00852203369140625,-0.021305084228515625,-0.679011344909668,-0.28859996795654297,0.6750392913818359,0.0023736953735351562
406,275436640.0,9.016838073730469,-3.8787240982055664,0.8308124542236328,-0.01810932159423828,-0.00852203369140625,-0.021305084228515625,-0.679011344909668,-0.28859996795654297,0.6750392913818359,0.0023736953735351562
407,275436672.0,8.99648666381836,-3.8847103118896484,0.8583469390869141,-0.01810932159423828,-0.00852203369140625,-0.021305084228515625,-0.679011344909668,-0.28859996795654297,0.6750392913818359,0.0023736953735351562
408,275436672.0,9.061132431030273,-3.7853479385375977,0.8403902053833008,-0.01810932159423828,-0.00852203369140625,-0.021305084228515625,-0.679011344909668,-0.28859996795654297,0.6750392913818359,0.0023736953735351562
409,275436704.0,9.077892303466797,-3.804502487182617,0.7960958480834961,-0.01810932159423828,-0.00852203369140625,-0.021305084228515625,-0.679011344909668,-0.28859996795654297,0.6750392913818359,0.0023736953735351562
410,275436736.0,9.041977882385254,-3.933793067932129,0.7781391143798828,0.022370338439941406,-0.01597881317138672,-0.020239830017089844,-0.679011344909668,-0.28859996795654297,0.6750392913818359,0.0023736953735351562
411,275436832.0,9.010852813720703,-3.9385814666748047,0.9002466201782227,-0.0010652542114257812,-0.010652542114257812,0.0,-0.6783208847045898,-0.2903270721435547,0.6749534606933594,-0.0055675506591796875
412,275436864.0,9.035992622375488,-3.776968002319336,0.897852897644043,0.0031957626342773438,-0.014913558959960938,0.00852203369140625,-0.6785364151000977,-0.29045581817626953,0.6747369766235352,-0.005784034729003906
413,275436864.0,9.052752494812012,-3.776968002319336,0.8439817428588867,0.0031957626342773438,-0.014913558959960938,0.00852203369140625,-0.6785364151000977,-0.29045581817626953,0.6747369766235352,-0.005784034729003906
414,275436896.0,9.135354995727539,-3.927806854248047,0.8403902053833008,-0.005326271057128906,-0.007456779479980469,-0.0031957626342773438,-0.6787090301513672,-0.29019737243652344,0.6746511459350586,-0.005524635314941406
415,275436928.0,9.086272239685059,-3.9098501205444336,0.8894729614257812,0.042611122131347656,-0.0010652542114257812,-0.013848304748535156,-0.6786661148071289,-0.290283203125,0.6746511459350586,-0.005654335021972656
416,275436928.0,9.082680702209473,-3.7877416610717773,0.8990497589111328,0.042611122131347656,-0.0010652542114257812,-0.013848304748535156,-0.6786661148071289,-0.290283203125,0.6746511459350586,-0.005654335021972656
417,275436960.0,9.105425834655762,-3.77457332611084,0.8607416152954102,0.042611122131347656,-0.0010652542114257812,-0.013848304748535156,-0.6786661148071289,-0.290283203125,0.6746511459350586,-0.005654335021972656
418,275436992.0,9.111412048339844,-3.896681785583496,0.8164472579956055,0.042611122131347656,-0.0010652542114257812,-0.013848304748535156,-0.6786661148071289,-0.290283203125,0.6746511459350586,-0.005654335021972656
419,275436992.0,9.041977882385254,-3.957736015319824,0.8739099502563477,0.042611122131347656,-0.0010652542114257812,-0.013848304748535156,-0.6786661148071289,-0.290283203125,0.6746511459350586,-0.005654335021972656
420,275437024.0,9.038386344909668,-3.901470184326172,0.8834867477416992,0.042611122131347656,-0.0010652542114257812,-0.013848304748535156,-0.6786661148071289,-0.290283203125,0.6746511459350586,-0.005654335021972656
421,275437152.0,9.101835250854492,-3.8152761459350586,0.8415870666503906,0.024501800537109375,-0.005326271057128906,-0.0031957626342773438,-0.6787519454956055,-0.29067230224609375,0.6743488311767578,-0.005654335021972656
422,275437152.0,9.14612865447998,-3.7614049911499023,0.8200387954711914,0.024501800537109375,-0.005326271057128906,-0.0031957626342773438,-0.6787519454956055,-0.29067230224609375,0.6743488311767578,-0.005654335021972656
423,275437184.0,9.082680702209473,-3.7973194122314453,0.8571500778198242,0.024501800537109375,-0.005326271057128906,-0.0031957626342773438,-0.6787519454956055,-0.29067230224609375,0.6743488311767578,-0.005654335021972656
424,275437184.0,9.04437255859375,-3.8918933868408203,0.8463754653930664,0.024501800537109375,-0.005326271057128906,-0.0031957626342773438,-0.6787519454956055,-0.29067230224609375,0.6743488311767578,-0.005654335021972656
425,275437216.0,9.043174743652344,-3.8823156356811523,0.8308124542236328,0.024501800537109375,-0.005326271057128906,-0.0031957626342773438,-0.6787519454956055,-0.29067230224609375,0.6743488311767578,-0.005654335021972656
426,275437344.0,9.125777244567871,-3.894287109375,0.8344039916992188,0.013848304748535156,-0.007456779479980469,-0.007456779479980469,-0.6784067153930664,-0.2908010482788086,0.6746511459350586,-0.006344795227050781
427,275437344.0,9.138946533203125,-3.865555763244629,0.835601806640625,0.013848304748535156,-0.007456779479980469,-0.007456779479980469,-0.6784067153930664,-0.2908010482788086,0.6746511459350586,-0.006344795227050781
428,275437376.0,9.071906089782715,-3.8859071731567383,0.8140525817871094,0.013848304748535156,-0.007456779479980469,-0.007456779479980469,-0.6784067153930664,-0.2908010482788086,0.6746511459350586,-0.006344795227050781
429,275437408.0,9.050357818603516,-3.8847103118896484,0.8775014877319336,0.013848304748535156,-0.007456779479980469,-0.007456779479980469,-0.6784067153930664,-0.2908010482788086,0.6746511459350586,-0.006344795227050781
430,275437408.0,9.040781021118164,-3.896681785583496,0.8523616790771484,0.013848304748535156,-0.007456779479980469,-0.007456779479980469,-0.6784067153930664,-0.2908010482788086,0.6746511459350586,-0.006344795227050781
431,275437440.0,9.088665962219238,-3.9098501205444336,0.8727130889892578,0.0063915252685546875,-0.0021305084228515625,0.012783050537109375,-0.6784067153930664,-0.2908010482788086,0.6746511459350586,-0.006344795227050781
432,275437440.0,9.088665962219238,-3.9098501205444336,0.8727130889892578,0.0063915252685546875,-0.0021305084228515625,0.012783050537109375,-0.6784067153930664,-0.2908010482788086,0.6746511459350586,-0.006344795227050781
433,275437440.0,9.088665962219238,-3.9098501205444336,0.8727130889892578,0.0063915252685546875,-0.0021305084228515625,0.012783050537109375,-0.6784067153930664,-0.2908010482788086,0.6746511459350586,-0.006344795227050781
434,275437472.0,9.057540893554688,-3.9218215942382812,0.8775014877319336,0.0170440673828125,-0.0063915252685546875,0.013848304748535156,-0.6784067153930664,-0.2908010482788086,0.6746511459350586,-0.006344795227050781
435,275437472.0,9.016838073730469,-3.8499937057495117,0.8894729614257812,0.0170440673828125,-0.0063915252685546875,0.013848304748535156,-0.6784067153930664,-0.2908010482788086,0.6746511459350586,-0.006344795227050781
436,275437472.0,9.057540893554688,-3.9218215942382812,0.8775014877319336,0.0170440673828125,-0.0063915252685546875,0.013848304748535156,-0.6784067153930664,-0.2908010482788086,0.6746511459350586,-0.006344795227050781
437,275437472.0,9.016838073730469,-3.8499937057495117,0.8894729614257812,0.0170440673828125,-0.0063915252685546875,0.013848304748535156,-0.6784067153930664,-0.2908010482788086,0.6746511459350586,-0.006344795227050781
438,275437472.0,9.057540893554688,-3.9218215942382812,0.8775014877319336,0.0170440673828125,-0.0063915252685546875,0.013848304748535156,-0.6784067153930664,-0.2908010482788086,0.6746511459350586,-0.006344795227050781
439,275437472.0,9.016838073730469,-3.8499937057495117,0.8894729614257812,0.0170440673828125,-0.0063915252685546875,0.013848304748535156,-0.6784067153930664,-0.2908010482788086,0.6746511459350586,-0.006344795227050781
440,275437504.0,8.979726791381836,-3.832036018371582,0.8487701416015625,-0.011717796325683594,-0.007456779479980469,0.020239830017089844,-0.6784067153930664,-0.2908010482788086,0.6746511459350586,-0.006344795227050781
441,275437504.0,9.106623649597168,-3.9026670455932617,0.8320102691650391,-0.011717796325683594,-0.007456779479980469,0.020239830017089844,-0.6784067153930664,-0.2908010482788086,0.6746511459350586,-0.006344795227050781
442,275437504.0,8.979726791381836,-3.832036018371582,0.8487701416015625,-0.011717796325683594,-0.007456779479980469,0.020239830017089844,-0.6784067153930664,-0.2908010482788086,0.6746511459350586,-0.006344795227050781
443,275437504.0,9.106623649597168,-3.9026670455932617,0.8320102691650391,-0.011717796325683594,-0.007456779479980469,0.020239830017089844,-0.6784067153930664,-0.2908010482788086,0.6746511459350586,-0.006344795227050781
444,275437504.0,8.979726791381836,-3.832036018371582,0.8487701416015625,-0.011717796325683594,-0.007456779479980469,0.020239830017089844,-0.6784067153930664,-0.2908010482788086,0.6746511459350586,-0.006344795227050781
445,275437504.0,9.106623649597168,-3.9026670455932617,0.8320102691650391,-0.011717796325683594,-0.007456779479980469,0.020239830017089844,-0.6784067153930664,-0.2908010482788086,0.6746511459350586,-0.006344795227050781
446,275437632.0,9.050357818603516,-3.9146385192871094,0.8703184127807617,0.02769756317138672,-0.01597881317138672,0.03515434265136719,-0.6784067153930664,-0.2908010482788086,0.6746511459350586,-0.006344795227050781
447,275437664.0,9.059934616088867,-3.860767364501953,0.835601806640625,0.0010652542114257812,-0.0170440673828125,0.04474163055419922,-0.6784067153930664,-0.2908010482788086,0.6746511459350586,-0.006344795227050781
448,275437664.0,9.020429611206055,-3.899075508117676,0.829615592956543,0.0010652542114257812,-0.0170440673828125,0.04474163055419922,-0.6784067153930664,-0.2908010482788086,0.6746511459350586,-0.006344795227050781
449,275437696.0,9.001275062561035,-3.8775272369384766,0.8463754653930664,0.010652542114257812,-0.012783050537109375,0.045806884765625,-0.6784067153930664,-0.2908010482788086,0.6746511459350586,-0.006344795227050781
450,275437728.0,9.071906089782715,-3.8452043533325195,0.888275146484375,0.023435592651367188,-0.010652542114257812,0.03621959686279297,-0.6777591705322266,-0.2943840026855469,0.6737451553344727,-0.005179405212402344
451,275437824.0,9.034794807434082,-3.8871049880981445,0.8284187316894531,0.023435592651367188,-0.010652542114257812,0.03621959686279297,-0.677586555480957,-0.2952899932861328,0.6735286712646484,-0.005179405212402344
452,275437856.0,9.002472877502441,-3.9026670455932617,0.8655300140380859,0.023435592651367188,-0.010652542114257812,0.03621959686279297,-0.677586555480957,-0.2952899932861328,0.6735286712646484,-0.005179405212402344
453,275437888.0,9.013246536254883,-3.8535842895507812,0.8367986679077148,0.023435592651367188,-0.010652542114257812,0.03621959686279297,-0.677586555480957,-0.2952899932861328,0.6735286712646484,-0.005179405212402344
454,275437888.0,8.99768352508545,-3.812882423400879,0.8547554016113281,0.023435592651367188,-0.010652542114257812,0.03621959686279297,-0.677586555480957,-0.2952899932861328,0.6735286712646484,-0.005179405212402344
455,275437920.0,9.053949356079102,-3.833232879638672,0.8056726455688477,0.023435592651367188,-0.010652542114257812,0.03621959686279297,-0.677586555480957,-0.2952899932861328,0.6735286712646484,-0.005179405212402344
456,275437952.0,9.052752494812012,-3.890695571899414,0.8200387954711914,0.0287628173828125,-0.00852203369140625,0.012783050537109375,-0.677586555480957,-0.2952899932861328,0.6735286712646484,-0.005179405212402344
457,275437952.0,9.032401084899902,-3.864358901977539,0.8236303329467773,0.0287628173828125,-0.00852203369140625,0.012783050537109375,-0.677586555480957,-0.2952899932861328,0.6735286712646484,-0.005179405212402344
458,275437952.0,9.052752494812012,-3.890695571899414,0.8200387954711914,0.0287628173828125,-0.00852203369140625,0.012783050537109375,-0.677586555480957,-0.2952899932861328,0.6735286712646484,-0.005179405212402344
459,275437952.0,9.032401084899902,-3.864358901977539,0.8236303329467773,0.0287628173828125,-0.00852203369140625,0.012783050537109375,-0.677586555480957,-0.2952899932861328,0.6735286712646484,-0.005179405212402344
460,275437984.0,9.040781021118164,-3.834430694580078,0.8475723266601562,0.02982807159423828,-0.013848304748535156,0.0063915252685546875,-0.677586555480957,-0.2952899932861328,0.6735286712646484,-0.005179405212402344
461,275437984.0,9.04437255859375,-3.77457332611084,0.8966550827026367,0.02982807159423828,-0.013848304748535156,0.0063915252685546875,-0.677586555480957,-0.2952899932861328,0.6735286712646484,-0.005179405212402344
462,275437984.0,9.040781021118164,-3.834430694580078,0.8475723266601562,0.02982807159423828,-0.013848304748535156,0.0063915252685546875,-0.677586555480957,-0.2952899932861328,0.6735286712646484,-0.005179405212402344
463,275437984.0,9.04437255859375,-3.77457332611084,0.8966550827026367,0.02982807159423828,-0.013848304748535156,0.0063915252685546875,-0.677586555480957,-0.2952899932861328,0.6735286712646484,-0.005179405212402344
464,275438016.0,9.057540893554688,-3.7602081298828125,0.8739099502563477,-0.0287628173828125,0.0,0.007456779479980469,-0.677586555480957,-0.2952899932861328,0.6735286712646484,-0.005179405212402344
465,275438016.0,9.057540893554688,-3.7602081298828125,0.8739099502563477,-0.0287628173828125,0.0,0.007456779479980469,-0.677586555480957,-0.2952899932861328,0.6735286712646484,-0.005179405212402344
466,275438048.0,9.012049674987793,-3.865555763244629,0.8966550827026367,-0.022370338439941406,0.0,0.0,-0.677586555480957,-0.2952899932861328,0.6735286712646484,-0.005179405212402344
467,275438048.0,9.002472877502441,-3.9026670455932617,0.9026412963867188,-0.022370338439941406,0.0,0.0,-0.677586555480957,-0.2952899932861328,0.6735286712646484,-0.005179405212402344
468,275438048.0,9.012049674987793,-3.865555763244629,0.8966550827026367,-0.022370338439941406,0.0,0.0,-0.677586555480957,-0.2952899932861328,0.6735286712646484,-0.005179405212402344
469,275438048.0,9.002472877502441,-3.9026670455932617,0.9026412963867188,-0.022370338439941406,0.0,0.0,-0.677586555480957,-0.2952899932861328,0.6735286712646484,-0.005179405212402344
470,275438080.0,9.039584159851074,-3.833232879638672,0.9517240524291992,0.021305084228515625,-0.0063915252685546875,-0.00852203369140625,-0.677586555480957,-0.2952899932861328,0.6735286712646484,-0.005179405212402344
471,275438080.0,9.015641212463379,-3.769784927368164,0.9301748275756836,0.021305084228515625,-0.0063915252685546875,-0.00852203369140625,-0.677586555480957,-0.2952899932861328,0.6735286712646484,-0.005179405212402344
472,275438080.0,9.039584159851074,-3.833232879638672,0.9517240524291992,0.021305084228515625,-0.0063915252685546875,-0.00852203369140625,-0.677586555480957,-0.2952899932861328,0.6735286712646484,-0.005179405212402344
473,275438080.0,9.015641212463379,-3.769784927368164,0.9301748275756836,0.021305084228515625,-0.0063915252685546875,-0.00852203369140625,-0.677586555480957,-0.2952899932861328,0.6735286712646484,-0.005179405212402344
474,275438112.0,8.982121467590332,-3.8188676834106445,0.9182043075561523,-0.0170440673828125,0.0,-0.012783050537109375,-0.677586555480957,-0.2952899932861328,0.6735286712646484,-0.005179405212402344
475,275438112.0,8.982121467590332,-3.8188676834106445,0.9182043075561523,-0.0170440673828125,0.0,-0.012783050537109375,-0.677586555480957,-0.2952899932861328,0.6735286712646484,-0.005179405212402344
476,275438240.0,8.967755317687988,-3.9349899291992188,0.8631353378295898,0.005326271057128906,0.012783050537109375,-0.0287628173828125,-0.677586555480957,-0.2952899932861328,0.6735286712646484,-0.005179405212402344
477,275438240.0,9.031203269958496,-3.9086532592773438,0.8858814239501953,0.005326271057128906,0.012783050537109375,-0.0287628173828125,-0.677586555480957,-0.2952899932861328,0.6735286712646484,-0.005179405212402344
478,275438272.0,9.099440574645996,-3.905061721801758,0.8751068115234375,-0.004261016845703125,0.0,-0.00852203369140625,-0.677586555480957,-0.2952899932861328,0.6735286712646484,-0.005179405212402344
479,275438304.0,9.047964096069336,-3.866753578186035,0.8751068115234375,-0.013848304748535156,0.011717796325683594,-0.004261016845703125,-0.677586555480957,-0.2952899932861328,0.6735286712646484,-0.005179405212402344
480,275438304.0,9.008458137512207,-3.872738838195801,0.8751068115234375,-0.013848304748535156,0.011717796325683594,-0.004261016845703125,-0.677586555480957,-0.2952899932861328,0.6735286712646484,-0.005179405212402344
481,275438464.0,9.022823333740234,-3.9182300567626953,0.8487701416015625,-0.0170440673828125,0.0031957626342773438,-0.00852203369140625,-0.6765079498291016,-0.29373645782470703,0.6752548217773438,-0.006690025329589844
482,275438464.0,9.022823333740234,-3.9182300567626953,0.8487701416015625,-0.0170440673828125,0.0031957626342773438,-0.00852203369140625,-0.6765079498291016,-0.29373645782470703,0.6752548217773438,-0.006690025329589844
483,275438496.0,9.020429611206055,-3.9146385192871094,0.8391923904418945,-0.0170440673828125,0.0031957626342773438,-0.00852203369140625,-0.6765079498291016,-0.29373645782470703,0.6752548217773438,-0.006690025329589844
484,275438496.0,9.04676628112793,-3.8775272369384766,0.8475723266601562,-0.0170440673828125,0.0031957626342773438,-0.00852203369140625,-0.6765079498291016,-0.29373645782470703,0.6752548217773438,-0.006690025329589844
485,275438496.0,9.020429611206055,-3.9146385192871094,0.8391923904418945,-0.0170440673828125,0.0031957626342773438,-0.00852203369140625,-0.6765079498291016,-0.29373645782470703,0.6752548217773438,-0.006690025329589844
486,275438496.0,9.04676628112793,-3.8775272369384766,0.8475723266601562,-0.0170440673828125,0.0031957626342773438,-0.00852203369140625,-0.6765079498291016,-0.29373645782470703,0.6752548217773438,-0.006690025329589844
487,275438528.0,9.051554679870605,-3.8559789657592773,0.8487701416015625,-0.0170440673828125,0.0031957626342773438,-0.00852203369140625,-0.6765079498291016,-0.29373645782470703,0.6752548217773438,-0.006690025329589844
488,275438528.0,9.051554679870605,-3.8559789657592773,0.8487701416015625,-0.0170440673828125,0.0031957626342773438,-0.00852203369140625,-0.6765079498291016,-0.29373645782470703,0.6752548217773438,-0.006690025329589844
489,275438560.0,9.081483840942383,-3.833232879638672,0.8176441192626953,-0.026632308959960938,-0.0031957626342773438,-0.0063915252685546875,-0.6765079498291016,-0.29373645782470703,0.6752548217773438,-0.006690025329589844
490,275438560.0,9.098243713378906,-3.8475990295410156,0.8379955291748047,-0.026632308959960938,-0.0031957626342773438,-0.0063915252685546875,-0.6765079498291016,-0.29373645782470703,0.6752548217773438,-0.006690025329589844
491,275438592.0,9.040781021118164,-3.89309024810791,0.8379955291748047,-0.005326271057128906,-0.00852203369140625,-0.010652542114257812,-0.6765079498291016,-0.29373645782470703,0.6752548217773438,-0.006690025329589844
492,275438592.0,9.027612686157227,-3.894287109375,0.8367986679077148,-0.005326271057128906,-0.00852203369140625,-0.010652542114257812,-0.6765079498291016,-0.29373645782470703,0.6752548217773438,-0.006690025329589844
493,275438624.0,9.068314552307129,-3.839219093322754,0.855952262878418,0.004261016845703125,-0.019174575805664062,-0.0031957626342773438,-0.6765079498291016,-0.29373645782470703,0.6752548217773438,-0.006690025329589844
494,275438656.0,9.06472396850586,-3.7853479385375977,0.9098243713378906,-0.021305084228515625,-0.01597881317138672,-0.0021305084228515625,-0.6765079498291016,-0.29373645782470703,0.6752548217773438,-0.006690025329589844
495,275438656.0,9.069512367248535,-3.861964225769043,0.8667268753051758,-0.021305084228515625,-0.01597881317138672,-0.0021305084228515625,-0.6765079498291016,-0.29373645782470703,0.6752548217773438,-0.006690025329589844
496,275438688.0,9.038386344909668,-3.8847103118896484,0.9170064926147461,0.007456779479980469,-0.0063915252685546875,-0.0031957626342773438,-0.6765079498291016,-0.29373645782470703,0.6752548217773438,-0.006690025329589844
497,275438720.0,9.021626472473145,-3.828444480895996,0.9385547637939453,-0.01597881317138672,-0.00852203369140625,0.0031957626342773438,-0.6765079498291016,-0.29373645782470703,0.6752548217773438,-0.006690025329589844
498,275438720.0,9.056344032287598,-3.7602081298828125,0.9050350189208984,-0.01597881317138672,-0.00852203369140625,0.0031957626342773438,-0.6765079498291016,-0.29373645782470703,0.6752548217773438,-0.006690025329589844
499,275438752.0,9.086272239685059,-3.8475990295410156,0.8571500778198242,-0.020239830017089844,-0.009587287902832031,-0.0010652542114257812,-0.6765079498291016,-0.29373645782470703,0.6752548217773438,-0.006690025329589844
500,275438752.0,9.16408634185791,-3.857175827026367,0.9122180938720703,-0.020239830017089844,-0.009587287902832031,-0.0010652542114257812,-0.6765079498291016,-0.29373645782470703,0.6752548217773438,-0.006690025329589844
501,275438784.0,9.087469100952148,-3.8116846084594727,0.8990497589111328,-0.020239830017089844,-0.009587287902832031,-0.0010652542114257812,-0.6765079498291016,-0.29373645782470703,0.6752548217773438,-0.006690025329589844
502,275438816.0,9.086272239685059,-3.8859071731567383,0.8703184127807617,-0.020239830017089844,-0.009587287902832031,-0.0010652542114257812,-0.6765079498291016,-0.29373645782470703,0.6752548217773438,-0.006690025329589844
503,275438816.0,9.189226150512695,-3.933793067932129,0.8667268753051758,-0.020239830017089844,-0.009587287902832031,-0.0010652542114257812,-0.6765079498291016,-0.29373645782470703,0.6752548217773438,-0.006690025329589844
504,275438848.0,9.221549034118652,-3.9170331954956055,0.8775014877319336,-0.020239830017089844,-0.009587287902832031,-0.0010652542114257812,-0.6765079498291016,-0.29373645782470703,0.6752548217773438,-0.006690025329589844
505,275438880.0,9.30654525756836,-3.838022232055664,1.0367202758789062,-0.3739185333251953,0.03515434265136719,0.08415794372558594,-0.6765079498291016,-0.29373645782470703,0.6752548217773438,-0.006690025329589844
506,275438880.0,9.3855562210083,-3.6955623626708984,1.1013660430908203,-0.3739185333251953,0.03515434265136719,0.08415794372558594,-0.6765079498291016,-0.29373645782470703,0.6752548217773438,-0.006690025329589844
507,275438912.0,9.267040252685547,-3.9721012115478516,1.012777328491211,-0.4570121765136719,0.07030868530273438,0.11292076110839844,-0.6765079498291016,-0.29373645782470703,0.6752548217773438,-0.006690025329589844
508,275438912.0,9.105425834655762,-4.251034736633301,0.9110212326049805,-0.4570121765136719,0.07030868530273438,0.11292076110839844,-0.6765079498291016,-0.29373645782470703,0.6752548217773438,-0.006690025329589844
509,275438944.0,9.366402626037598,-4.39469051361084,0.9158096313476562,-0.40587806701660156,-0.03835010528564453,0.14807605743408203,-0.6765079498291016,-0.29373645782470703,0.6752548217773438,-0.006690025329589844
510,275439168.0,26.156253814697266,-31.487106323242188,-7.988496780395508,1.3827552795410156,-1.9420356750488281,0.8788690567016602,-0.747675895690918,-0.438446044921875,0.484710693359375,0.11764907836914062
511,275439168.0,26.77996253967285,-28.879741668701172,-12.57712459564209,1.3827552795410156,-1.9420356750488281,0.8788690567016602,-0.747675895690918,-0.438446044921875,0.484710693359375,0.11764907836914062
512,275439168.0,26.156253814697266,-31.487106323242188,-7.988496780395508,1.3827552795410156,-1.9420356750488281,0.8788690567016602,-0.747675895690918,-0.438446044921875,0.484710693359375,0.11764907836914062
513,275439168.0,26.77996253967285,-28.879741668701172,-12.57712459564209,1.3827552795410156,-1.9420356750488281,0.8788690567016602,-0.747675895690918,-0.438446044921875,0.484710693359375,0.11764907836914062
514,275439200.0,25.896474838256836,-18.508939743041992,-9.95659065246582,1.3827552795410156,-1.9420356750488281,0.8788690567016602,-0.747675895690918,-0.438446044921875,0.484710693359375,0.11764907836914062
515,275439200.0,25.896474838256836,-18.508939743041992,-9.95659065246582,1.3827552795410156,-1.9420356750488281,0.8788690567016602,-0.747675895690918,-0.438446044921875,0.484710693359375,0.11764907836914062
516,275439232.0,21.785505294799805,-5.954560279846191,-9.310136795043945,1.3827552795410156,-1.9420356750488281,0.8788690567016602,-0.747675895690918,-0.438446044921875,0.484710693359375,0.11764907836914062
517,275439232.0,19.463058471679688,-0.019153594970703125,-12.171295166015625,1.3827552795410156,-1.9420356750488281,0.8788690567016602,-0.747675895690918,-0.438446044921875,0.484710693359375,0.11764907836914062
518,275439232.0,21.785505294799805,-5.954560279846191,-9.310136795043945,1.3827552795410156,-1.9420356750488281,0.8788690567016602,-0.747675895690918,-0.438446044921875,0.484710693359375,0.11764907836914062
519,275439232.0,19.463058471679688,-0.019153594970703125,-12.171295166015625,1.3827552795410156,-1.9420356750488281,0.8788690567016602,-0.747675895690918,-0.438446044921875,0.484710693359375,0.11764907836914062
520,275439264.0,17.61707305908203,-1.6161346435546875,-11.401535987854004,5.6002655029296875,1.433889389038086,13.054147720336914,-0.747675895690918,-0.438446044921875,0.484710693359375,0.11764907836914062
521,275439264.0,17.61707305908203,-1.6161346435546875,-11.401535987854004,5.6002655029296875,1.433889389038086,13.054147720336914,-0.747675895690918,-0.438446044921875,0.484710693359375,0.11764907836914062
522,275439264.0,17.61707305908203,-1.6161346435546875,-11.401535987854004,5.6002655029296875,1.433889389038086,13.054147720336914,-0.747675895690918,-0.438446044921875,0.484710693359375,0.11764907836914062
523,275439296.0,15.03963565826416,1.0498886108398438,-7.037969589233398,8.07601547241211,0.16405487060546875,10.89692211151123,-0.747675895690918,-0.438446044921875,0.484710693359375,0.11764907836914062
524,275439296.0,14.46740436553955,-0.08499622344970703,-6.510032653808594,8.07601547241211,0.16405487060546875,10.89692211151123,-0.747675895690918,-0.438446044921875,0.484710693359375,0.11764907836914062
525,275439296.0,15.03963565826416,1.0498886108398438,-7.037969589233398,8.07601547241211,0.16405487060546875,10.89692211151123,-0.747675895690918,-0.438446044921875,0.484710693359375,0.11764907836914062
526,275439296.0,14.46740436553955,-0.08499622344970703,-6.510032653808594,8.07601547241211,0.16405487060546875,10.89692211151123,-0.747675895690918,-0.438446044921875,0.484710693359375,0.11764907836914062
527,275439296.0,15.03963565826416,1.0498886108398438,-7.037969589233398,8.07601547241211,0.16405487060546875,10.89692211151123,-0.747675895690918,-0.438446044921875,0.484710693359375,0.11764907836914062
528,275439296.0,14.46740436553955,-0.08499622344970703,-6.510032653808594,8.07601547241211,0.16405487060546875,10.89692211151123,-0.747675895690918,-0.438446044921875,0.484710693359375,0.11764907836914062
529,275439328.0,16.41754150390625,-0.45850276947021484,-8.646923065185547,8.283748626708984,0.7393159866333008,9.349045753479004,-0.747675895690918,-0.438446044921875,0.484710693359375,0.11764907836914062
530,275439328.0,15.62743091583252,5.25423526763916,-10.703604698181152,8.283748626708984,0.7393159866333008,9.349045753479004,-0.747675895690918,-0.438446044921875,0.484710693359375,0.11764907836914062
531,275439328.0,16.41754150390625,-0.45850276947021484,-8.646923065185547,8.283748626708984,0.7393159866333008,9.349045753479004,-0.747675895690918,-0.438446044921875,0.484710693359375,0.11764907836914062
532,275439328.0,15.62743091583252,5.25423526763916,-10.703604698181152,8.283748626708984,0.7393159866333008,9.349045753479004,-0.747675895690918,-0.438446044921875,0.484710693359375,0.11764907836914062
533,275439328.0,16.41754150390625,-0.45850276947021484,-8.646923065185547,8.283748626708984,0.7393159866333008,9.349045753479004,-0.747675895690918,-0.438446044921875,0.484710693359375,0.11764907836914062
534,275439328.0,15.62743091583252,5.25423526763916,-10.703604698181152,8.283748626708984,0.7393159866333008,9.349045753479004,-0.747675895690918,-0.438446044921875,0.484710693359375,0.11764907836914062
535,275439456.0,4.371945381164551,10.440234184265137,-3.2610015869140625,-3.114927291870117,0.06817817687988281,0.37285327911376953,-0.747675895690918,-0.438446044921875,0.484710693359375,0.11764907836914062
536,275439488.0,5.384723663330078,11.479350090026855,-2.099778175354004,-3.114927291870117,0.06817817687988281,0.37285327911376953,-0.747675895690918,-0.438446044921875,0.484710693359375,0.11764907836914062
537,275439488.0,6.368770599365234,12.969785690307617,-2.150057792663574,-3.114927291870117,0.06817817687988281,0.37285327911376953,-0.747675895690918,-0.438446044921875,0.484710693359375,0.11764907836914062
538,275439520.0,7.348028182983398,14.024463653564453,-3.7027454376220703,-3.114927291870117,0.06817817687988281,0.37285327911376953,-0.747675895690918,-0.438446044921875,0.484710693359375,0.11764907836914062
539,275439552.0,10.920286178588867,11.693636894226074,-4.178009033203125,-3.114927291870117,0.06817817687988281,0.37285327911376953,-0.747675895690918,-0.438446044921875,0.484710693359375,0.11764907836914062
540,275439648.0,32.04497146606445,-1.5586719512939453,-28.233287811279297,-6.843466758728027,2.809187889099121,-13.515421867370605,-0.747675895690918,-0.438446044921875,0.484710693359375,0.11764907836914062
541,275439648.0,32.04497146606445,-1.5586719512939453,-28.233287811279297,-6.843466758728027,2.809187889099121,-13.515421867370605,-0.747675895690918,-0.438446044921875,0.484710693359375,0.11764907836914062
542,275439680.0,39.226600646972656,-13.265478134155273,-39.226600646972656,-6.843466758728027,2.809187889099121,-13.515421867370605,-0.747675895690918,-0.438446044921875,0.484710693359375,0.11764907836914062
543,275439680.0,39.226600646972656,-13.265478134155273,-39.226600646972656,-6.843466758728027,2.809187889099121,-13.515421867370605,-0.747675895690918,-0.438446044921875,0.484710693359375,0.11764907836914062
544,275439712.0,39.226600646972656,-39.226600646972656,-32.33587646484375,-6.843466758728027,2.809187889099121,-13.515421867370605,-0.747675895690918,-0.438446044921875,0.484710693359375,0.11764907836914062
545,275439712.0,21.104333877563477,-39.19786834716797,-11.189641952514648,-6.843466758728027,2.809187889099121,-13.515421867370605,-0.747675895690918,-0.438446044921875,0.484710693359375,0.11764907836914062
546,275439712.0,39.226600646972656,-39.226600646972656,-32.33587646484375,-6.843466758728027,2.809187889099121,-13.515421867370605,-0.747675895690918,-0.438446044921875,0.484710693359375,0.11764907836914062
547,275439712.0,21.104333877563477,-39.19786834716797,-11.189641952514648,-6.843466758728027,2.809187889099121,-13.515421867370605,-0.747675895690918,-0.438446044921875,0.484710693359375,0.11764907836914062
548,275439744.0,21.361717224121094,-37.327938079833984,-14.827742576599121,-6.843466758728027,2.809187889099121,-13.515421867370605,-0.747675895690918,-0.438446044921875,0.484710693359375,0.11764907836914062
549,275439744.0,21.361717224121094,-37.327938079833984,-14.827742576599121,-6.843466758728027,2.809187889099121,-13.515421867370605,-0.747675895690918,-0.438446044921875,0.484710693359375,0.11764907836914062
550,275439776.0,29.107196807861328,-20.139442443847656,-13.364840507507324,9.036913871765137,0.8490409851074219,-7.91302490234375,-0.747675895690918,-0.438446044921875,0.484710693359375,0.11764907836914062
551,275439776.0,30.391725540161133,-7.957371711730957,-11.940247535705566,9.036913871765137,0.8490409851074219,-7.91302490234375,-0.747675895690918,-0.438446044921875,0.484710693359375,0.11764907836914062
552,275439808.0,24.924400329589844,-8.332075119018555,-4.2235002517700195,-3.0882949829101562,3.9650344848632812,-5.107032775878906,-0.747675895690918,-0.438446044921875,0.484710693359375,0.11764907836914062
553,275439808.0,10.872401237487793,-13.873623847961426,1.737046241760254,-3.0882949829101562,3.9650344848632812,-5.107032775878906,-0.747675895690918,-0.438446044921875,0.484710693359375,0.11764907836914062
554,275439840.0,4.482081413269043,-13.773064613342285,7.575484275817871,-7.269585609436035,0.2130584716796875,0.03728485107421875,-0.747675895690918,-0.438446044921875,0.484710693359375,0.11764907836914062
555,275439872.0,10.61621379852295,-18.192895889282227,8.436226844787598,-7.269585609436035,0.2130584716796875,0.03728485107421875,-0.747675895690918,-0.438446044921875,0.484710693359375,0.11764907836914062
556,275439872.0,13.4378662109375,-14.017280578613281,2.0937929153442383,-7.269585609436035,0.2130584716796875,0.03728485107421875,-0.747675895690918,-0.438446044921875,0.484710693359375,0.11764907836914062
557,275439872.0,10.61621379852295,-18.192895889282227,8.436226844787598,-7.269585609436035,0.2130584716796875,0.03728485107421875,-0.747675895690918,-0.438446044921875,0.484710693359375,0.11764907836914062
558,275439872.0,13.4378662109375,-14.017280578613281,2.0937929153442383,-7.269585609436035,0.2130584716796875,0.03728485107421875,-0.747675895690918,-0.438446044921875,0.484710693359375,0.11764907836914062
559,275439904.0,9.997293472290039,-8.882759094238281,-0.25379276275634766,-7.269585609436035,0.2130584716796875,0.03728485107421875,-0.747675895690918,-0.438446044921875,0.484710693359375,0.11764907836914062
560,275439904.0,9.997293472290039,-8.882759094238281,-0.25379276275634766,-7.269585609436035,0.2130584716796875,0.03728485107421875,-0.747675895690918,-0.438446044921875,0.484710693359375,0.11764907836914062
561,275439936.0,9.970956802368164,-7.835263252258301,-2.8707351684570312,-7.269585609436035,0.2130584716796875,0.03728485107421875,-0.747675895690918,-0.438446044921875,0.484710693359375,0.11764907836914062
562,275439936.0,9.986518859863281,-5.798933029174805,-3.889498710632324,-7.269585609436035,0.2130584716796875,0.03728485107421875,-0.747675895690918,-0.438446044921875,0.484710693359375,0.11764907836914062
563,275439936.0,9.970956802368164,-7.835263252258301,-2.8707351684570312,-7.269585609436035,0.2130584716796875,0.03728485107421875,-0.747675895690918,-0.438446044921875,0.484710693359375,0.11764907836914062
