,timestamp,accel_x,accel_y,accel_z,gyro_x,gyro_y,gyro_z,ori_scalar,ori_x,ori_y,ori_z
0,275927840.0,9.917085647583008,-2.7127132415771484,3.1376962661743164,0.04367637634277344,0.09907245635986328,0.2823028564453125,0.49235057830810547,-0.21889972686767578,-0.7750387191772461,-0.33016204833984375
1,275927872.0,9.979336738586426,-2.718698501586914,2.9150285720825195,0.04367637634277344,0.09907245635986328,0.2823028564453125,0.49235057830810547,-0.21889972686767578,-0.7750387191772461,-0.33016204833984375
2,275927872.0,9.61540699005127,-2.563070297241211,2.727078437805176,0.04367637634277344,0.09907245635986328,0.2823028564453125,0.49235057830810547,-0.21889972686767578,-0.7750387191772461,-0.33016204833984375
3,275927904.0,9.35682487487793,-2.3607540130615234,2.821652412414551,0.04367637634277344,0.09907245635986328,0.2823028564453125,0.49235057830810547,-0.21889972686767578,-0.7750387191772461,-0.33016204833984375
4,275927936.0,9.428653717041016,-2.1368894577026367,2.8707351684570312,0.04367637634277344,0.09907245635986328,0.2823028564453125,0.49235057830810547,-0.21889972686767578,-0.7750387191772461,-0.33016204833984375
5,275927936.0,9.411893844604492,-2.168015480041504,2.6839818954467773,0.04367637634277344,0.09907245635986328,0.2823028564453125,0.49235057830810547,-0.21889972686767578,-0.7750387191772461,-0.33016204833984375
6,275927968.0,9.18563461303711,-2.106961250305176,2.588210105895996,0.04367637634277344,0.09907245635986328,0.2823028564453125,0.49235057830810547,-0.21889972686767578,-0.7750387191772461,-0.33016204833984375
7,275927968.0,9.103032112121582,-2.0159788131713867,2.6684188842773438,0.04367637634277344,0.09907245635986328,0.2823028564453125,0.49235057830810547,-0.21889972686767578,-0.7750387191772461,-0.33016204833984375
8,275928000.0,9.301756858825684,-2.041118621826172,2.60257625579834,0.04367637634277344,0.09907245635986328,0.2823028564453125,0.49235057830810547,-0.21889972686767578,-0.7750387191772461,-0.33016204833984375
9,275928032.0,9.304150581359863,-2.1117496490478516,2.3954715728759766,0.07670116424560547,0.12677001953125,0.23969173431396484,0.49235057830810547,-0.21889972686767578,-0.7750387191772461,-0.33016204833984375
10,275928128.0,9.122185707092285,-3.399869918823242,1.8447885513305664,1.7279109954833984,-0.012783050537109375,-0.12890052795410156,0.4958028793334961,-0.19917678833007812,-0.7876834869384766,-0.3066835403442383
11,275928160.0,9.179648399353027,-2.4553279876708984,2.716303825378418,2.4565744400024414,-0.022370338439941406,-0.2578010559082031,0.4958028793334961,-0.19917678833007812,-0.7876834869384766,-0.3066835403442383
12,275928192.0,8.819310188293457,-1.8232393264770508,3.039531707763672,2.954068183898926,0.02769756317138672,-0.2130584716796875,0.4958028793334961,-0.19917678833007812,-0.7876834869384766,-0.3066835403442383
13,275928192.0,8.68762493133545,-2.256603240966797,2.6720104217529297,2.954068183898926,0.02769756317138672,-0.2130584716796875,0.4958028793334961,-0.19917678833007812,-0.7876834869384766,-0.3066835403442383
14,275928224.0,9.390344619750977,-2.3344173431396484,2.5271568298339844,3.1607351303100586,-0.01810932159423828,-0.21092796325683594,0.4958028793334961,-0.19917678833007812,-0.7876834869384766,-0.3066835403442383
15,275928352.0,8.792973518371582,0.5267400741577148,4.283356666564941,0.21732044219970703,0.5102767944335938,0.3121318817138672,0.5182886123657227,-0.08018875122070312,-0.8462495803833008,-0.09369754791259766
16,275928352.0,8.520026206970215,0.41181468963623047,3.996044158935547,0.21732044219970703,0.5102767944335938,0.3121318817138672,0.5182886123657227,-0.08018875122070312,-0.8462495803833008,-0.09369754791259766
17,275928384.0,8.259050369262695,0.004788398742675781,3.1628360748291016,-0.1097249984741211,0.4655342102050781,0.37817955017089844,0.5182886123657227,-0.08018875122070312,-0.8462495803833008,-0.09369754791259766
18,275928416.0,8.435029029846191,-0.22984981536865234,2.9796743392944336,-0.31426239013671875,0.3068046569824219,0.38989830017089844,0.5182886123657227,-0.08018875122070312,-0.8462495803833008,-0.09369754791259766
19,275928416.0,8.990501403808594,-0.07781314849853516,3.2011451721191406,-0.31426239013671875,0.3068046569824219,0.38989830017089844,0.5182886123657227,-0.08018875122070312,-0.8462495803833008,-0.09369754791259766
20,275928544.0,8.758255958557129,-0.8068704605102539,2.7893295288085938,-2.6834821701049805,-0.2759113311767578,0.19175338745117188,0.49036502838134766,-0.09037399291992188,-0.8492708206176758,-0.17341041564941406
21,275928576.0,8.772622108459473,-1.236642837524414,2.716303825378418,-2.2807998657226562,-0.4037466049194336,0.0287628173828125,0.49036502838134766,-0.09037399291992188,-0.8492708206176758,-0.17341041564941406
22,275928576.0,8.795367240905762,-1.573038101196289,2.7378530502319336,-2.2807998657226562,-0.4037466049194336,0.0287628173828125,0.49036502838134766,-0.09037399291992188,-0.8492708206176758,-0.17341041564941406
23,275928608.0,9.179648399353027,-1.9848527908325195,2.7043323516845703,-1.283681869506836,-0.4559469223022461,-0.1331615447998047,0.49036502838134766,-0.09037399291992188,-0.8492708206176758,-0.17341041564941406
24,275928608.0,9.449005126953125,-2.3583602905273438,2.3296289443969727,-1.283681869506836,-0.4559469223022461,-0.1331615447998047,0.49036502838134766,-0.09037399291992188,-0.8492708206176758,-0.17341041564941406
25,275928640.0,9.488510131835938,-2.3356142044067383,2.46370792388916,-1.283681869506836,-0.4559469223022461,-0.1331615447998047,0.49947166442871094,-0.13966083526611328,-0.8128452301025391,-0.26520824432373047
26,275928672.0,9.555549621582031,-2.17160701751709,2.898268699645996,-1.283681869506836,-0.4559469223022461,-0.1331615447998047,0.5038299560546875,-0.14229393005371094,-0.8094358444213867,-0.2659425735473633
27,275928672.0,9.733922958374023,-2.1775922775268555,3.051502227783203,-1.283681869506836,-0.4559469223022461,-0.1331615447998047,0.5038299560546875,-0.14229393005371094,-0.8094358444213867,-0.2659425735473633
28,275928704.0,9.656109809875488,-2.130904197692871,2.9808712005615234,-1.283681869506836,-0.4559469223022461,-0.1331615447998047,0.5129365921020508,-0.1448831558227539,-0.8041706085205078,-0.2631368637084961
29,275928704.0,9.745894432067871,-2.080624580383301,3.055093765258789,-1.283681869506836,-0.4559469223022461,-0.1331615447998047,0.5129365921020508,-0.1448831558227539,-0.8041706085205078,-0.2631368637084961
30,275928832.0,9.389147758483887,-1.752608299255371,2.8599605560302734,-0.1789693832397461,-0.1661853790283203,-0.03835010528564453,0.5333070755004883,-0.14807701110839844,-0.7929487228393555,-0.2547645568847656
31,275928864.0,9.365204811096191,-1.854365348815918,2.7019386291503906,-0.1789693832397461,-0.1661853790283203,-0.03835010528564453,0.5333070755004883,-0.14807701110839844,-0.7929487228393555,-0.2547645568847656
32,275928896.0,9.432244300842285,-1.7933111190795898,2.6456727981567383,-0.1789693832397461,-0.1661853790283203,-0.03835010528564453,0.5333070755004883,-0.14807701110839844,-0.7929487228393555,-0.2547645568847656
33,275928896.0,9.59385871887207,-1.822042465209961,2.419414520263672,-0.1789693832397461,-0.1661853790283203,-0.03835010528564453,0.5333070755004883,-0.14807701110839844,-0.7929487228393555,-0.2547645568847656
34,275928928.0,9.469355583190918,-1.9549245834350586,2.3619518280029297,-0.6423740386962891,0.10546398162841797,-0.09907245635986328,0.5333070755004883,-0.14807701110839844,-0.7929487228393555,-0.2547645568847656
35,275929056.0,9.438230514526367,-2.316460609436035,2.229069709777832,-0.25567054748535156,0.010652542114257812,-0.3281106948852539,0.5304155349731445,-0.19404029846191406,-0.7730531692504883,-0.2887296676635742
36,275929088.0,9.443018913269043,-2.3368120193481445,2.3978652954101562,-0.16938209533691406,-0.005326271057128906,-0.3163928985595703,0.5304155349731445,-0.19404029846191406,-0.7730531692504883,-0.2887296676635742
37,275929088.0,9.450201988220215,-2.2721662521362305,2.4289913177490234,-0.16938209533691406,-0.005326271057128906,-0.3163928985595703,0.5304155349731445,-0.19404029846191406,-0.7730531692504883,-0.2887296676635742
38,275929120.0,9.397527694702148,-2.317657470703125,2.280546188354492,-0.19707965850830078,0.019174575805664062,-0.26738929748535156,0.5304155349731445,-0.19404029846191406,-0.7730531692504883,-0.2887296676635742
39,275929152.0,9.322108268737793,-2.382303237915039,2.2757577896118164,-0.21518993377685547,0.01810932159423828,-0.1448802947998047,0.5304155349731445,-0.19404029846191406,-0.7730531692504883,-0.2887296676635742
40,275929152.0,9.42506217956543,-2.353571891784668,2.408639907836914,-0.21518993377685547,0.01810932159423828,-0.1448802947998047,0.5304155349731445,-0.19404029846191406,-0.7730531692504883,-0.2887296676635742
41,275929280.0,9.586675643920898,-2.011190414428711,2.4038515090942383,-0.21518993377685547,0.01810932159423828,-0.1448802947998047,0.5322713851928711,-0.21393680572509766,-0.7646369934082031,-0.29369354248046875
42,275929280.0,9.268237113952637,-1.9968242645263672,2.372725486755371,-0.21518993377685547,0.01810932159423828,-0.1448802947998047,0.5322713851928711,-0.21393680572509766,-0.7646369934082031,-0.29369354248046875
43,275929312.0,9.056344032287598,-1.9537277221679688,2.437371253967285,-0.21518993377685547,0.01810932159423828,-0.1448802947998047,0.5322713851928711,-0.21393680572509766,-0.7646369934082031,-0.29369354248046875
44,275929312.0,9.222745895385742,-2.0746383666992188,2.4828624725341797,-0.21518993377685547,0.01810932159423828,-0.1448802947998047,0.5322713851928711,-0.21393680572509766,-0.7646369934082031,-0.29369354248046875
45,275929344.0,9.324501991271973,-2.1129465103149414,2.415822982788086,-0.21518993377685547,0.01810932159423828,-0.1448802947998047,0.5322713851928711,-0.21393680572509766,-0.7646369934082031,-0.29369354248046875
46,275929472.0,9.274222373962402,-1.8411970138549805,2.431385040283203,0.02769756317138672,0.03835010528564453,0.07244014739990234,0.528904914855957,-0.2068157196044922,-0.768651008605957,-0.2943840026855469
47,275929504.0,9.30654525756836,-1.939361572265625,2.440962791442871,0.0287628173828125,-0.005326271057128906,0.05646038055419922,0.5296821594238281,-0.20638370513916016,-0.7683916091918945,-0.2940387725830078
48,275929504.0,9.446610450744629,-1.9345731735229492,2.382303237915039,0.0287628173828125,-0.005326271057128906,0.05646038055419922,0.5296821594238281,-0.20638370513916016,-0.7683916091918945,-0.2940387725830078
49,275929536.0,9.42506217956543,-1.9441509246826172,2.357163429260254,0.05859088897705078,0.014913558959960938,0.060721397399902344,0.5299844741821289,-0.20590877532958984,-0.7684354782104492,-0.29364967346191406
50,275929536.0,9.310136795043945,-1.9082365036010742,2.376317024230957,0.05859088897705078,0.014913558959960938,0.060721397399902344,0.5299844741821289,-0.20590877532958984,-0.7684354782104492,-0.29364967346191406
51,275929664.0,9.352036476135254,-1.8100709915161133,2.46370792388916,0.05859088897705078,0.014913558959960938,0.060721397399902344,0.531580924987793,-0.20483016967773438,-0.7681331634521484,-0.29222583770751953
52,275929696.0,9.326896667480469,-1.7202863693237305,2.4301881790161133,0.05859088897705078,0.014913558959960938,0.060721397399902344,0.531580924987793,-0.20483016967773438,-0.7681331634521484,-0.29222583770751953
53,275929696.0,9.288588523864746,-1.697540283203125,2.3655433654785156,0.05859088897705078,0.014913558959960938,0.060721397399902344,0.531580924987793,-0.20483016967773438,-0.7681331634521484,-0.29222583770751953
54,275929728.0,9.319713592529297,-1.7454261779785156,2.448145866394043,0.05859088897705078,0.014913558959960938,0.060721397399902344,0.531580924987793,-0.20483016967773438,-0.7681331634521484,-0.29222583770751953
55,275929760.0,9.38675308227539,-1.7741575241088867,2.503213882446289,-0.15233707427978516,0.014913558959960938,-0.030893325805664062,0.531580924987793,-0.20483016967773438,-0.7681331634521484,-0.29222583770751953
56,275929856.0,9.137748718261719,-1.8411970138549805,2.3032913208007812,-0.1725778579711914,0.03515434265136719,-0.041545867919921875,0.531580924987793,-0.20483016967773438,-0.7681331634521484,-0.29222583770751953
57,275929856.0,9.137748718261719,-1.8411970138549805,2.3032913208007812,-0.1725778579711914,0.03515434265136719,-0.041545867919921875,0.531580924987793,-0.20483016967773438,-0.7681331634521484,-0.29222583770751953
58,275929888.0,9.126975059509277,-1.752608299255371,2.248223304748535,-0.21199321746826172,0.021305084228515625,-0.054329872131347656,0.531580924987793,-0.20483016967773438,-0.7681331634521484,-0.29222583770751953
59,275929888.0,9.126975059509277,-1.752608299255371,2.248223304748535,-0.21199321746826172,0.021305084228515625,-0.054329872131347656,0.531580924987793,-0.20483016967773438,-0.7681331634521484,-0.29222583770751953
60,275929920.0,9.217957496643066,-1.8495769500732422,2.225478172302246,-0.3270454406738281,-0.012783050537109375,-0.10546398162841797,0.531580924987793,-0.20483016967773438,-0.7681331634521484,-0.29222583770751953
61,275929920.0,9.40471076965332,-1.9333763122558594,2.248223304748535,-0.3270454406738281,-0.012783050537109375,-0.10546398162841797,0.531580924987793,-0.20483016967773438,-0.7681331634521484,-0.29222583770751953
62,275929920.0,9.217957496643066,-1.8495769500732422,2.225478172302246,-0.3270454406738281,-0.012783050537109375,-0.10546398162841797,0.531580924987793,-0.20483016967773438,-0.7681331634521484,-0.29222583770751953
63,275929920.0,9.40471076965332,-1.9333763122558594,2.248223304748535,-0.3270454406738281,-0.012783050537109375,-0.10546398162841797,0.531580924987793,-0.20483016967773438,-0.7681331634521484,-0.29222583770751953
64,275929952.0,9.392739295959473,-2.004007339477539,2.2206897735595703,-0.3185234069824219,-0.0010652542114257812,-0.12250900268554688,0.531580924987793,-0.20483016967773438,-0.7681331634521484,-0.29222583770751953
65,275929952.0,9.392739295959473,-2.004007339477539,2.2206897735595703,-0.3185234069824219,-0.0010652542114257812,-0.12250900268554688,0.531580924987793,-0.20483016967773438,-0.7681331634521484,-0.29222583770751953
66,275930080.0,9.292180061340332,-2.1560440063476562,2.2937145233154297,-0.17470836639404297,-0.06391716003417969,-0.09907245635986328,0.531580924987793,-0.20483016967773438,-0.7681331634521484,-0.29222583770751953
67,275930080.0,9.38675308227539,-2.2613916397094727,2.383500099182129,-0.17470836639404297,-0.06391716003417969,-0.09907245635986328,0.531580924987793,-0.20483016967773438,-0.7681331634521484,-0.29222583770751953
68,275930080.0,9.292180061340332,-2.1560440063476562,2.2937145233154297,-0.17470836639404297,-0.06391716003417969,-0.09907245635986328,0.531580924987793,-0.20483016967773438,-0.7681331634521484,-0.29222583770751953
69,275930080.0,9.38675308227539,-2.2613916397094727,2.383500099182129,-0.17470836639404297,-0.06391716003417969,-0.09907245635986328,0.531580924987793,-0.20483016967773438,-0.7681331634521484,-0.29222583770751953
70,275930112.0,9.499284744262695,-2.233858108520508,2.4026546478271484,-0.03835010528564453,-0.03835010528564453,-0.09587669372558594,0.531580924987793,-0.20483016967773438,-0.7681331634521484,-0.29222583770751953
71,275930112.0,9.507664680480957,-2.1955490112304688,2.378711700439453,-0.03835010528564453,-0.03835010528564453,-0.09587669372558594,0.531580924987793,-0.20483016967773438,-0.7681331634521484,-0.29222583770751953
72,275930112.0,9.499284744262695,-2.233858108520508,2.4026546478271484,-0.03835010528564453,-0.03835010528564453,-0.09587669372558594,0.531580924987793,-0.20483016967773438,-0.7681331634521484,-0.29222583770751953
73,275930112.0,9.507664680480957,-2.1955490112304688,2.378711700439453,-0.03835010528564453,-0.03835010528564453,-0.09587669372558594,0.531580924987793,-0.20483016967773438,-0.7681331634521484,-0.29222583770751953
74,275930144.0,9.5651273727417,-2.158437728881836,2.449342727661133,-0.009587287902832031,-0.04793834686279297,-0.09587669372558594,0.531580924987793,-0.20483016967773438,-0.7681331634521484,-0.29222583770751953
75,275930144.0,9.5651273727417,-2.158437728881836,2.449342727661133,-0.009587287902832031,-0.04793834686279297,-0.09587669372558594,0.531580924987793,-0.20483016967773438,-0.7681331634521484,-0.29222583770751953
76,275930176.0,9.750682830810547,-2.1787891387939453,2.4613142013549805,-0.009587287902832031,-0.04793834686279297,-0.09587669372558594,0.531580924987793,-0.20483016967773438,-0.7681331634521484,-0.29222583770751953
77,275930176.0,9.828496932983398,-2.0902013778686523,2.558281898498535,-0.009587287902832031,-0.04793834686279297,-0.09587669372558594,0.531580924987793,-0.20483016967773438,-0.7681331634521484,-0.29222583770751953
78,275930208.0,9.797371864318848,-2.000415802001953,2.4792709350585938,-0.009587287902832031,-0.04793834686279297,-0.09587669372558594,0.531580924987793,-0.20483016967773438,-0.7681331634521484,-0.29222583770751953
79,275930240.0,9.627378463745117,-2.0351333618164062,2.4613142013549805,-0.009587287902832031,-0.04793834686279297,-0.09587669372558594,0.531580924987793,-0.20483016967773438,-0.7681331634521484,-0.29222583770751953
80,275930240.0,9.699206352233887,-2.0231618881225586,2.53314208984375,-0.009587287902832031,-0.04793834686279297,-0.09587669372558594,0.531580924987793,-0.20483016967773438,-0.7681331634521484,-0.29222583770751953
81,275930368.0,9.071906089782715,-1.7119054794311523,2.068653106689453,-0.16298961639404297,0.12890052795410156,0.04900360107421875,0.531580924987793,-0.20483016967773438,-0.7681331634521484,-0.29222583770751953
82,275930368.0,8.984515190124512,-1.7394399642944336,2.0267534255981445,-0.16298961639404297,0.12890052795410156,0.04900360107421875,0.531580924987793,-0.20483016967773438,-0.7681331634521484,-0.29222583770751953
83,275930368.0,9.071906089782715,-1.7119054794311523,2.068653106689453,-0.16298961639404297,0.12890052795410156,0.04900360107421875,0.531580924987793,-0.20483016967773438,-0.7681331634521484,-0.29222583770751953
84,275930368.0,8.984515190124512,-1.7394399642944336,2.0267534255981445,-0.16298961639404297,0.12890052795410156,0.04900360107421875,0.531580924987793,-0.20483016967773438,-0.7681331634521484,-0.29222583770751953
85,275930400.0,9.035992622375488,-1.765777587890625,2.159635543823242,-0.16298961639404297,0.12890052795410156,0.04900360107421875,0.531580924987793,-0.20483016967773438,-0.7681331634521484,-0.29222583770751953
86,275930400.0,9.035992622375488,-1.765777587890625,2.159635543823242,-0.16298961639404297,0.12890052795410156,0.04900360107421875,0.531580924987793,-0.20483016967773438,-0.7681331634521484,-0.29222583770751953
87,275930432.0,9.316122055053711,-1.850773811340332,2.0638647079467773,-0.16298961639404297,0.12890052795410156,0.04900360107421875,0.531580924987793,-0.20483016967773438,-0.7681331634521484,-0.29222583770751953
88,275930432.0,9.350839614868164,-1.8639421463012695,1.8603506088256836,-0.16298961639404297,0.12890052795410156,0.04900360107421875,0.531580924987793,-0.20483016967773438,-0.7681331634521484,-0.29222583770751953
89,275930432.0,9.316122055053711,-1.850773811340332,2.0638647079467773,-0.16298961639404297,0.12890052795410156,0.04900360107421875,0.531580924987793,-0.20483016967773438,-0.7681331634521484,-0.29222583770751953
90,275930432.0,9.350839614868164,-1.8639421463012695,1.8603506088256836,-0.16298961639404297,0.12890052795410156,0.04900360107421875,0.531580924987793,-0.20483016967773438,-0.7681331634521484,-0.29222583770751953
91,275930560.0,9.4968900680542,-2.0794267654418945,2.138087272644043,-0.20027542114257812,-0.024501800537109375,-0.09481048583984375,0.5222587585449219,-0.27401256561279297,-0.7364978790283203,-0.3312406539916992
92,275930592.0,9.69681167602539,-2.1177358627319336,2.1297073364257812,-0.20027542114257812,-0.024501800537109375,-0.09481048583984375,0.5222587585449219,-0.27401256561279297,-0.7364978790283203,-0.3312406539916992
93,275930592.0,9.811737060546875,-2.159635543823242,2.098581314086914,-0.20027542114257812,-0.024501800537109375,-0.09481048583984375,0.5222587585449219,-0.27401256561279297,-0.7364978790283203,-0.3312406539916992
94,275930624.0,9.678854942321777,-2.10097599029541,2.150057792663574,-0.20027542114257812,-0.024501800537109375,-0.09481048583984375,0.5222587585449219,-0.27401256561279297,-0.7364978790283203,-0.3312406539916992
95,275930656.0,9.64533519744873,-2.098581314086914,2.281743049621582,-0.20027542114257812,-0.024501800537109375,-0.09481048583984375,0.5222587585449219,-0.27401256561279297,-0.7364978790283203,-0.3312406539916992
96,275930656.0,9.557944297790527,-2.0315418243408203,2.324840545654297,-0.20027542114257812,-0.024501800537109375,-0.09481048583984375,0.5222587585449219,-0.27401256561279297,-0.7364978790283203,-0.3312406539916992
97,275930656.0,9.557944297790527,-2.0315418243408203,2.324840545654297,-0.20027542114257812,-0.024501800537109375,-0.09481048583984375,0.5222587585449219,-0.27401256561279297,-0.7364978790283203,-0.3312406539916992
98,275930656.0,9.557944297790527,-2.0315418243408203,2.324840545654297,-0.20027542114257812,-0.024501800537109375,-0.09481048583984375,0.5222587585449219,-0.27401256561279297,-0.7364978790283203,-0.3312406539916992
99,275930688.0,9.37478256225586,-1.9884443283081055,2.34279727935791,-0.20027542114257812,-0.024501800537109375,-0.09481048583984375,0.5222587585449219,-0.27401256561279297,-0.7364978790283203,-0.3312406539916992
100,275930688.0,9.273025512695312,-1.9465446472167969,2.318854331970215,-0.20027542114257812,-0.024501800537109375,-0.09481048583984375,0.5222587585449219,-0.27401256561279297,-0.7364978790283203,-0.3312406539916992
101,275930688.0,9.37478256225586,-1.9884443283081055,2.34279727935791,-0.20027542114257812,-0.024501800537109375,-0.09481048583984375,0.5222587585449219,-0.27401256561279297,-0.7364978790283203,-0.3312406539916992
102,275930688.0,9.273025512695312,-1.9465446472167969,2.318854331970215,-0.20027542114257812,-0.024501800537109375,-0.09481048583984375,0.5222587585449219,-0.27401256561279297,-0.7364978790283203,-0.3312406539916992
103,275930688.0,9.37478256225586,-1.9884443283081055,2.34279727935791,-0.20027542114257812,-0.024501800537109375,-0.09481048583984375,0.5222587585449219,-0.27401256561279297,-0.7364978790283203,-0.3312406539916992
104,275930688.0,9.273025512695312,-1.9465446472167969,2.318854331970215,-0.20027542114257812,-0.024501800537109375,-0.09481048583984375,0.5222587585449219,-0.27401256561279297,-0.7364978790283203,-0.3312406539916992
105,275930720.0,9.18443775177002,-1.9645023345947266,2.348782539367676,-0.20027542114257812,-0.024501800537109375,-0.09481048583984375,0.5222587585449219,-0.27401256561279297,-0.7364978790283203,-0.3312406539916992
106,275930720.0,9.18443775177002,-1.9645023345947266,2.348782539367676,-0.20027542114257812,-0.024501800537109375,-0.09481048583984375,0.5222587585449219,-0.27401256561279297,-0.7364978790283203,-0.3312406539916992
107,275930720.0,9.18443775177002,-1.9645023345947266,2.348782539367676,-0.20027542114257812,-0.024501800537109375,-0.09481048583984375,0.5222587585449219,-0.27401256561279297,-0.7364978790283203,-0.3312406539916992
108,275930752.0,9.106623649597168,-1.8651399612426758,2.383500099182129,0.02982807159423828,-0.005326271057128906,0.11718177795410156,0.5222587585449219,-0.27401256561279297,-0.7364978790283203,-0.3312406539916992
109,275930752.0,9.106623649597168,-1.8651399612426758,2.383500099182129,0.02982807159423828,-0.005326271057128906,0.11718177795410156,0.5222587585449219,-0.27401256561279297,-0.7364978790283203,-0.3312406539916992
110,275930752.0,9.106623649597168,-1.8651399612426758,2.383500099182129,0.02982807159423828,-0.005326271057128906,0.11718177795410156,0.5222587585449219,-0.27401256561279297,-0.7364978790283203,-0.3312406539916992
111,275930848.0,9.608223915100098,-1.9273910522460938,2.2434349060058594,0.09481048583984375,-0.024501800537109375,0.0980072021484375,0.521697998046875,-0.27176856994628906,-0.7336492538452148,-0.34026145935058594
112,275930880.0,9.52681827545166,-1.9597129821777344,2.324840545654297,0.09481048583984375,-0.024501800537109375,0.0980072021484375,0.5219564437866211,-0.27004241943359375,-0.7342538833618164,-0.3398294448852539
113,275930912.0,9.504073143005371,-2.038724899291992,2.4122314453125,0.09481048583984375,-0.024501800537109375,0.0980072021484375,0.5222158432006836,-0.26956748962402344,-0.7343835830688477,-0.3395700454711914
114,275930912.0,9.379570960998535,-2.1428756713867188,2.419414520263672,0.09481048583984375,-0.024501800537109375,0.0980072021484375,0.5222158432006836,-0.26956748962402344,-0.7343835830688477,-0.3395700454711914
115,275930944.0,9.259857177734375,-2.1704092025756836,2.4469480514526367,0.09481048583984375,-0.024501800537109375,0.0980072021484375,0.5223884582519531,-0.2692222595214844,-0.7345561981201172,-0.33922481536865234
116,275931072.0,9.14612865447998,-2.5056076049804688,2.445751190185547,-0.08735370635986328,0.0287628173828125,-0.08522319793701172,0.5206623077392578,-0.27258872985839844,-0.7350740432739258,-0.3380165100097656
117,275931072.0,9.241899490356445,-2.5175790786743164,2.3296289443969727,-0.08735370635986328,0.0287628173828125,-0.08522319793701172,0.5206623077392578,-0.27258872985839844,-0.7350740432739258,-0.3380165100097656
118,275931104.0,9.318516731262207,-2.497227668762207,2.2973060607910156,-0.08735370635986328,0.0287628173828125,-0.08522319793701172,0.5199718475341797,-0.2737112045288086,-0.7353324890136719,-0.33767127990722656
119,275931136.0,9.392739295959473,-2.5427188873291016,2.2721662521362305,-0.08735370635986328,0.0287628173828125,-0.08522319793701172,0.5195398330688477,-0.2744016647338867,-0.7352466583251953,-0.3378438949584961
120,275931136.0,9.486115455627441,-2.6193361282348633,2.2206897735595703,-0.08735370635986328,0.0287628173828125,-0.08522319793701172,0.5195398330688477,-0.2744016647338867,-0.7352466583251953,-0.3378438949584961
121,275931168.0,9.632166862487793,-2.658841133117676,2.1416778564453125,-0.08735370635986328,0.0287628173828125,-0.08522319793701172,0.5195398330688477,-0.2744016647338867,-0.7352466583251953,-0.3378438949584961
122,275931168.0,9.653715133666992,-2.6456727981567383,2.1081581115722656,-0.08735370635986328,0.0287628173828125,-0.08522319793701172,0.5195398330688477,-0.2744016647338867,-0.7352466583251953,-0.3378438949584961
123,275931200.0,9.579492568969727,-2.606167793273926,2.133297920227051,-0.08735370635986328,0.0287628173828125,-0.08522319793701172,0.5195398330688477,-0.2744016647338867,-0.7352466583251953,-0.3378438949584961
124,275931232.0,9.487313270568848,-2.499622344970703,2.168015480041504,-0.08735370635986328,0.0287628173828125,-0.08522319793701172,0.5195398330688477,-0.2744016647338867,-0.7352466583251953,-0.3378438949584961
125,275931232.0,9.35682487487793,-2.4361743927001953,2.1440725326538086,-0.08735370635986328,0.0287628173828125,-0.08522319793701172,0.5195398330688477,-0.2744016647338867,-0.7352466583251953,-0.3378438949584961
126,275931264.0,9.326896667480469,-2.340402603149414,2.121326446533203,0.03835010528564453,0.05006885528564453,0.2141246795654297,0.5195398330688477,-0.2744016647338867,-0.7352466583251953,-0.3378438949584961
127,275931296.0,9.312531471252441,-2.2709693908691406,2.1548471450805664,0.07670116424560547,0.061786651611328125,0.20453643798828125,0.5195398330688477,-0.2744016647338867,-0.7352466583251953,-0.3378438949584961
128,275931296.0,9.132960319519043,-2.2326602935791016,2.0902013778686523,0.07670116424560547,0.061786651611328125,0.20453643798828125,0.5195398330688477,-0.2744016647338867,-0.7352466583251953,-0.3378438949584961
129,275931328.0,9.049160957336426,-2.1416778564453125,2.10336971282959,0.08415794372558594,0.012783050537109375,0.14168357849121094,0.5195398330688477,-0.2744016647338867,-0.7352466583251953,-0.3378438949584961
130,275931328.0,9.0970458984375,-2.1021728515625,2.066258430480957,0.08415794372558594,0.012783050537109375,0.14168357849121094,0.5195398330688477,-0.2744016647338867,-0.7352466583251953,-0.3378438949584961
131,275931360.0,9.126975059509277,-2.1440725326538086,2.0315418243408203,0.08415794372558594,0.012783050537109375,0.14168357849121094,0.5195398330688477,-0.2744016647338867,-0.7352466583251953,-0.3378438949584961
132,275931392.0,9.130566596984863,-2.1692123413085938,2.1105527877807617,0.08415794372558594,0.012783050537109375,0.14168357849121094,0.5195398330688477,-0.2744016647338867,-0.7352466583251953,-0.3378438949584961
133,275931392.0,9.239505767822266,-2.132101058959961,2.1153411865234375,0.08415794372558594,0.012783050537109375,0.14168357849121094,0.5195398330688477,-0.2744016647338867,-0.7352466583251953,-0.3378438949584961
134,275931424.0,9.268237113952637,-2.191958427429199,2.0925960540771484,0.08415794372558594,0.012783050537109375,0.14168357849121094,0.5195398330688477,-0.2744016647338867,-0.7352466583251953,-0.3378438949584961
135,275931456.0,9.258659362792969,-2.1823806762695312,2.157240867614746,0.07883167266845703,-0.07670116424560547,0.022370338439941406,0.5195398330688477,-0.2744016647338867,-0.7352466583251953,-0.3378438949584961
136,275931456.0,9.429850578308105,-2.2757577896118164,2.138087272644043,0.07883167266845703,-0.07670116424560547,0.022370338439941406,0.5195398330688477,-0.2744016647338867,-0.7352466583251953,-0.3378438949584961
137,275931488.0,9.488510131835938,-2.2422380447387695,2.2398433685302734,0.13103103637695312,-0.060721397399902344,0.042611122131347656,0.5195398330688477,-0.2744016647338867,-0.7352466583251953,-0.3378438949584961
138,275931488.0,9.437033653259277,-2.2135066986083984,2.2673778533935547,0.13103103637695312,-0.060721397399902344,0.042611122131347656,0.5195398330688477,-0.2744016647338867,-0.7352466583251953,-0.3378438949584961
139,275931520.0,9.422667503356934,-2.159635543823242,2.3308258056640625,0.11611652374267578,-0.06604766845703125,0.05006885528564453,0.5195398330688477,-0.2744016647338867,-0.7352466583251953,-0.3378438949584961
140,275931552.0,9.432244300842285,-2.1141443252563477,2.3356142044067383,0.08309268951416016,-0.04793834686279297,0.06498241424560547,0.5195398330688477,-0.2744016647338867,-0.7352466583251953,-0.3378438949584961
141,275931776.0,9.258659362792969,-2.0423154830932617,2.284137725830078,-0.004261016845703125,0.0170440673828125,0.07244014739990234,0.5188064575195312,-0.2513551712036133,-0.7448272705078125,-0.33598804473876953
142,275931776.0,9.21436595916748,-2.1105527877807617,2.2769546508789062,-0.004261016845703125,0.0170440673828125,0.07244014739990234,0.5188064575195312,-0.2513551712036133,-0.7448272705078125,-0.33598804473876953
143,275931808.0,9.149720191955566,-2.1548471450805664,2.215900421142578,-0.004261016845703125,0.0170440673828125,0.07244014739990234,0.5188064575195312,-0.2513551712036133,-0.7448272705078125,-0.33598804473876953
144,275931808.0,9.113805770874023,-2.2063236236572266,2.139284133911133,-0.004261016845703125,0.0170440673828125,0.07244014739990234,0.5188064575195312,-0.2513551712036133,-0.7448272705078125,-0.33598804473876953
145,275931840.0,9.219154357910156,-2.2111120223999023,2.0578784942626953,-0.004261016845703125,0.0170440673828125,0.07244014739990234,0.5188064575195312,-0.2513551712036133,-0.7448272705078125,-0.33598804473876953
146,275931872.0,9.310136795043945,-2.2350549697875977,2.066258430480957,-0.019174575805664062,-0.01597881317138672,-0.12890052795410156,0.5188064575195312,-0.2513551712036133,-0.7448272705078125,-0.33598804473876953
147,275931872.0,9.243097305297852,-2.266180992126465,2.109355926513672,-0.019174575805664062,-0.01597881317138672,-0.12890052795410156,0.5188064575195312,-0.2513551712036133,-0.7448272705078125,-0.33598804473876953
148,275931872.0,9.310136795043945,-2.2350549697875977,2.066258430480957,-0.019174575805664062,-0.01597881317138672,-0.12890052795410156,0.5188064575195312,-0.2513551712036133,-0.7448272705078125,-0.33598804473876953
149,275931872.0,9.243097305297852,-2.266180992126465,2.109355926513672,-0.019174575805664062,-0.01597881317138672,-0.12890052795410156,0.5188064575195312,-0.2513551712036133,-0.7448272705078125,-0.33598804473876953
150,275931904.0,9.311333656311035,-2.254209518432617,2.068653106689453,-0.08841896057128906,-0.03621959686279297,-0.07563591003417969,0.5188064575195312,-0.2513551712036133,-0.7448272705078125,-0.33598804473876953
151,275931904.0,9.482524871826172,-2.266180992126465,2.000415802001953,-0.08841896057128906,-0.03621959686279297,-0.07563591003417969,0.5188064575195312,-0.2513551712036133,-0.7448272705078125,-0.33598804473876953
152,275931904.0,9.311333656311035,-2.254209518432617,2.068653106689453,-0.08841896057128906,-0.03621959686279297,-0.07563591003417969,0.5188064575195312,-0.2513551712036133,-0.7448272705078125,-0.33598804473876953
153,275931904.0,9.482524871826172,-2.266180992126465,2.000415802001953,-0.08841896057128906,-0.03621959686279297,-0.07563591003417969,0.5188064575195312,-0.2513551712036133,-0.7448272705078125,-0.33598804473876953
154,275931936.0,9.591464042663574,-2.3020944595336914,2.091398239135742,-0.1097249984741211,-0.022370338439941406,-0.03941535949707031,0.5188064575195312,-0.2513551712036133,-0.7448272705078125,-0.33598804473876953
155,275931936.0,9.591464042663574,-2.3020944595336914,2.091398239135742,-0.1097249984741211,-0.022370338439941406,-0.03941535949707031,0.5188064575195312,-0.2513551712036133,-0.7448272705078125,-0.33598804473876953
156,275931968.0,9.415484428405762,-2.310474395751953,2.10097599029541,-0.1097249984741211,-0.022370338439941406,-0.03941535949707031,0.5188064575195312,-0.2513551712036133,-0.7448272705078125,-0.33598804473876953
157,275931968.0,9.324501991271973,-2.227871894836426,2.139284133911133,-0.1097249984741211,-0.022370338439941406,-0.03941535949707031,0.5188064575195312,-0.2513551712036133,-0.7448272705078125,-0.33598804473876953
158,275932000.0,9.377176284790039,-2.133297920227051,2.1847753524780273,-0.1097249984741211,-0.022370338439941406,-0.03941535949707031,0.5188064575195312,-0.2513551712036133,-0.7448272705078125,-0.33598804473876953
159,275932032.0,9.358022689819336,-2.0890045166015625,2.2829408645629883,-0.1097249984741211,-0.022370338439941406,-0.03941535949707031,0.5188064575195312,-0.2513551712036133,-0.7448272705078125,-0.33598804473876953
160,275932032.0,9.246688842773438,-2.123721122741699,2.317657470703125,-0.1097249984741211,-0.022370338439941406,-0.03941535949707031,0.5188064575195312,-0.2513551712036133,-0.7448272705078125,-0.33598804473876953
161,275932160.0,9.421470642089844,-2.091398239135742,2.4565258026123047,-0.030893325805664062,-0.0287628173828125,-0.03728485107421875,0.5188064575195312,-0.2513551712036133,-0.7448272705078125,-0.33598804473876953
162,275932160.0,9.421470642089844,-2.091398239135742,2.4565258026123047,-0.030893325805664062,-0.0287628173828125,-0.03728485107421875,0.5188064575195312,-0.2513551712036133,-0.7448272705078125,-0.33598804473876953
163,275932192.0,9.47414493560791,-2.17160701751709,2.3990631103515625,-0.030893325805664062,-0.0287628173828125,-0.03728485107421875,0.5188064575195312,-0.2513551712036133,-0.7448272705078125,-0.33598804473876953
164,275932192.0,9.439427375793457,-2.1787891387939453,2.439764976501465,-0.030893325805664062,-0.0287628173828125,-0.03728485107421875,0.5188064575195312,-0.2513551712036133,-0.7448272705078125,-0.33598804473876953
165,275932192.0,9.47414493560791,-2.17160701751709,2.3990631103515625,-0.030893325805664062,-0.0287628173828125,-0.03728485107421875,0.5188064575195312,-0.2513551712036133,-0.7448272705078125,-0.33598804473876953
166,275932192.0,9.439427375793457,-2.1787891387939453,2.439764976501465,-0.030893325805664062,-0.0287628173828125,-0.03728485107421875,0.5188064575195312,-0.2513551712036133,-0.7448272705078125,-0.33598804473876953
167,275932224.0,9.37597942352295,-2.2314634323120117,2.4242029190063477,-0.030893325805664062,-0.0287628173828125,-0.03728485107421875,0.5188064575195312,-0.2513551712036133,-0.7448272705078125,-0.33598804473876953
168,275932224.0,9.401119232177734,-2.1847753524780273,2.405048370361328,-0.030893325805664062,-0.0287628173828125,-0.03728485107421875,0.5188064575195312,-0.2513551712036133,-0.7448272705078125,-0.33598804473876953
169,275932224.0,9.37597942352295,-2.2314634323120117,2.4242029190063477,-0.030893325805664062,-0.0287628173828125,-0.03728485107421875,0.5188064575195312,-0.2513551712036133,-0.7448272705078125,-0.33598804473876953
170,275932224.0,9.401119232177734,-2.1847753524780273,2.405048370361328,-0.030893325805664062,-0.0287628173828125,-0.03728485107421875,0.5188064575195312,-0.2513551712036133,-0.7448272705078125,-0.33598804473876953
171,275932256.0,9.445413589477539,-2.1728038787841797,2.3667402267456055,-0.05859088897705078,0.026632308959960938,-0.010652542114257812,0.5188064575195312,-0.2513551712036133,-0.7448272705078125,-0.33598804473876953
172,275932256.0,9.445413589477539,-2.1728038787841797,2.3667402267456055,-0.05859088897705078,0.026632308959960938,-0.010652542114257812,0.5188064575195312,-0.2513551712036133,-0.7448272705078125,-0.33598804473876953
173,275932288.0,9.347248077392578,-2.187169075012207,2.3320226669311523,-0.0745706558227539,0.03835010528564453,-0.004261016845703125,0.5188064575195312,-0.2513551712036133,-0.7448272705078125,-0.33598804473876953
174,275932288.0,9.328093528747559,-2.227871894836426,2.3032913208007812,-0.0745706558227539,0.03835010528564453,-0.004261016845703125,0.5188064575195312,-0.2513551712036133,-0.7448272705078125,-0.33598804473876953
175,275932288.0,9.347248077392578,-2.187169075012207,2.3320226669311523,-0.0745706558227539,0.03835010528564453,-0.004261016845703125,0.5188064575195312,-0.2513551712036133,-0.7448272705078125,-0.33598804473876953
176,275932288.0,9.328093528747559,-2.227871894836426,2.3032913208007812,-0.0745706558227539,0.03835010528564453,-0.004261016845703125,0.5188064575195312,-0.2513551712036133,-0.7448272705078125,-0.33598804473876953
177,275932320.0,9.299362182617188,-2.2206897735595703,2.201535224914551,-0.042611122131347656,0.03728485107421875,0.0,0.5188064575195312,-0.2513551712036133,-0.7448272705078125,-0.33598804473876953
178,275932320.0,9.299362182617188,-2.2206897735595703,2.201535224914551,-0.042611122131347656,0.03728485107421875,0.0,0.5188064575195312,-0.2513551712036133,-0.7448272705078125,-0.33598804473876953
179,275932352.0,9.268237113952637,-2.1704092025756836,2.1464672088623047,-0.020239830017089844,0.0287628173828125,-0.005326271057128906,0.5188064575195312,-0.2513551712036133,-0.7448272705078125,-0.33598804473876953
180,275932352.0,9.268237113952637,-2.1704092025756836,2.1464672088623047,-0.020239830017089844,0.0287628173828125,-0.005326271057128906,0.5188064575195312,-0.2513551712036133,-0.7448272705078125,-0.33598804473876953
181,275932544.0,9.270630836486816,-2.130904197692871,2.1560440063476562,0.021305084228515625,-0.014913558959960938,-0.06498241424560547,0.5233373641967773,-0.26650333404541016,-0.7363252639770508,-0.33594512939453125
182,275932544.0,9.270630836486816,-2.130904197692871,2.1560440063476562,0.021305084228515625,-0.014913558959960938,-0.06498241424560547,0.5233373641967773,-0.26650333404541016,-0.7363252639770508,-0.33594512939453125
183,275932576.0,9.30774211883545,-2.0746383666992188,2.109355926513672,0.021305084228515625,-0.014913558959960938,-0.06498241424560547,0.5233373641967773,-0.26650333404541016,-0.7363252639770508,-0.33594512939453125
184,275932576.0,9.30774211883545,-2.0746383666992188,2.109355926513672,0.021305084228515625,-0.014913558959960938,-0.06498241424560547,0.5233373641967773,-0.26650333404541016,-0.7363252639770508,-0.33594512939453125
185,275932608.0,9.42745590209961,-2.0542869567871094,2.073441505432129,0.021305084228515625,-0.014913558959960938,-0.06498241424560547,0.5233373641967773,-0.26650333404541016,-0.7363252639770508,-0.33594512939453125
186,275932608.0,9.383162498474121,-2.1464672088623047,2.059075355529785,0.021305084228515625,-0.014913558959960938,-0.06498241424560547,0.5233373641967773,-0.26650333404541016,-0.7363252639770508,-0.33594512939453125
187,275932608.0,9.42745590209961,-2.0542869567871094,2.073441505432129,0.021305084228515625,-0.014913558959960938,-0.06498241424560547,0.5233373641967773,-0.26650333404541016,-0.7363252639770508,-0.33594512939453125
188,275932608.0,9.383162498474121,-2.1464672088623047,2.059075355529785,0.021305084228515625,-0.014913558959960938,-0.06498241424560547,0.5233373641967773,-0.26650333404541016,-0.7363252639770508,-0.33594512939453125
189,275932640.0,9.435835838317871,-2.187169075012207,2.0794267654418945,0.021305084228515625,-0.014913558959960938,-0.06498241424560547,0.5233373641967773,-0.26650333404541016,-0.7363252639770508,-0.33594512939453125
190,275932640.0,9.435835838317871,-2.187169075012207,2.0794267654418945,0.021305084228515625,-0.014913558959960938,-0.06498241424560547,0.5233373641967773,-0.26650333404541016,-0.7363252639770508,-0.33594512939453125
191,275932672.0,9.452595710754395,-2.22308349609375,2.098581314086914,0.021305084228515625,-0.014913558959960938,-0.06498241424560547,0.5233373641967773,-0.26650333404541016,-0.7363252639770508,-0.33594512939453125
192,275932672.0,9.446610450744629,-2.193155288696289,2.135692596435547,0.021305084228515625,-0.014913558959960938,-0.06498241424560547,0.5233373641967773,-0.26650333404541016,-0.7363252639770508,-0.33594512939453125
193,275932672.0,9.452595710754395,-2.22308349609375,2.098581314086914,0.021305084228515625,-0.014913558959960938,-0.06498241424560547,0.5233373641967773,-0.26650333404541016,-0.7363252639770508,-0.33594512939453125
194,275932672.0,9.446610450744629,-2.193155288696289,2.135692596435547,0.021305084228515625,-0.014913558959960938,-0.06498241424560547,0.5233373641967773,-0.26650333404541016,-0.7363252639770508,-0.33594512939453125
195,275932704.0,9.462173461914062,-2.1297073364257812,2.159635543823242,0.021305084228515625,-0.014913558959960938,-0.06498241424560547,0.5233373641967773,-0.26650333404541016,-0.7363252639770508,-0.33594512939453125
196,275932704.0,9.438230514526367,-2.1129465103149414,2.2063236236572266,0.021305084228515625,-0.014913558959960938,-0.06498241424560547,0.5233373641967773,-0.26650333404541016,-0.7363252639770508,-0.33594512939453125
197,275932704.0,9.462173461914062,-2.1297073364257812,2.159635543823242,0.021305084228515625,-0.014913558959960938,-0.06498241424560547,0.5233373641967773,-0.26650333404541016,-0.7363252639770508,-0.33594512939453125
198,275932704.0,9.438230514526367,-2.1129465103149414,2.2063236236572266,0.021305084228515625,-0.014913558959960938,-0.06498241424560547,0.5233373641967773,-0.26650333404541016,-0.7363252639770508,-0.33594512939453125
199,275932736.0,9.410696029663086,-2.139284133911133,2.3020944595336914,0.021305084228515625,-0.014913558959960938,-0.06498241424560547,0.5230789184570312,-0.26546764373779297,-0.7364978790283203,-0.3368949890136719
200,275932736.0,9.410696029663086,-2.139284133911133,2.3020944595336914,0.021305084228515625,-0.014913558959960938,-0.06498241424560547,0.5230789184570312,-0.26546764373779297,-0.7364978790283203,-0.3368949890136719
201,275932864.0,9.28499698638916,-2.073441505432129,2.2901229858398438,0.08309268951416016,-0.0170440673828125,-0.03835010528564453,0.5231218338012695,-0.26425933837890625,-0.7371883392333984,-0.33624744415283203
202,275932864.0,9.269433975219727,-2.099778175354004,2.256603240966797,0.08309268951416016,-0.0170440673828125,-0.03835010528564453,0.5231218338012695,-0.26425933837890625,-0.7371883392333984,-0.33624744415283203
203,275932896.0,9.28499698638916,-2.1476640701293945,2.2422380447387695,0.08309268951416016,-0.0170440673828125,-0.03835010528564453,0.5231218338012695,-0.26425933837890625,-0.7371883392333984,-0.33624744415283203
204,275932928.0,9.377176284790039,-2.227871894836426,2.190760612487793,0.08309268951416016,-0.0170440673828125,-0.03835010528564453,0.5231218338012695,-0.26425933837890625,-0.7371883392333984,-0.33624744415283203
205,275932928.0,9.38675308227539,-2.201535224914551,2.1428756713867188,0.08309268951416016,-0.0170440673828125,-0.03835010528564453,0.5231218338012695,-0.26425933837890625,-0.7371883392333984,-0.33624744415283203
206,275932960.0,9.378373146057129,-2.2326602935791016,2.134495735168457,0.08309268951416016,-0.0170440673828125,-0.03835010528564453,0.5231218338012695,-0.26425933837890625,-0.7371883392333984,-0.33624744415283203
207,275932960.0,9.378373146057129,-2.2326602935791016,2.134495735168457,0.08309268951416016,-0.0170440673828125,-0.03835010528564453,0.5231218338012695,-0.26425933837890625,-0.7371883392333984,-0.33624744415283203
208,275932992.0,9.472947120666504,-2.2745609283447266,2.1225242614746094,0.08309268951416016,-0.0170440673828125,-0.03835010528564453,0.5231218338012695,-0.26425933837890625,-0.7371883392333984,-0.33624744415283203
209,275932992.0,9.523226737976074,-2.2613916397094727,2.105764389038086,0.08309268951416016,-0.0170440673828125,-0.03835010528564453,0.5231218338012695,-0.26425933837890625,-0.7371883392333984,-0.33624744415283203
210,275932992.0,9.472947120666504,-2.2745609283447266,2.1225242614746094,0.08309268951416016,-0.0170440673828125,-0.03835010528564453,0.5231218338012695,-0.26425933837890625,-0.7371883392333984,-0.33624744415283203
211,275932992.0,9.523226737976074,-2.2613916397094727,2.105764389038086,0.08309268951416016,-0.0170440673828125,-0.03835010528564453,0.5231218338012695,-0.26425933837890625,-0.7371883392333984,-0.33624744415283203
212,275933024.0,9.493298530578613,-2.2374496459960938,2.128509521484375,0.08309268951416016,-0.0170440673828125,-0.03835010528564453,0.5231218338012695,-0.26425933837890625,-0.7371883392333984,-0.33624744415283203
213,275933024.0,9.54716968536377,-2.2111120223999023,2.1787891387939453,0.08309268951416016,-0.0170440673828125,-0.03835010528564453,0.5231218338012695,-0.26425933837890625,-0.7371883392333984,-0.33624744415283203
214,275933024.0,9.493298530578613,-2.2374496459960938,2.128509521484375,0.08309268951416016,-0.0170440673828125,-0.03835010528564453,0.5231218338012695,-0.26425933837890625,-0.7371883392333984,-0.33624744415283203
215,275933024.0,9.54716968536377,-2.2111120223999023,2.1787891387939453,0.08309268951416016,-0.0170440673828125,-0.03835010528564453,0.5231218338012695,-0.26425933837890625,-0.7371883392333984,-0.33624744415283203
216,275933152.0,9.402316093444824,-1.98126220703125,2.3858938217163086,-0.01810932159423828,0.03728485107421875,0.11931324005126953,0.5267906188964844,-0.25722408294677734,-0.7392168045043945,-0.33145713806152344
217,275933184.0,9.35443115234375,-1.9118280410766602,2.406245231628418,-0.005326271057128906,0.05859088897705078,0.08309268951416016,0.5261001586914062,-0.2568359375,-0.7397775650024414,-0.33162975311279297
218,275933184.0,9.290982246398926,-1.8268308639526367,2.3667402267456055,-0.005326271057128906,0.05859088897705078,0.08309268951416016,0.5261001586914062,-0.2568359375,-0.7397775650024414,-0.33162975311279297
219,275933216.0,9.28380012512207,-1.8160572052001953,2.3667402267456055,-0.02982807159423828,0.053264617919921875,0.054329872131347656,0.5248479843139648,-0.2570514678955078,-0.7405977249145508,-0.33167266845703125
220,275933248.0,9.277813911437988,-1.880702018737793,2.3116722106933594,-0.05006885528564453,0.054329872131347656,0.0287628173828125,0.5248479843139648,-0.2570514678955078,-0.7405977249145508,-0.33167266845703125
221,275933248.0,9.373584747314453,-1.948939323425293,2.2470264434814453,-0.05006885528564453,0.054329872131347656,0.0287628173828125,0.5248479843139648,-0.2570514678955078,-0.7405977249145508,-0.33167266845703125
222,275933280.0,9.372387886047363,-1.9836559295654297,2.2099151611328125,-0.05006885528564453,0.054329872131347656,0.0287628173828125,0.5248479843139648,-0.2570514678955078,-0.7405977249145508,-0.33167266845703125
223,275933280.0,9.332881927490234,-1.9692907333374023,2.189563751220703,-0.05006885528564453,0.054329872131347656,0.0287628173828125,0.5248479843139648,-0.2570514678955078,-0.7405977249145508,-0.33167266845703125
224,275933312.0,9.368796348571777,-1.9345731735229492,2.1787891387939453,-0.05006885528564453,0.054329872131347656,0.0287628173828125,0.5248479843139648,-0.2570514678955078,-0.7405977249145508,-0.33167266845703125
225,275933344.0,9.33527660369873,-1.975275993347168,2.165620803833008,-0.05006885528564453,0.054329872131347656,0.0287628173828125,0.5248479843139648,-0.2570514678955078,-0.7405977249145508,-0.33167266845703125
226,275933344.0,9.300559997558594,-2.0542869567871094,2.165620803833008,-0.05006885528564453,0.054329872131347656,0.0287628173828125,0.5248479843139648,-0.2570514678955078,-0.7405977249145508,-0.33167266845703125
227,275933344.0,9.300559997558594,-2.0542869567871094,2.165620803833008,-0.05006885528564453,0.054329872131347656,0.0287628173828125,0.5248479843139648,-0.2570514678955078,-0.7405977249145508,-0.33167266845703125
228,275933376.0,9.343656539916992,-2.1416778564453125,2.164423942565918,-0.05006885528564453,0.054329872131347656,0.0287628173828125,0.5248479843139648,-0.2570514678955078,-0.7405977249145508,-0.33167266845703125
229,275933376.0,9.343656539916992,-2.1416778564453125,2.164423942565918,-0.05006885528564453,0.054329872131347656,0.0287628173828125,0.5248479843139648,-0.2570514678955078,-0.7405977249145508,-0.33167266845703125
230,275933408.0,9.359219551086426,-2.1704092025756836,2.2063236236572266,-0.05006885528564453,0.054329872131347656,0.0287628173828125,0.5248479843139648,-0.2570514678955078,-0.7405977249145508,-0.33167266845703125
231,275933408.0,9.366402626037598,-2.163227081298828,2.248223304748535,-0.05006885528564453,0.054329872131347656,0.0287628173828125,0.5248479843139648,-0.2570514678955078,-0.7405977249145508,-0.33167266845703125
232,275933408.0,9.359219551086426,-2.1704092025756836,2.2063236236572266,-0.05006885528564453,0.054329872131347656,0.0287628173828125,0.5248479843139648,-0.2570514678955078,-0.7405977249145508,-0.33167266845703125
233,275933408.0,9.366402626037598,-2.163227081298828,2.248223304748535,-0.05006885528564453,0.054329872131347656,0.0287628173828125,0.5248479843139648,-0.2570514678955078,-0.7405977249145508,-0.33167266845703125
234,275933440.0,9.316122055053711,-2.091398239135742,2.256603240966797,-0.011717796325683594,0.0,-0.03515434265136719,0.5248479843139648,-0.2570514678955078,-0.7405977249145508,-0.33167266845703125
235,275933440.0,9.316122055053711,-2.091398239135742,2.256603240966797,-0.011717796325683594,0.0,-0.03515434265136719,0.5248479843139648,-0.2570514678955078,-0.7405977249145508,-0.33167266845703125
236,275933568.0,9.30534839630127,-2.201535224914551,2.253011703491211,-0.014913558959960938,-0.012783050537109375,-0.03728485107421875,0.5248479843139648,-0.2570514678955078,-0.7405977249145508,-0.33167266845703125
237,275933568.0,9.379570960998535,-2.226675033569336,2.1955490112304688,-0.014913558959960938,-0.012783050537109375,-0.03728485107421875,0.5248479843139648,-0.2570514678955078,-0.7405977249145508,-0.33167266845703125
238,275933600.0,9.323305130004883,-2.2410402297973633,2.1847753524780273,-0.0063915252685546875,-0.01597881317138672,-0.013848304748535156,0.5248479843139648,-0.2570514678955078,-0.7405977249145508,-0.33167266845703125
239,275933600.0,9.293376922607422,-2.2506179809570312,2.201535224914551,-0.0063915252685546875,-0.01597881317138672,-0.013848304748535156,0.5248479843139648,-0.2570514678955078,-0.7405977249145508,-0.33167266845703125
240,275933632.0,9.366402626037598,-2.2362518310546875,2.1835784912109375,-0.00852203369140625,-0.021305084228515625,0.0,0.5248479843139648,-0.2570514678955078,-0.7405977249145508,-0.33167266845703125
241,275933664.0,9.401119232177734,-2.190760612487793,2.194352149963379,-0.00852203369140625,-0.021305084228515625,0.0,0.5248479843139648,-0.2570514678955078,-0.7405977249145508,-0.33167266845703125
242,275933664.0,9.387950897216797,-2.193155288696289,2.1991405487060547,-0.00852203369140625,-0.021305084228515625,0.0,0.5248479843139648,-0.2570514678955078,-0.7405977249145508,-0.33167266845703125
243,275933696.0,9.37597942352295,-2.22428035736084,2.194352149963379,-0.00852203369140625,-0.021305084228515625,0.0,0.5248479843139648,-0.2570514678955078,-0.7405977249145508,-0.33167266845703125
244,275933728.0,9.381964683532715,-2.193155288696289,2.159635543823242,-0.00852203369140625,-0.021305084228515625,0.0,0.5248479843139648,-0.2570514678955078,-0.7405977249145508,-0.33167266845703125
245,275933728.0,9.423864364624023,-2.1524524688720703,2.2135066986083984,-0.00852203369140625,-0.021305084228515625,0.0,0.5248479843139648,-0.2570514678955078,-0.7405977249145508,-0.33167266845703125
246,275933760.0,9.411893844604492,-2.1201295852661133,2.229069709777832,0.03515434265136719,-0.021305084228515625,0.057525634765625,0.5248479843139648,-0.2570514678955078,-0.7405977249145508,-0.33167266845703125
247,275933760.0,9.346051216125488,-2.106961250305176,2.2745609283447266,0.03515434265136719,-0.021305084228515625,0.057525634765625,0.5248479843139648,-0.2570514678955078,-0.7405977249145508,-0.33167266845703125
248,275933792.0,9.33647346496582,-2.109355926513672,2.244631767272949,0.0287628173828125,-0.02982807159423828,0.05965614318847656,0.5248479843139648,-0.2570514678955078,-0.7405977249145508,-0.33167266845703125
249,275933824.0,9.421470642089844,-2.1129465103149414,2.262589454650879,0.025567054748535156,-0.02769756317138672,0.07563591003417969,0.5248479843139648,-0.2570514678955078,-0.7405977249145508,-0.33167266845703125
250,275933824.0,9.414287567138672,-2.138087272644043,2.2350549697875977,0.025567054748535156,-0.02769756317138672,0.07563591003417969,0.5248479843139648,-0.2570514678955078,-0.7405977249145508,-0.33167266845703125
251,275933856.0,9.478933334350586,-2.077033042907715,2.226675033569336,0.025567054748535156,-0.02769756317138672,0.07563591003417969,0.5248479843139648,-0.2570514678955078,-0.7405977249145508,-0.33167266845703125
252,275933856.0,9.478933334350586,-2.077033042907715,2.226675033569336,0.025567054748535156,-0.02769756317138672,0.07563591003417969,0.5248479843139648,-0.2570514678955078,-0.7405977249145508,-0.33167266845703125
253,275933888.0,9.54716968536377,-1.941756248474121,2.351177215576172,0.025567054748535156,-0.02769756317138672,0.07563591003417969,0.5248479843139648,-0.2570514678955078,-0.7405977249145508,-0.33167266845703125
254,275933888.0,9.669278144836426,-1.952530860900879,2.84320068359375,0.025567054748535156,-0.02769756317138672,0.07563591003417969,0.5248479843139648,-0.2570514678955078,-0.7405977249145508,-0.33167266845703125
255,275933888.0,9.54716968536377,-1.941756248474121,2.351177215576172,0.025567054748535156,-0.02769756317138672,0.07563591003417969,0.5248479843139648,-0.2570514678955078,-0.7405977249145508,-0.33167266845703125
256,275933888.0,9.669278144836426,-1.952530860900879,2.84320068359375,0.025567054748535156,-0.02769756317138672,0.07563591003417969,0.5248479843139648,-0.2570514678955078,-0.7405977249145508,-0.33167266845703125
257,275933920.0,9.993701934814453,-2.157240867614746,2.449342727661133,0.025567054748535156,-0.02769756317138672,0.07563591003417969,0.5248479843139648,-0.2570514678955078,-0.7405977249145508,-0.33167266845703125
258,275933920.0,10.939440727233887,-2.716303825378418,2.8372154235839844,0.025567054748535156,-0.02769756317138672,0.07563591003417969,0.5248479843139648,-0.2570514678955078,-0.7405977249145508,-0.33167266845703125
259,275933920.0,9.993701934814453,-2.157240867614746,2.449342727661133,0.025567054748535156,-0.02769756317138672,0.07563591003417969,0.5248479843139648,-0.2570514678955078,-0.7405977249145508,-0.33167266845703125
260,275933920.0,10.939440727233887,-2.716303825378418,2.8372154235839844,0.025567054748535156,-0.02769756317138672,0.07563591003417969,0.5248479843139648,-0.2570514678955078,-0.7405977249145508,-0.33167266845703125
261,275933952.0,11.761874198913574,-2.502017021179199,4.0080156326293945,-0.8682165145874023,-0.3068046569824219,0.47512149810791016,0.5248479843139648,-0.2570514678955078,-0.7405977249145508,-0.33167266845703125
262,275933984.0,11.512869834899902,-3.5112037658691406,3.802107810974121,-1.5947494506835938,-0.11824703216552734,1.4243011474609375,0.5248479843139648,-0.2570514678955078,-0.7405977249145508,-0.33167266845703125
263,275933984.0,11.93785285949707,-4.5598955154418945,4.836434364318848,-1.5947494506835938,-0.11824703216552734,1.4243011474609375,0.5248479843139648,-0.2570514678955078,-0.7405977249145508,-0.33167266845703125
264,275934016.0,12.085101127624512,-9.943422317504883,6.774600028991699,-0.9619626998901367,0.1896219253540039,2.4555091857910156,0.5248479843139648,-0.2570514678955078,-0.7405977249145508,-0.33167266845703125
265,275934016.0,12.404736518859863,-11.8660249710083,7.8795576095581055,-0.9619626998901367,0.1896219253540039,2.4555091857910156,0.5248479843139648,-0.2570514678955078,-0.7405977249145508,-0.33167266845703125
266,275934144.0,22.03570556640625,-34.758880615234375,0.34597206115722656,-0.9619626998901367,0.1896219253540039,2.4555091857910156,0.3597679138183594,-0.11708927154541016,-0.7452163696289062,-0.5490608215332031
267,275934144.0,22.03570556640625,-34.758880615234375,0.34597206115722656,-0.9619626998901367,0.1896219253540039,2.4555091857910156,0.3597679138183594,-0.11708927154541016,-0.7452163696289062,-0.5490608215332031
268,275934176.0,24.92200469970703,-39.226600646972656,-4.01400089263916,-0.9619626998901367,0.1896219253540039,2.4555091857910156,0.3597679138183594,-0.11708927154541016,-0.7452163696289062,-0.5490608215332031
269,275934176.0,24.92200469970703,-39.226600646972656,-4.01400089263916,-0.9619626998901367,0.1896219253540039,2.4555091857910156,0.3597679138183594,-0.11708927154541016,-0.7452163696289062,-0.5490608215332031
270,275934208.0,26.78714370727539,-30.646717071533203,-7.552739143371582,-0.9619626998901367,0.1896219253540039,2.4555091857910156,0.3597679138183594,-0.11708927154541016,-0.7452163696289062,-0.5490608215332031
271,275934208.0,25.394874572753906,-19.84853744506836,-10.611425399780273,-0.9619626998901367,0.1896219253540039,2.4555091857910156,0.3597679138183594,-0.11708927154541016,-0.7452163696289062,-0.5490608215332031
272,275934208.0,26.78714370727539,-30.646717071533203,-7.552739143371582,-0.9619626998901367,0.1896219253540039,2.4555091857910156,0.3597679138183594,-0.11708927154541016,-0.7452163696289062,-0.5490608215332031
273,275934208.0,25.394874572753906,-19.84853744506836,-10.611425399780273,-0.9619626998901367,0.1896219253540039,2.4555091857910156,0.3597679138183594,-0.11708927154541016,-0.7452163696289062,-0.5490608215332031
274,275934240.0,24.371322631835938,-10.605439186096191,-11.547586441040039,4.520054817199707,0.9853992462158203,12.651466369628906,0.3597679138183594,-0.11708927154541016,-0.7452163696289062,-0.5490608215332031
275,275934240.0,24.371322631835938,-10.605439186096191,-11.547586441040039,4.520054817199707,0.9853992462158203,12.651466369628906,0.3597679138183594,-0.11708927154541016,-0.7452163696289062,-0.5490608215332031
276,275934336.0,9.824905395507812,8.504463195800781,-5.864775657653809,5.224215507507324,2.0400428771972656,8.634231567382812,0.3597679138183594,-0.11708927154541016,-0.7452163696289062,-0.5490608215332031
277,275934336.0,9.824905395507812,8.504463195800781,-5.864775657653809,5.224215507507324,2.0400428771972656,8.634231567382812,0.3597679138183594,-0.11708927154541016,-0.7452163696289062,-0.5490608215332031
278,275934368.0,7.30612850189209,9.26584243774414,-5.344020843505859,5.224215507507324,2.0400428771972656,8.634231567382812,0.3597679138183594,-0.11708927154541016,-0.7452163696289062,-0.5490608215332031
279,275934368.0,7.30612850189209,9.26584243774414,-5.344020843505859,5.224215507507324,2.0400428771972656,8.634231567382812,0.3597679138183594,-0.11708927154541016,-0.7452163696289062,-0.5490608215332031
280,275934400.0,6.429823875427246,10.52762508392334,-4.555107116699219,5.224215507507324,2.0400428771972656,8.634231567382812,0.3597679138183594,-0.11708927154541016,-0.7452163696289062,-0.5490608215332031
281,275934400.0,4.800519943237305,10.97774887084961,-4.471307754516602,5.224215507507324,2.0400428771972656,8.634231567382812,0.3597679138183594,-0.11708927154541016,-0.7452163696289062,-0.5490608215332031
282,275934400.0,6.429823875427246,10.52762508392334,-4.555107116699219,5.224215507507324,2.0400428771972656,8.634231567382812,0.3597679138183594,-0.11708927154541016,-0.7452163696289062,-0.5490608215332031
283,275934400.0,4.800519943237305,10.97774887084961,-4.471307754516602,5.224215507507324,2.0400428771972656,8.634231567382812,0.3597679138183594,-0.11708927154541016,-0.7452163696289062,-0.5490608215332031
284,275934432.0,4.534755706787109,10.603045463562012,-3.5662717819213867,5.224215507507324,2.0400428771972656,8.634231567382812,0.3597679138183594,-0.11708927154541016,-0.7452163696289062,-0.5490608215332031
285,275934432.0,4.534755706787109,10.603045463562012,-3.5662717819213867,5.224215507507324,2.0400428771972656,8.634231567382812,0.3597679138183594,-0.11708927154541016,-0.7452163696289062,-0.5490608215332031
286,275934560.0,7.180429458618164,8.552349090576172,-0.4597005844116211,-0.9417219161987305,-0.8735427856445312,-4.175963401794434,0.3597679138183594,-0.11708927154541016,-0.7452163696289062,-0.5490608215332031
287,275934560.0,8.036382675170898,7.574287414550781,-1.5862064361572266,-0.9417219161987305,-0.8735427856445312,-4.175963401794434,0.3597679138183594,-0.11708927154541016,-0.7452163696289062,-0.5490608215332031
288,275934560.0,7.180429458618164,8.552349090576172,-0.4597005844116211,-0.9417219161987305,-0.8735427856445312,-4.175963401794434,0.3597679138183594,-0.11708927154541016,-0.7452163696289062,-0.5490608215332031
289,275934560.0,8.036382675170898,7.574287414550781,-1.5862064361572266,-0.9417219161987305,-0.8735427856445312,-4.175963401794434,0.3597679138183594,-0.11708927154541016,-0.7452163696289062,-0.5490608215332031
290,275934592.0,9.683643341064453,5.907872200012207,-2.445751190185547,-0.9417219161987305,-0.8735427856445312,-4.175963401794434,0.3597679138183594,-0.11708927154541016,-0.7452163696289062,-0.5490608215332031
291,275934592.0,9.683643341064453,5.907872200012207,-2.445751190185547,-0.9417219161987305,-0.8735427856445312,-4.175963401794434,0.3597679138183594,-0.11708927154541016,-0.7452163696289062,-0.5490608215332031
292,275934624.0,11.933064460754395,4.345607757568359,-3.313675880432129,-0.9417219161987305,-0.8735427856445312,-4.175963401794434,0.3597679138183594,-0.11708927154541016,-0.7452163696289062,-0.5490608215332031
293,275934624.0,16.29902458190918,4.336030960083008,-4.610175132751465,-0.9417219161987305,-0.8735427856445312,-4.175963401794434,0.3597679138183594,-0.11708927154541016,-0.7452163696289062,-0.5490608215332031
294,275934624.0,11.933064460754395,4.345607757568359,-3.313675880432129,-0.9417219161987305,-0.8735427856445312,-4.175963401794434,0.3597679138183594,-0.11708927154541016,-0.7452163696289062,-0.5490608215332031
295,275934624.0,16.29902458190918,4.336030960083008,-4.610175132751465,-0.9417219161987305,-0.8735427856445312,-4.175963401794434,0.3597679138183594,-0.11708927154541016,-0.7452163696289062,-0.5490608215332031
296,275934848.0,13.761093139648438,-5.365569114685059,5.101001739501953,-26.504587173461914,2.4927940368652344,-2.138050079345703,0.3597679138183594,-0.11708927154541016,-0.7452163696289062,-0.5490608215332031
297,275934880.0,1.8376054763793945,-39.226600646972656,-24.592792510986328,1.8120698928833008,-3.510152816772461,-1.378493309020996,0.3597679138183594,-0.11708927154541016,-0.7452163696289062,-0.5490608215332031
298,275934880.0,12.581912994384766,-29.675838470458984,-1.9968242645263672,1.8120698928833008,-3.510152816772461,-1.378493309020996,0.3597679138183594,-0.11708927154541016,-0.7452163696289062,-0.5490608215332031
299,275934912.0,11.911516189575195,-8.341652870178223,-1.3264274597167969,7.000065803527832,-3.053140640258789,-0.3792448043823242,0.3597679138183594,-0.11708927154541016,-0.7452163696289062,-0.5490608215332031
300,275934944.0,11.054366111755371,-2.8563690185546875,-2.6660242080688477,5.757929801940918,-2.36708927154541,0.9246768951416016,0.49140071868896484,-0.38303089141845703,-0.5624837875366211,-0.5435371398925781
301,275935136.0,9.16648006439209,-2.65285587310791,-0.6967334747314453,5.757929801940918,-2.36708927154541,0.9246768951416016,0.4815177917480469,-0.3453540802001953,-0.6018867492675781,-0.5353803634643555
302,275935168.0,9.040781021118164,-3.069459915161133,0.49322032928466797,5.757929801940918,-2.36708927154541,0.9246768951416016,0.4815177917480469,-0.3453540802001953,-0.6018867492675781,-0.5353803634643555
303,275935200.0,9.111412048339844,-2.7641897201538086,0.17957019805908203,5.757929801940918,-2.36708927154541,0.9246768951416016,0.4815177917480469,-0.3453540802001953,-0.6018867492675781,-0.5353803634643555
304,275935200.0,8.73431396484375,-2.286531448364258,0.029928207397460938,5.757929801940918,-2.36708927154541,0.9246768951416016,0.4815177917480469,-0.3453540802001953,-0.6018867492675781,-0.5353803634643555
305,275935232.0,8.411087036132812,-2.227871894836426,0.5087833404541016,0.0916147232055664,-0.0916147232055664,-0.08735370635986328,0.4815177917480469,-0.3453540802001953,-0.6018867492675781,-0.5353803634643555
306,275935232.0,8.742693901062012,-2.7570066452026367,0.9541177749633789,0.0916147232055664,-0.0916147232055664,-0.08735370635986328,0.4815177917480469,-0.3453540802001953,-0.6018867492675781,-0.5353803634643555
307,275935264.0,9.259857177734375,-3.192765235900879,0.6488475799560547,0.019174575805664062,-0.18216514587402344,-0.08202743530273438,0.4815177917480469,-0.3453540802001953,-0.6018867492675781,-0.5353803634643555
308,275935296.0,9.390344619750977,-2.9030580520629883,0.041899681091308594,-0.13955307006835938,-0.040480613708496094,-0.07989692687988281,0.4815177917480469,-0.3453540802001953,-0.6018867492675781,-0.5353803634643555
309,275935296.0,9.397527694702148,-2.806089401245117,-0.05865955352783203,-0.13955307006835938,-0.040480613708496094,-0.07989692687988281,0.4815177917480469,-0.3453540802001953,-0.6018867492675781,-0.5353803634643555
310,275935328.0,9.587872505187988,-3.5171890258789062,0.519556999206543,-0.28017234802246094,-0.0021305084228515625,-0.1097249984741211,0.4815177917480469,-0.3453540802001953,-0.6018867492675781,-0.5353803634643555
311,275935360.0,9.709980964660645,-3.6021862030029297,0.33759212493896484,-0.0809621810913086,0.0862884521484375,-0.10226821899414062,0.4815177917480469,-0.3453540802001953,-0.6018867492675781,-0.5353803634643555
312,275935360.0,9.466961860656738,-3.22269344329834,0.22146987915039062,-0.0809621810913086,0.0862884521484375,-0.10226821899414062,0.4815177917480469,-0.3453540802001953,-0.6018867492675781,-0.5353803634643555
313,275935392.0,9.141340255737305,-3.184385299682617,0.4369544982910156,-0.322784423828125,0.0,-0.1438150405883789,0.4815177917480469,-0.3453540802001953,-0.6018867492675781,-0.5353803634643555
314,275935392.0,9.057540893554688,-3.8918933868408203,0.7434215545654297,-0.322784423828125,0.0,-0.1438150405883789,0.4815177917480469,-0.3453540802001953,-0.6018867492675781,-0.5353803634643555
315,275935424.0,9.168874740600586,-4.077449798583984,0.5865964889526367,-0.14594554901123047,-0.05965614318847656,-0.15979385375976562,0.4815177917480469,-0.3453540802001953,-0.6018867492675781,-0.5353803634643555
316,275935456.0,9.161691665649414,-3.6955623626708984,0.587794303894043,-0.14594554901123047,-0.05965614318847656,-0.15979385375976562,0.4815177917480469,-0.3453540802001953,-0.6018867492675781,-0.5353803634643555
317,275935456.0,9.162888526916504,-3.7242937088012695,0.6189193725585938,-0.14594554901123047,-0.05965614318847656,-0.15979385375976562,0.4815177917480469,-0.3453540802001953,-0.6018867492675781,-0.5353803634643555
318,275935488.0,9.233519554138184,-4.029563903808594,0.7601814270019531,-0.14594554901123047,-0.05965614318847656,-0.15979385375976562,0.4815177917480469,-0.3453540802001953,-0.6018867492675781,-0.5353803634643555
319,275935520.0,9.149720191955566,-3.9864673614501953,0.708704948425293,-0.14594554901123047,-0.05965614318847656,-0.15979385375976562,0.4815177917480469,-0.3453540802001953,-0.6018867492675781,-0.5353803634643555
320,275935520.0,9.148523330688477,-3.713520050048828,0.8930635452270508,-0.14594554901123047,-0.05965614318847656,-0.15979385375976562,0.4815177917480469,-0.3453540802001953,-0.6018867492675781,-0.5353803634643555
321,275935552.0,9.293376922607422,-3.5734548568725586,0.8571500778198242,0.13529205322265625,-0.03728485107421875,-0.0692434310913086,0.4815177917480469,-0.3453540802001953,-0.6018867492675781,-0.5353803634643555
322,275935552.0,9.267040252685547,-3.7637996673583984,0.7960958480834961,0.13529205322265625,-0.03728485107421875,-0.0692434310913086,0.4815177917480469,-0.3453540802001953,-0.6018867492675781,-0.5353803634643555
323,275935584.0,9.129368782043457,-3.860767364501953,0.8643331527709961,0.12037849426269531,-0.007456779479980469,-0.07989692687988281,0.4815177917480469,-0.3453540802001953,-0.6018867492675781,-0.5353803634643555
324,275935616.0,9.142537117004395,-3.7925310134887695,0.7446193695068359,0.12357425689697266,0.007456779479980469,-0.0745706558227539,0.4815177917480469,-0.3453540802001953,-0.6018867492675781,-0.5353803634643555
325,275935616.0,9.222745895385742,-3.7195053100585938,0.7122964859008789,0.12357425689697266,0.007456779479980469,-0.0745706558227539,0.4815177917480469,-0.3453540802001953,-0.6018867492675781,-0.5353803634643555
326,275935648.0,9.192817687988281,-3.7877416610717773,0.7482099533081055,0.07989692687988281,0.03621959686279297,-0.07989692687988281,0.4815177917480469,-0.3453540802001953,-0.6018867492675781,-0.5353803634643555
327,275935680.0,9.142537117004395,-3.915835380554199,0.8116588592529297,0.11824703216552734,0.040480613708496094,-0.07350540161132812,0.4815177917480469,-0.3453540802001953,-0.6018867492675781,-0.5353803634643555
328,275935680.0,9.171268463134766,-3.8739356994628906,0.5853996276855469,0.11824703216552734,0.040480613708496094,-0.07350540161132812,0.4815177917480469,-0.3453540802001953,-0.6018867492675781,-0.5353803634643555
329,275935680.0,9.135354995727539,-3.915835380554199,0.6943387985229492,0.11824703216552734,0.040480613708496094,-0.07350540161132812,0.4815177917480469,-0.3453540802001953,-0.6018867492675781,-0.5353803634643555
330,275935680.0,9.180846214294434,-3.809290885925293,0.5818080902099609,0.11824703216552734,0.040480613708496094,-0.07350540161132812,0.4815177917480469,-0.3453540802001953,-0.6018867492675781,-0.5353803634643555
331,275935680.0,9.142537117004395,-3.915835380554199,0.8116588592529297,0.11824703216552734,0.040480613708496094,-0.07350540161132812,0.4815177917480469,-0.3453540802001953,-0.6018867492675781,-0.5353803634643555
332,275935680.0,9.171268463134766,-3.8739356994628906,0.5853996276855469,0.11824703216552734,0.040480613708496094,-0.07350540161132812,0.4815177917480469,-0.3453540802001953,-0.6018867492675781,-0.5353803634643555
333,275935680.0,9.135354995727539,-3.915835380554199,0.6943387985229492,0.11824703216552734,0.040480613708496094,-0.07350540161132812,0.4815177917480469,-0.3453540802001953,-0.6018867492675781,-0.5353803634643555
334,275935680.0,9.180846214294434,-3.809290885925293,0.5818080902099609,0.11824703216552734,0.040480613708496094,-0.07350540161132812,0.4815177917480469,-0.3453540802001953,-0.6018867492675781,-0.5353803634643555
335,275935712.0,9.190423011779785,-3.7578134536743164,0.6237077713012695,0.05539512634277344,0.07563591003417969,-0.04900360107421875,0.4815177917480469,-0.3453540802001953,-0.6018867492675781,-0.5353803634643555
336,275935712.0,9.103032112121582,-3.8296422958374023,0.7338447570800781,0.05539512634277344,0.07563591003417969,-0.04900360107421875,0.4815177917480469,-0.3453540802001953,-0.6018867492675781,-0.5353803634643555
337,275935712.0,9.155706405639648,-3.7566165924072266,0.6500453948974609,0.05539512634277344,0.07563591003417969,-0.04900360107421875,0.4815177917480469,-0.3453540802001953,-0.6018867492675781,-0.5353803634643555
338,275935712.0,9.190423011779785,-3.7578134536743164,0.6237077713012695,0.05539512634277344,0.07563591003417969,-0.04900360107421875,0.4815177917480469,-0.3453540802001953,-0.6018867492675781,-0.5353803634643555
339,275935712.0,9.103032112121582,-3.8296422958374023,0.7338447570800781,0.05539512634277344,0.07563591003417969,-0.04900360107421875,0.4815177917480469,-0.3453540802001953,-0.6018867492675781,-0.5353803634643555
340,275935712.0,9.155706405639648,-3.7566165924072266,0.6500453948974609,0.05539512634277344,0.07563591003417969,-0.04900360107421875,0.4815177917480469,-0.3453540802001953,-0.6018867492675781,-0.5353803634643555
341,275935872.0,9.16408634185791,-3.7278852462768555,0.5722312927246094,0.06391716003417969,0.011717796325683594,0.06817817687988281,0.4815177917480469,-0.3453540802001953,-0.6018867492675781,-0.5353803634643555
342,275935872.0,9.057540893554688,-3.674014091491699,0.5698366165161133,0.06391716003417969,0.011717796325683594,0.06817817687988281,0.4815177917480469,-0.3453540802001953,-0.6018867492675781,-0.5353803634643555
343,275935872.0,9.137748718261719,-3.708730697631836,0.5363168716430664,0.06391716003417969,0.011717796325683594,0.06817817687988281,0.4815177917480469,-0.3453540802001953,-0.6018867492675781,-0.5353803634643555
344,275935872.0,9.018034934997559,-3.623734474182129,0.610539436340332,0.06391716003417969,0.011717796325683594,0.06817817687988281,0.4815177917480469,-0.3453540802001953,-0.6018867492675781,-0.5353803634643555
345,275935904.0,9.022823333740234,-3.621339797973633,0.6428623199462891,0.06391716003417969,0.011717796325683594,0.06817817687988281,0.4815177917480469,-0.3453540802001953,-0.6018867492675781,-0.5353803634643555
346,275935904.0,9.09465217590332,-3.646479606628418,0.5458946228027344,0.06391716003417969,0.011717796325683594,0.06817817687988281,0.4815177917480469,-0.3453540802001953,-0.6018867492675781,-0.5353803634643555
347,275935904.0,9.061132431030273,-3.645282745361328,0.6213140487670898,0.06391716003417969,0.011717796325683594,0.06817817687988281,0.4815177917480469,-0.3453540802001953,-0.6018867492675781,-0.5353803634643555
348,275935936.0,9.083877563476562,-3.593806266784668,0.6572275161743164,0.06391716003417969,0.011717796325683594,0.06817817687988281,0.4815177917480469,-0.3453540802001953,-0.6018867492675781,-0.5353803634643555
349,275935936.0,9.11739730834961,-3.6333112716674805,0.584202766418457,0.06391716003417969,0.011717796325683594,0.06817817687988281,0.4815177917480469,-0.3453540802001953,-0.6018867492675781,-0.5353803634643555
350,275935936.0,9.032401084899902,-3.5052175521850586,0.6620168685913086,0.06391716003417969,0.011717796325683594,0.06817817687988281,0.4815177917480469,-0.3453540802001953,-0.6018867492675781,-0.5353803634643555
351,275935968.0,9.049160957336426,-3.468106269836426,0.6320877075195312,0.06391716003417969,0.011717796325683594,0.06817817687988281,0.4815177917480469,-0.3453540802001953,-0.6018867492675781,-0.5353803634643555
352,275935968.0,9.130566596984863,-3.4716978073120117,0.6177225112915039,0.06391716003417969,0.011717796325683594,0.06817817687988281,0.4815177917480469,-0.3453540802001953,-0.6018867492675781,-0.5353803634643555
353,275936000.0,9.173663139343262,-3.551905632019043,0.6763820648193359,0.06391716003417969,0.011717796325683594,0.06817817687988281,0.4815177917480469,-0.3453540802001953,-0.6018867492675781,-0.5353803634643555
354,275936000.0,9.123383522033691,-3.5734548568725586,0.6069478988647461,0.06391716003417969,0.011717796325683594,0.06817817687988281,0.4815177917480469,-0.3453540802001953,-0.6018867492675781,-0.5353803634643555
355,275936032.0,9.103032112121582,-3.5339488983154297,0.6261024475097656,0.06391716003417969,0.011717796325683594,0.06817817687988281,0.4815177917480469,-0.3453540802001953,-0.6018867492675781,-0.5353803634643555
356,275936032.0,9.178451538085938,-3.58303165435791,0.7003250122070312,0.06391716003417969,0.011717796325683594,0.06817817687988281,0.4815177917480469,-0.3453540802001953,-0.6018867492675781,-0.5353803634643555
357,275936160.0,9.130566596984863,-3.4860639572143555,0.8679237365722656,0.08948421478271484,-0.03835010528564453,0.034089088439941406,0.4815177917480469,-0.3453540802001953,-0.6018867492675781,-0.5353803634643555
358,275936160.0,9.130566596984863,-3.4860639572143555,0.8679237365722656,0.08948421478271484,-0.03835010528564453,0.034089088439941406,0.4815177917480469,-0.3453540802001953,-0.6018867492675781,-0.5353803634643555
359,275936192.0,9.194014549255371,-3.468106269836426,0.8104610443115234,0.06604766845703125,-0.022370338439941406,0.02769756317138672,0.4815177917480469,-0.3453540802001953,-0.6018867492675781,-0.5353803634643555
360,275936192.0,9.1868314743042,-3.5016260147094727,0.8248271942138672,0.06604766845703125,-0.022370338439941406,0.02769756317138672,0.4815177917480469,-0.3453540802001953,-0.6018867492675781,-0.5353803634643555
361,275936192.0,9.194014549255371,-3.468106269836426,0.8104610443115234,0.06604766845703125,-0.022370338439941406,0.02769756317138672,0.4815177917480469,-0.3453540802001953,-0.6018867492675781,-0.5353803634643555
362,275936192.0,9.1868314743042,-3.5016260147094727,0.8248271942138672,0.06604766845703125,-0.022370338439941406,0.02769756317138672,0.4815177917480469,-0.3453540802001953,-0.6018867492675781,-0.5353803634643555
363,275936224.0,9.153311729431152,-3.5351457595825195,0.8367986679077148,0.0692434310913086,-0.0063915252685546875,-0.022370338439941406,0.4815177917480469,-0.3453540802001953,-0.6018867492675781,-0.5353803634643555
364,275936224.0,9.153311729431152,-3.5351457595825195,0.8367986679077148,0.0692434310913086,-0.0063915252685546875,-0.022370338439941406,0.4815177917480469,-0.3453540802001953,-0.6018867492675781,-0.5353803634643555
365,275936256.0,9.11500358581543,-3.5782432556152344,0.8834867477416992,0.09374523162841797,-0.005326271057128906,-0.033023834228515625,0.4815177917480469,-0.3453540802001953,-0.6018867492675781,-0.5353803634643555
366,275936256.0,9.11500358581543,-3.5782432556152344,0.8834867477416992,0.09374523162841797,-0.005326271057128906,-0.033023834228515625,0.4815177917480469,-0.3453540802001953,-0.6018867492675781,-0.5353803634643555
367,275936256.0,9.09345531463623,-3.493246078491211,0.9062328338623047,0.09374523162841797,-0.005326271057128906,-0.033023834228515625,0.4815177917480469,-0.3453540802001953,-0.6018867492675781,-0.5353803634643555
368,275936256.0,9.09345531463623,-3.493246078491211,0.9062328338623047,0.09374523162841797,-0.005326271057128906,-0.033023834228515625,0.4815177917480469,-0.3453540802001953,-0.6018867492675781,-0.5353803634643555
369,275936288.0,9.148523330688477,-3.4693031311035156,0.8858814239501953,0.004261016845703125,0.0021305084228515625,-0.020239830017089844,0.4815177917480469,-0.3453540802001953,-0.6018867492675781,-0.5353803634643555
370,275936288.0,9.148523330688477,-3.4693031311035156,0.8858814239501953,0.004261016845703125,0.0021305084228515625,-0.020239830017089844,0.4815177917480469,-0.3453540802001953,-0.6018867492675781,-0.5353803634643555
371,275936320.0,9.131763458251953,-3.587820053100586,0.8427839279174805,0.014913558959960938,0.011717796325683594,-0.0287628173828125,0.4815177917480469,-0.3453540802001953,-0.6018867492675781,-0.5353803634643555
372,275936320.0,9.038386344909668,-3.6668310165405273,0.8691215515136719,0.014913558959960938,0.011717796325683594,-0.0287628173828125,0.4815177917480469,-0.3453540802001953,-0.6018867492675781,-0.5353803634643555
373,275936320.0,9.131763458251953,-3.587820053100586,0.8427839279174805,0.014913558959960938,0.011717796325683594,-0.0287628173828125,0.4815177917480469,-0.3453540802001953,-0.6018867492675781,-0.5353803634643555
374,275936320.0,9.038386344909668,-3.6668310165405273,0.8691215515136719,0.014913558959960938,0.011717796325683594,-0.0287628173828125,0.4815177917480469,-0.3453540802001953,-0.6018867492675781,-0.5353803634643555
375,275936352.0,9.071906089782715,-3.715913772583008,0.8990497589111328,0.05859088897705078,-0.004261016845703125,-0.030893325805664062,0.4815177917480469,-0.3453540802001953,-0.6018867492675781,-0.5353803634643555
376,275936352.0,9.071906089782715,-3.715913772583008,0.8990497589111328,0.05859088897705078,-0.004261016845703125,-0.030893325805664062,0.4815177917480469,-0.3453540802001953,-0.6018867492675781,-0.5353803634643555
377,275936576.0,9.110215187072754,-3.553103446960449,0.8583469390869141,0.007456779479980469,0.010652542114257812,-0.0170440673828125,0.46926021575927734,-0.3056907653808594,-0.6718463897705078,-0.4847116470336914
378,275936576.0,9.039584159851074,-3.58303165435791,0.888275146484375,0.007456779479980469,0.010652542114257812,-0.0170440673828125,0.46926021575927734,-0.3056907653808594,-0.6718463897705078,-0.4847116470336914
379,275936608.0,9.008458137512207,-3.6620426177978516,0.8164472579956055,0.033023834228515625,-0.0170440673828125,-0.031958580017089844,0.46926021575927734,-0.3056907653808594,-0.6718463897705078,-0.4847116470336914
380,275936608.0,9.231125831604004,-3.6369028091430664,0.8834867477416992,0.033023834228515625,-0.0170440673828125,-0.031958580017089844,0.46926021575927734,-0.3056907653808594,-0.6718463897705078,-0.4847116470336914
381,275936640.0,9.226337432861328,-3.5447235107421875,0.8451786041259766,0.03621959686279297,0.024501800537109375,-0.03941535949707031,0.46926021575927734,-0.3056907653808594,-0.6718463897705078,-0.4847116470336914
382,275936768.0,9.138946533203125,-3.5770463943481445,0.8116588592529297,0.03621959686279297,0.024501800537109375,-0.03941535949707031,0.47098636627197266,-0.30698585510253906,-0.6718463897705078,-0.4822092056274414
383,275936768.0,9.171268463134766,-3.677605628967285,0.8020811080932617,0.03621959686279297,0.024501800537109375,-0.03941535949707031,0.47098636627197266,-0.30698585510253906,-0.6718463897705078,-0.4822092056274414
384,275936800.0,9.152114868164062,-3.6392974853515625,0.835601806640625,0.03621959686279297,0.024501800537109375,-0.03941535949707031,0.47098636627197266,-0.30698585510253906,-0.6718463897705078,-0.4822092056274414
385,275936832.0,9.18563461303711,-3.438178062438965,0.8739099502563477,-0.019174575805664062,-0.012783050537109375,0.02769756317138672,0.47098636627197266,-0.30698585510253906,-0.6718463897705078,-0.4822092056274414
386,275936832.0,9.190423011779785,-3.397475242614746,0.8236303329467773,-0.019174575805664062,-0.012783050537109375,0.02769756317138672,0.47098636627197266,-0.30698585510253906,-0.6718463897705078,-0.4822092056274414
387,275936864.0,9.105425834655762,-3.499232292175293,0.8044757843017578,-0.054329872131347656,-0.004261016845703125,0.01597881317138672,0.47098636627197266,-0.30698585510253906,-0.6718463897705078,-0.4822092056274414
388,275936896.0,9.105425834655762,-3.562680244445801,0.8691215515136719,0.013848304748535156,-0.0170440673828125,-0.023435592651367188,0.47098636627197266,-0.30698585510253906,-0.6718463897705078,-0.4822092056274414
389,275936896.0,9.110215187072754,-3.553103446960449,0.8595438003540039,0.013848304748535156,-0.0170440673828125,-0.023435592651367188,0.47098636627197266,-0.30698585510253906,-0.6718463897705078,-0.4822092056274414
390,275936928.0,9.122185707092285,-3.5064144134521484,0.8487701416015625,0.01597881317138672,-0.014913558959960938,-0.024501800537109375,0.47098636627197266,-0.30698585510253906,-0.6718463897705078,-0.4822092056274414
391,275936928.0,9.1437349319458,-3.4429664611816406,0.8631353378295898,0.01597881317138672,-0.014913558959960938,-0.024501800537109375,0.47098636627197266,-0.30698585510253906,-0.6718463897705078,-0.4822092056274414
392,275936960.0,9.126975059509277,-3.5076122283935547,0.8583469390869141,0.01597881317138672,-0.014913558959960938,-0.024501800537109375,0.47098636627197266,-0.30698585510253906,-0.6718463897705078,-0.4822092056274414
393,275936992.0,9.150917053222656,-3.579440116882324,0.8858814239501953,0.01597881317138672,-0.014913558959960938,-0.024501800537109375,0.47098636627197266,-0.30698585510253906,-0.6718463897705078,-0.4822092056274414
394,275936992.0,9.142537117004395,-3.615354537963867,0.8224325180053711,0.01597881317138672,-0.014913558959960938,-0.024501800537109375,0.47098636627197266,-0.30698585510253906,-0.6718463897705078,-0.4822092056274414
395,275937024.0,9.210774421691895,-3.5674686431884766,0.8786983489990234,0.01597881317138672,-0.014913558959960938,-0.024501800537109375,0.47098636627197266,-0.30698585510253906,-0.6718463897705078,-0.4822092056274414
396,275937056.0,9.226337432861328,-3.4776830673217773,0.8571500778198242,0.0010652542114257812,-0.007456779479980469,-0.02982807159423828,0.4731016159057617,-0.306640625,-0.6707248687744141,-0.4819927215576172
397,275937152.0,9.159296989440918,-3.551905632019043,0.8655300140380859,-0.019174575805664062,0.005326271057128906,-0.011717796325683594,0.4736194610595703,-0.30728816986083984,-0.6704225540161133,-0.4814748764038086
398,275937184.0,9.195211410522461,-3.518385887145996,0.8535585403442383,-0.019174575805664062,0.005326271057128906,-0.011717796325683594,0.4736194610595703,-0.30728816986083984,-0.6704225540161133,-0.4814748764038086
399,275937216.0,9.16648006439209,-3.51479434967041,0.8487701416015625,-0.019174575805664062,0.005326271057128906,-0.011717796325683594,0.4736194610595703,-0.30728816986083984,-0.6704225540161133,-0.4814748764038086
400,275937216.0,9.099440574645996,-3.5135974884033203,0.829615592956543,-0.019174575805664062,0.005326271057128906,-0.011717796325683594,0.4736194610595703,-0.30728816986083984,-0.6704225540161133,-0.4814748764038086
401,275937248.0,9.070709228515625,-3.468106269836426,0.8212356567382812,-0.019174575805664062,0.005326271057128906,-0.011717796325683594,0.4733600616455078,-0.3076333999633789,-0.6702499389648438,-0.4817342758178711
402,275937344.0,9.18443775177002,-3.53155517578125,0.799687385559082,0.00852203369140625,-0.0063915252685546875,-0.0287628173828125,0.4736194610595703,-0.30879878997802734,-0.6697750091552734,-0.48138904571533203
403,275937376.0,9.192817687988281,-3.521977424621582,0.8308124542236328,0.00852203369140625,-0.0063915252685546875,-0.0287628173828125,0.4736194610595703,-0.30879878997802734,-0.6697750091552734,-0.48138904571533203
404,275937408.0,9.171268463134766,-3.5112037658691406,0.8224325180053711,0.00852203369140625,-0.0063915252685546875,-0.0287628173828125,0.4736194610595703,-0.30879878997802734,-0.6697750091552734,-0.48138904571533203
405,275937408.0,9.158100128173828,-3.5758485794067383,0.8607416152954102,0.00852203369140625,-0.0063915252685546875,-0.0287628173828125,0.4736194610595703,-0.30879878997802734,-0.6697750091552734,-0.48138904571533203
406,275937440.0,9.173663139343262,-3.4908523559570312,0.8547554016113281,0.00852203369140625,-0.0063915252685546875,-0.0287628173828125,0.4736194610595703,-0.30879878997802734,-0.6697750091552734,-0.48138904571533203
407,275937472.0,9.232322692871094,-3.3783206939697266,0.8463754653930664,-0.01597881317138672,-0.011717796325683594,0.010652542114257812,0.4736194610595703,-0.30879878997802734,-0.6697750091552734,-0.48138904571533203
408,275937472.0,9.217957496643066,-3.474092483520508,0.829615592956543,-0.01597881317138672,-0.011717796325683594,0.010652542114257812,0.4736194610595703,-0.30879878997802734,-0.6697750091552734,-0.48138904571533203
409,275937504.0,9.180846214294434,-3.5459203720092773,0.8320102691650391,0.01810932159423828,-0.0021305084228515625,-0.013848304748535156,0.4736194610595703,-0.30879878997802734,-0.6697750091552734,-0.48138904571533203
410,275937536.0,9.21675968170166,-3.468106269836426,0.8523616790771484,0.0,-0.0063915252685546875,-0.011717796325683594,0.4736194610595703,-0.30879878997802734,-0.6697750091552734,-0.48138904571533203
411,275937536.0,9.251477241516113,-3.452543258666992,0.8703184127807617,0.0,-0.0063915252685546875,-0.011717796325683594,0.4736194610595703,-0.30879878997802734,-0.6697750091552734,-0.48138904571533203
412,275937568.0,9.225139617919922,-3.4752893447875977,0.8379955291748047,-0.020239830017089844,0.009587287902832031,-0.0063915252685546875,0.4736194610595703,-0.30879878997802734,-0.6697750091552734,-0.48138904571533203
413,275937568.0,9.150917053222656,-3.5351457595825195,0.8475723266601562,-0.020239830017089844,0.009587287902832031,-0.0063915252685546875,0.4736194610595703,-0.30879878997802734,-0.6697750091552734,-0.48138904571533203
414,275937600.0,9.161691665649414,-3.5459203720092773,0.8140525817871094,0.0170440673828125,0.0021305084228515625,-0.0010652542114257812,0.4736194610595703,-0.30879878997802734,-0.6697750091552734,-0.48138904571533203
415,275937632.0,9.190423011779785,-3.502823829650879,0.8451786041259766,0.019174575805664062,0.0,0.0,0.4736194610595703,-0.30879878997802734,-0.6697750091552734,-0.48138904571533203
416,275937632.0,9.198802947998047,-3.408249855041504,0.8451786041259766,0.019174575805664062,0.0,0.0,0.4736194610595703,-0.30879878997802734,-0.6697750091552734,-0.48138904571533203
417,275937664.0,9.208379745483398,-3.4513463973999023,0.829615592956543,-0.007456779479980469,-0.0010652542114257812,0.0031957626342773438,0.4736194610595703,-0.30879878997802734,-0.6697750091552734,-0.48138904571533203
418,275937664.0,9.21675968170166,-3.4836692810058594,0.8320102691650391,-0.007456779479980469,-0.0010652542114257812,0.0031957626342773438,0.4736194610595703,-0.30879878997802734,-0.6697750091552734,-0.48138904571533203
419,275937696.0,9.172466278076172,-3.5171890258789062,0.7972927093505859,-0.007456779479980469,-0.0010652542114257812,0.0031957626342773438,0.4736194610595703,-0.30879878997802734,-0.6697750091552734,-0.48138904571533203
420,275937728.0,9.207182884216309,-3.5124006271362305,0.8523616790771484,-0.007456779479980469,-0.0010652542114257812,0.0031957626342773438,0.4736194610595703,-0.30879878997802734,-0.6697750091552734,-0.48138904571533203
421,275937728.0,9.23711109161377,-3.4214181900024414,0.803278923034668,-0.007456779479980469,-0.0010652542114257812,0.0031957626342773438,0.4736194610595703,-0.30879878997802734,-0.6697750091552734,-0.48138904571533203
422,275937760.0,9.225139617919922,-3.4429664611816406,0.8284187316894531,-0.024501800537109375,0.009587287902832031,-0.0021305084228515625,0.4736194610595703,-0.30879878997802734,-0.6697750091552734,-0.48138904571533203
423,275937792.0,9.192817687988281,-3.499232292175293,0.8140525817871094,-0.023435592651367188,0.0021305084228515625,-0.0010652542114257812,0.4736194610595703,-0.30879878997802734,-0.6697750091552734,-0.48138904571533203
424,275937792.0,9.179648399353027,-3.53155517578125,0.8284187316894531,-0.023435592651367188,0.0021305084228515625,-0.0010652542114257812,0.4736194610595703,-0.30879878997802734,-0.6697750091552734,-0.48138904571533203
425,275937824.0,9.198802947998047,-3.536343574523926,0.7960958480834961,0.041545867919921875,-0.00852203369140625,0.0,0.4736194610595703,-0.30879878997802734,-0.6697750091552734,-0.48138904571533203
426,275937824.0,9.198802947998047,-3.456134796142578,0.8763036727905273,0.041545867919921875,-0.00852203369140625,0.0,0.4736194610595703,-0.30879878997802734,-0.6697750091552734,-0.48138904571533203
427,275937856.0,9.16767692565918,-3.4214181900024414,0.8415870666503906,0.0010652542114257812,0.0010652542114257812,-0.0010652542114257812,0.4736194610595703,-0.30879878997802734,-0.6697750091552734,-0.48138904571533203
428,275937856.0,9.16767692565918,-3.4214181900024414,0.8415870666503906,0.0010652542114257812,0.0010652542114257812,-0.0010652542114257812,0.4736194610595703,-0.30879878997802734,-0.6697750091552734,-0.48138904571533203
429,275937888.0,9.156903266906738,-3.489654541015625,0.8320102691650391,-0.004261016845703125,0.0021305084228515625,-0.005326271057128906,0.4736194610595703,-0.30879878997802734,-0.6697750091552734,-0.48138904571533203
430,275937888.0,9.217957496643066,-3.502823829650879,0.8104610443115234,-0.004261016845703125,0.0021305084228515625,-0.005326271057128906,0.4736194610595703,-0.30879878997802734,-0.6697750091552734,-0.48138904571533203
431,275937888.0,9.156903266906738,-3.489654541015625,0.8320102691650391,-0.004261016845703125,0.0021305084228515625,-0.005326271057128906,0.4736194610595703,-0.30879878997802734,-0.6697750091552734,-0.48138904571533203
432,275937888.0,9.217957496643066,-3.502823829650879,0.8104610443115234,-0.004261016845703125,0.0021305084228515625,-0.005326271057128906,0.4736194610595703,-0.30879878997802734,-0.6697750091552734,-0.48138904571533203
433,275937920.0,9.277813911437988,-3.5171890258789062,0.8391923904418945,0.03621959686279297,0.00852203369140625,-0.012783050537109375,0.4736194610595703,-0.30879878997802734,-0.6697750091552734,-0.48138904571533203
434,275937920.0,9.277813911437988,-3.5171890258789062,0.8391923904418945,0.03621959686279297,0.00852203369140625,-0.012783050537109375,0.4736194610595703,-0.30879878997802734,-0.6697750091552734,-0.48138904571533203
435,275937952.0,9.176057815551758,-3.5100059509277344,0.8104610443115234,0.03728485107421875,0.0031957626342773438,-0.011717796325683594,0.4736194610595703,-0.30879878997802734,-0.6697750091552734,-0.48138904571533203
436,275937952.0,9.176057815551758,-3.5100059509277344,0.8104610443115234,0.03728485107421875,0.0031957626342773438,-0.011717796325683594,0.4736194610595703,-0.30879878997802734,-0.6697750091552734,-0.48138904571533203
437,275938048.0,9.156903266906738,-3.5758485794067383,0.8547554016113281,0.012783050537109375,-0.00852203369140625,0.03515434265136719,0.4736194610595703,-0.30879878997802734,-0.6697750091552734,-0.48138904571533203
438,275938048.0,9.156903266906738,-3.5758485794067383,0.8547554016113281,0.012783050537109375,-0.00852203369140625,0.03515434265136719,0.4736194610595703,-0.30879878997802734,-0.6697750091552734,-0.48138904571533203
439,275938080.0,9.176057815551758,-3.521977424621582,0.8846836090087891,0.026632308959960938,-0.0021305084228515625,0.04367637634277344,0.4736194610595703,-0.30879878997802734,-0.6697750091552734,-0.48138904571533203
440,275938080.0,9.171268463134766,-3.434586524963379,0.855952262878418,0.026632308959960938,-0.0021305084228515625,0.04367637634277344,0.4736194610595703,-0.30879878997802734,-0.6697750091552734,-0.48138904571533203
441,275938080.0,9.176057815551758,-3.521977424621582,0.8846836090087891,0.026632308959960938,-0.0021305084228515625,0.04367637634277344,0.4736194610595703,-0.30879878997802734,-0.6697750091552734,-0.48138904571533203
442,275938080.0,9.171268463134766,-3.434586524963379,0.855952262878418,0.026632308959960938,-0.0021305084228515625,0.04367637634277344,0.4736194610595703,-0.30879878997802734,-0.6697750091552734,-0.48138904571533203
443,275938112.0,9.210774421691895,-3.4214181900024414,0.8332071304321289,-0.01810932159423828,0.012783050537109375,0.04474163055419922,0.4736194610595703,-0.30879878997802734,-0.6697750091552734,-0.48138904571533203
444,275938112.0,9.172466278076172,-3.4908523559570312,0.8487701416015625,-0.01810932159423828,0.012783050537109375,0.04474163055419922,0.4736194610595703,-0.30879878997802734,-0.6697750091552734,-0.48138904571533203
445,275938112.0,9.210774421691895,-3.4214181900024414,0.8332071304321289,-0.01810932159423828,0.012783050537109375,0.04474163055419922,0.4736194610595703,-0.30879878997802734,-0.6697750091552734,-0.48138904571533203
446,275938112.0,9.172466278076172,-3.4908523559570312,0.8487701416015625,-0.01810932159423828,0.012783050537109375,0.04474163055419922,0.4736194610595703,-0.30879878997802734,-0.6697750091552734,-0.48138904571533203
447,275938144.0,9.198802947998047,-3.4728946685791016,0.7913074493408203,-0.0021305084228515625,0.00852203369140625,0.0287628173828125,0.4736194610595703,-0.30879878997802734,-0.6697750091552734,-0.48138904571533203
448,275938176.0,9.16767692565918,-3.441769599914551,0.8379955291748047,-0.0021305084228515625,0.00852203369140625,0.0287628173828125,0.4736194610595703,-0.30879878997802734,-0.6697750091552734,-0.48138904571533203
449,275938176.0,9.155706405639648,-3.4393749237060547,0.8104610443115234,-0.0021305084228515625,0.00852203369140625,0.0287628173828125,0.4736194610595703,-0.30879878997802734,-0.6697750091552734,-0.48138904571533203
450,275938208.0,9.16408634185791,-3.390292167663574,0.8200387954711914,-0.0021305084228515625,0.00852203369140625,0.0287628173828125,0.4736194610595703,-0.30879878997802734,-0.6697750091552734,-0.48138904571533203
451,275938240.0,9.16408634185791,-3.4513463973999023,0.8248271942138672,-0.0021305084228515625,0.00852203369140625,0.0287628173828125,0.4736194610595703,-0.30879878997802734,-0.6697750091552734,-0.48138904571533203
452,275938240.0,9.134157180786133,-3.5159921646118164,0.7829275131225586,-0.0021305084228515625,0.00852203369140625,0.0287628173828125,0.4736194610595703,-0.30879878997802734,-0.6697750091552734,-0.48138904571533203
453,275938272.0,9.135354995727539,-3.460923194885254,0.8200387954711914,-0.0021305084228515625,0.00852203369140625,0.0287628173828125,0.4736194610595703,-0.30879878997802734,-0.6697750091552734,-0.48138904571533203
454,275938304.0,9.190423011779785,-3.402263641357422,0.803278923034668,-0.0021305084228515625,0.00852203369140625,0.0287628173828125,0.4736194610595703,-0.30879878997802734,-0.6697750091552734,-0.48138904571533203
455,275938304.0,9.222745895385742,-3.3914899826049805,0.8164472579956055,-0.0021305084228515625,0.00852203369140625,0.0287628173828125,0.4736194610595703,-0.30879878997802734,-0.6697750091552734,-0.48138904571533203
456,275938336.0,9.162888526916504,-3.3603639602661133,0.8451786041259766,-0.0021305084228515625,0.00852203369140625,0.0287628173828125,0.4736194610595703,-0.30879878997802734,-0.6697750091552734,-0.48138904571533203
457,275938336.0,9.179648399353027,-3.489654541015625,0.8224325180053711,-0.0021305084228515625,0.00852203369140625,0.0287628173828125,0.4736194610595703,-0.30879878997802734,-0.6697750091552734,-0.48138904571533203
458,275938368.0,9.222745895385742,-3.438178062438965,0.8403902053833008,0.022370338439941406,-0.014913558959960938,0.0,0.4736194610595703,-0.30879878997802734,-0.6697750091552734,-0.48138904571533203
459,275938400.0,9.195211410522461,-3.2981128692626953,0.8643331527709961,-0.03835010528564453,0.0021305084228515625,-0.0031957626342773438,0.4736194610595703,-0.30879878997802734,-0.6697750091552734,-0.48138904571533203
460,275938400.0,9.176057815551758,-3.3807153701782227,0.8894729614257812,-0.03835010528564453,0.0021305084228515625,-0.0031957626342773438,0.4736194610595703,-0.30879878997802734,-0.6697750091552734,-0.48138904571533203
461,275938432.0,9.155706405639648,-3.4513463973999023,0.894261360168457,-0.01597881317138672,0.0010652542114257812,-0.011717796325683594,0.4736194610595703,-0.30879878997802734,-0.6697750091552734,-0.48138904571533203
462,275938432.0,9.203591346740723,-3.4716978073120117,0.9194011688232422,-0.01597881317138672,0.0010652542114257812,-0.011717796325683594,0.4736194610595703,-0.30879878997802734,-0.6697750091552734,-0.48138904571533203
463,275938464.0,9.210774421691895,-3.426206588745117,0.8954582214355469,-0.01597881317138672,0.0010652542114257812,-0.011717796325683594,0.4736194610595703,-0.30879878997802734,-0.6697750091552734,-0.48138904571533203
464,275938496.0,9.197606086730957,-3.3771238327026367,0.9110212326049805,-0.01597881317138672,0.0010652542114257812,-0.011717796325683594,0.4736194610595703,-0.30879878997802734,-0.6697750091552734,-0.48138904571533203
465,275938496.0,9.202394485473633,-3.398672103881836,0.8655300140380859,-0.01597881317138672,0.0010652542114257812,-0.011717796325683594,0.4736194610595703,-0.30879878997802734,-0.6697750091552734,-0.48138904571533203
466,275938528.0,9.125777244567871,-3.4824724197387695,0.8966550827026367,-0.01597881317138672,0.0010652542114257812,-0.011717796325683594,0.4736194610595703,-0.30879878997802734,-0.6697750091552734,-0.48138904571533203
467,275938560.0,9.221549034118652,-3.46331787109375,0.8487701416015625,-0.007456779479980469,0.0,-0.03515434265136719,0.4736194610595703,-0.30879878997802734,-0.6697750091552734,-0.48138904571533203
468,275938560.0,9.290982246398926,-3.4286012649536133,0.8775014877319336,-0.007456779479980469,0.0,-0.03515434265136719,0.4736194610595703,-0.30879878997802734,-0.6697750091552734,-0.48138904571533203
469,275938560.0,9.275420188903809,-3.459726333618164,0.8415870666503906,-0.007456779479980469,0.0,-0.03515434265136719,0.4736194610595703,-0.30879878997802734,-0.6697750091552734,-0.48138904571533203
470,275938560.0,9.273025512695312,-3.402263641357422,0.8822898864746094,-0.007456779479980469,0.0,-0.03515434265136719,0.4736194610595703,-0.30879878997802734,-0.6697750091552734,-0.48138904571533203
471,275938592.0,9.228731155395508,-3.4286012649536133,0.8535585403442383,-0.06604766845703125,0.024501800537109375,-0.040480613708496094,0.4736194610595703,-0.30879878997802734,-0.6697750091552734,-0.48138904571533203
472,275938592.0,9.194014549255371,-3.518385887145996,0.8691215515136719,-0.06604766845703125,0.024501800537109375,-0.040480613708496094,0.4736194610595703,-0.30879878997802734,-0.6697750091552734,-0.48138904571533203
473,275938592.0,9.18563461303711,-3.4836692810058594,0.8367986679077148,-0.06604766845703125,0.024501800537109375,-0.040480613708496094,0.4736194610595703,-0.30879878997802734,-0.6697750091552734,-0.48138904571533203
474,275938624.0,9.197606086730957,-3.5746517181396484,0.8248271942138672,-0.04687213897705078,0.0287628173828125,-0.04474163055419922,0.4736194610595703,-0.30879878997802734,-0.6697750091552734,-0.48138904571533203
475,275938624.0,9.205986022949219,-3.5339488983154297,0.8367986679077148,-0.04687213897705078,0.0287628173828125,-0.04474163055419922,0.4736194610595703,-0.30879878997802734,-0.6697750091552734,-0.48138904571533203
476,275938624.0,9.179648399353027,-3.58303165435791,0.8451786041259766,-0.04687213897705078,0.0287628173828125,-0.04474163055419922,0.4736194610595703,-0.30879878997802734,-0.6697750091552734,-0.48138904571533203
477,275938848.0,9.395133018493652,-4.51560115814209,0.6440591812133789,-0.28549957275390625,-0.053264617919921875,0.1214437484741211,0.4686565399169922,-0.31125831604003906,-0.6665382385253906,-0.48911380767822266
478,275938848.0,9.395133018493652,-4.51560115814209,0.6440591812133789,-0.28549957275390625,-0.053264617919921875,0.1214437484741211,0.4686565399169922,-0.31125831604003906,-0.6665382385253906,-0.48911380767822266
479,275938880.0,9.57470417022705,-5.0327653884887695,0.6548337936401367,-0.28549957275390625,-0.053264617919921875,0.1214437484741211,0.4686565399169922,-0.31125831604003906,-0.6665382385253906,-0.48911380767822266
480,275938880.0,9.935042381286621,-5.666050910949707,1.4126214981079102,-0.28549957275390625,-0.053264617919921875,0.1214437484741211,0.4686565399169922,-0.31125831604003906,-0.6665382385253906,-0.48911380767822266
481,275938880.0,9.57470417022705,-5.0327653884887695,0.6548337936401367,-0.28549957275390625,-0.053264617919921875,0.1214437484741211,0.4686565399169922,-0.31125831604003906,-0.6665382385253906,-0.48911380767822266
482,275938880.0,9.935042381286621,-5.666050910949707,1.4126214981079102,-0.28549957275390625,-0.053264617919921875,0.1214437484741211,0.4686565399169922,-0.31125831604003906,-0.6665382385253906,-0.48911380767822266
483,275938912.0,10.605439186096191,-6.0156145095825195,2.475679397583008,-0.28549957275390625,-0.053264617919921875,0.1214437484741211,0.4686565399169922,-0.31125831604003906,-0.6665382385253906,-0.48911380767822266
484,275938912.0,10.605439186096191,-6.0156145095825195,2.475679397583008,-0.28549957275390625,-0.053264617919921875,0.1214437484741211,0.4686565399169922,-0.31125831604003906,-0.6665382385253906,-0.48911380767822266
485,275938944.0,11.024436950683594,-6.49446964263916,2.543916702270508,-0.8671512603759766,-0.1608591079711914,1.087667465209961,0.4686565399169922,-0.31125831604003906,-0.6665382385253906,-0.48911380767822266
486,275938944.0,11.024436950683594,-6.49446964263916,2.543916702270508,-0.8671512603759766,-0.1608591079711914,1.087667465209961,0.4686565399169922,-0.31125831604003906,-0.6665382385253906,-0.48911380767822266
487,275939040.0,18.578372955322266,-23.767963409423828,-2.759401321411133,-1.3550567626953125,-0.24501800537109375,4.3410844802856445,0.4686565399169922,-0.31125831604003906,-0.6665382385253906,-0.48911380767822266
488,275939040.0,17.888822555541992,-21.694522857666016,-2.8300323486328125,-1.3550567626953125,-0.24501800537109375,4.3410844802856445,0.4686565399169922,-0.31125831604003906,-0.6665382385253906,-0.48911380767822266
489,275939072.0,20.242395401000977,-24.535329818725586,-0.6835651397705078,-1.3550567626953125,-0.24501800537109375,4.3410844802856445,0.4686565399169922,-0.31125831604003906,-0.6665382385253906,-0.48911380767822266
490,275939072.0,19.93712615966797,-24.170202255249023,-1.5862064361572266,-1.3550567626953125,-0.24501800537109375,4.3410844802856445,0.4686565399169922,-0.31125831604003906,-0.6665382385253906,-0.48911380767822266
491,275939072.0,19.283489227294922,-25.485857009887695,-1.2869224548339844,-1.3550567626953125,-0.24501800537109375,4.3410844802856445,0.4686565399169922,-0.31125831604003906,-0.6665382385253906,-0.48911380767822266
492,275939104.0,18.717243194580078,-26.687782287597656,-2.685178756713867,-1.3550567626953125,-0.24501800537109375,4.3410844802856445,0.4686565399169922,-0.31125831604003906,-0.6665382385253906,-0.48911380767822266
493,275939104.0,19.708473205566406,-25.369735717773438,-5.452960014343262,-1.3550567626953125,-0.24501800537109375,4.3410844802856445,0.4686565399169922,-0.31125831604003906,-0.6665382385253906,-0.48911380767822266
494,275939104.0,19.19011116027832,-26.510604858398438,-4.03315544128418,-1.3550567626953125,-0.24501800537109375,4.3410844802856445,0.4686565399169922,-0.31125831604003906,-0.6665382385253906,-0.48911380767822266
495,275939136.0,18.79745101928711,-21.64783477783203,-7.242680549621582,-1.3550567626953125,-0.24501800537109375,4.3410844802856445,0.4686565399169922,-0.31125831604003906,-0.6665382385253906,-0.48911380767822266
496,275939136.0,19.412778854370117,-23.741626739501953,-6.219127655029297,-1.3550567626953125,-0.24501800537109375,4.3410844802856445,0.4686565399169922,-0.31125831604003906,-0.6665382385253906,-0.48911380767822266
497,275939136.0,18.220430374145508,-20.33218002319336,-8.180039405822754,-1.3550567626953125,-0.24501800537109375,4.3410844802856445,0.4686565399169922,-0.31125831604003906,-0.6665382385253906,-0.48911380767822266
498,275939168.0,17.55362319946289,-13.29540729522705,-8.175250053405762,-1.3550567626953125,-0.24501800537109375,4.3410844802856445,0.4686565399169922,-0.31125831604003906,-0.6665382385253906,-0.48911380767822266
499,275939200.0,15.569968223571777,-3.804502487182617,-7.283383369445801,-1.3550567626953125,-0.24501800537109375,4.3410844802856445,0.4686565399169922,-0.31125831604003906,-0.6665382385253906,-0.48911380767822266
500,275939200.0,14.912739753723145,1.8328170776367188,-6.80333137512207,-1.3550567626953125,-0.24501800537109375,4.3410844802856445,0.4686565399169922,-0.31125831604003906,-0.6665382385253906,-0.48911380767822266
501,275939232.0,13.158933639526367,0.9780607223510742,-4.03195858001709,-1.3550567626953125,-0.24501800537109375,4.3410844802856445,0.4686565399169922,-0.31125831604003906,-0.6665382385253906,-0.48911380767822266
502,275939232.0,10.959792137145996,1.3360052108764648,-1.8974618911743164,-1.3550567626953125,-0.24501800537109375,4.3410844802856445,0.4686565399169922,-0.31125831604003906,-0.6665382385253906,-0.48911380767822266
503,275939360.0,3.1065711975097656,12.903943061828613,-1.325230598449707,3.2672653198242188,-0.6146755218505859,4.412459373474121,-0.514836311340332,0.7002010345458984,-0.4500560760498047,-0.20513248443603516
504,275939392.0,4.697566032409668,12.427482604980469,0.12809276580810547,3.2672653198242188,-0.6146755218505859,4.412459373474121,-0.514836311340332,0.7002010345458984,-0.4500560760498047,-0.20513248443603516
505,275939392.0,4.620949745178223,10.984931945800781,0.7254648208618164,3.2672653198242188,-0.6146755218505859,4.412459373474121,-0.514836311340332,0.7002010345458984,-0.4500560760498047,-0.20513248443603516
506,275939424.0,4.616161346435547,9.205986022949219,0.7338447570800781,3.2672653198242188,-0.6146755218505859,4.412459373474121,-0.514836311340332,0.7002010345458984,-0.4500560760498047,-0.20513248443603516
507,275939456.0,5.569082260131836,8.18482780456543,0.015562057495117188,-2.776163101196289,-0.6935081481933594,-6.168068885803223,-0.514836311340332,0.7002010345458984,-0.4500560760498047,-0.20513248443603516
508,275939456.0,7.000858306884766,7.586258888244629,-1.1312942504882812,-2.776163101196289,-0.6935081481933594,-6.168068885803223,-0.514836311340332,0.7002010345458984,-0.4500560760498047,-0.20513248443603516
509,275939488.0,9.089863777160645,6.427430152893066,-2.1105527877807617,-3.829742431640625,-0.1779041290283203,-9.154095649719238,-0.514836311340332,0.7002010345458984,-0.4500560760498047,-0.20513248443603516
510,275939488.0,11.581106185913086,4.665244102478027,-1.789719581604004,-3.829742431640625,-0.1779041290283203,-9.154095649719238,-0.514836311340332,0.7002010345458984,-0.4500560760498047,-0.20513248443603516
511,275939520.0,15.997345924377441,2.832426071166992,-1.8711252212524414,-4.009777069091797,-0.2354297637939453,-10.911835670471191,-0.514836311340332,0.7002010345458984,-0.4500560760498047,-0.20513248443603516
512,275939648.0,25.059677124023438,6.112583160400391,0.5949764251708984,-4.009777069091797,-0.2354297637939453,-10.911835670471191,0.08135318756103516,0.022873878479003906,-0.7940282821655273,-0.6020164489746094
513,275939648.0,39.226600646972656,22.678569793701172,-17.43271255493164,-4.009777069091797,-0.2354297637939453,-10.911835670471191,0.08135318756103516,0.022873878479003906,-0.7940282821655273,-0.6020164489746094
514,275939680.0,39.226600646972656,-38.10248565673828,-39.226600646972656,-4.009777069091797,-0.2354297637939453,-10.911835670471191,0.08135318756103516,0.022873878479003906,-0.7940282821655273,-0.6020164489746094
515,275939712.0,18.717243194580078,-36.445648193359375,-35.157527923583984,-4.009777069091797,-0.2354297637939453,-10.911835670471191,0.08135318756103516,0.022873878479003906,-0.7940282821655273,-0.6020164489746094
516,275939712.0,-1.5826148986816406,-11.011268615722656,-17.612285614013672,-4.009777069091797,-0.2354297637939453,-10.911835670471191,0.08135318756103516,0.022873878479003906,-0.7940282821655273,-0.6020164489746094
517,275939744.0,-2.2063236236572266,39.03984451293945,36.45283126831055,-17.55396270751953,-2.3330001831054688,2.3180856704711914,0.4673185348510742,-0.5147075653076172,-0.6171646118164062,-0.3685731887817383
518,275939776.0,-0.47167205810546875,-13.525257110595703,-9.914690971374512,-11.517990112304688,-7.119379043579102,0.8245391845703125,0.3646879196166992,-0.523554801940918,-0.45691776275634766,-0.6197547912597656
519,275939776.0,12.480156898498535,-39.226600646972656,-18.165361404418945,-11.517990112304688,-7.119379043579102,0.8245391845703125,0.3646879196166992,-0.523554801940918,-0.45691776275634766,-0.6197547912597656
520,275939808.0,20.6123104095459,-23.41720199584961,-3.3771238327026367,7.318589210510254,-0.9300041198730469,-0.6998996734619141,0.40253734588623047,-0.48889827728271484,-0.4794902801513672,-0.6075410842895508
521,275939808.0,12.039609909057617,-1.6173324584960938,-0.01197052001953125,7.318589210510254,-0.9300041198730469,-0.6998996734619141,0.40253734588623047,-0.48889827728271484,-0.4794902801513672,-0.6075410842895508
522,275939936.0,11.186051368713379,-1.2222766876220703,0.3555488586425781,6.563294410705566,-0.052199363708496094,-1.1601076126098633,0.44332218170166016,-0.46119117736816406,-0.5139303207397461,-0.5715036392211914
523,275939936.0,11.186051368713379,-1.2222766876220703,0.3555488586425781,6.563294410705566,-0.052199363708496094,-1.1601076126098633,0.44332218170166016,-0.46119117736816406,-0.5139303207397461,-0.5715036392211914
524,275939968.0,6.9757184982299805,0.43456077575683594,0.5387115478515625,6.563294410705566,-0.052199363708496094,-1.1601076126098633,0.44332218170166016,-0.46119117736816406,-0.5139303207397461,-0.5715036392211914
525,275939968.0,8.039974212646484,0.6416654586791992,0.835601806640625,6.563294410705566,-0.052199363708496094,-1.1601076126098633,0.44332218170166016,-0.46119117736816406,-0.5139303207397461,-0.5715036392211914
526,275939968.0,6.9757184982299805,0.43456077575683594,0.5387115478515625,6.563294410705566,-0.052199363708496094,-1.1601076126098633,0.44332218170166016,-0.46119117736816406,-0.5139303207397461,-0.5715036392211914
527,275939968.0,8.039974212646484,0.6416654586791992,0.835601806640625,6.563294410705566,-0.052199363708496094,-1.1601076126098633,0.44332218170166016,-0.46119117736816406,-0.5139303207397461,-0.5715036392211914
528,275940000.0,10.796980857849121,-1.9226016998291016,-0.16999340057373047,6.563294410705566,-0.052199363708496094,-1.1601076126098633,0.44332218170166016,-0.46119117736816406,-0.5139303207397461,-0.5715036392211914
529,275940000.0,10.796980857849121,-1.9226016998291016,-0.16999340057373047,6.563294410705566,-0.052199363708496094,-1.1601076126098633,0.44332218170166016,-0.46119117736816406,-0.5139303207397461,-0.5715036392211914
530,275940032.0,10.157710075378418,-3.1772022247314453,-0.9146127700805664,0.05859088897705078,0.2812376022338867,0.6168060302734375,0.44332218170166016,-0.46119117736816406,-0.5139303207397461,-0.5715036392211914
531,275940032.0,10.157710075378418,-3.1772022247314453,-0.9146127700805664,0.05859088897705078,0.2812376022338867,0.6168060302734375,0.44332218170166016,-0.46119117736816406,-0.5139303207397461,-0.5715036392211914
532,275940032.0,8.54636287689209,-2.2985029220581055,-0.8439817428588867,0.05859088897705078,0.2812376022338867,0.6168060302734375,0.44332218170166016,-0.46119117736816406,-0.5139303207397461,-0.5715036392211914
533,275940064.0,8.717554092407227,-2.0219640731811523,-0.4285745620727539,0.3792448043823242,0.09054946899414062,0.4250526428222656,0.44332218170166016,-0.46119117736816406,-0.5139303207397461,-0.5715036392211914
534,275940096.0,9.147326469421387,-2.1464672088623047,-0.2262582778930664,0.7872543334960938,0.19921016693115234,0.17577362060546875,0.44332218170166016,-0.46119117736816406,-0.5139303207397461,-0.5715036392211914
535,275940096.0,8.5667142868042,-2.194352149963379,0.040701866149902344,0.7872543334960938,0.19921016693115234,0.17577362060546875,0.44332218170166016,-0.46119117736816406,-0.5139303207397461,-0.5715036392211914
536,275940128.0,8.542771339416504,-2.5929994583129883,0.3962516784667969,0.5102767944335938,-0.18855667114257812,0.0010652542114257812,0.44332218170166016,-0.46119117736816406,-0.5139303207397461,-0.5715036392211914
537,275940128.0,9.373584747314453,-2.7354583740234375,0.5375137329101562,0.5102767944335938,-0.18855667114257812,0.0010652542114257812,0.44332218170166016,-0.46119117736816406,-0.5139303207397461,-0.5715036392211914
538,275940160.0,9.945816993713379,-2.2350549697875977,0.3699150085449219,0.334503173828125,-0.19388389587402344,0.03515434265136719,0.44332218170166016,-0.46119117736816406,-0.5139303207397461,-0.5715036392211914
539,275940192.0,9.657306671142578,-2.2745609283447266,0.33998680114746094,-0.3057394027709961,-0.09587669372558594,0.15446758270263672,0.44332218170166016,-0.46119117736816406,-0.5139303207397461,-0.5715036392211914
540,275940192.0,9.471750259399414,-3.0503053665161133,0.4441375732421875,-0.3057394027709961,-0.09587669372558594,0.15446758270263672,0.44332218170166016,-0.46119117736816406,-0.5139303207397461,-0.5715036392211914
541,275940224.0,9.984125137329102,-3.2921276092529297,0.5123739242553711,-0.2354297637939453,-0.17151260375976562,0.184295654296875,0.44332218170166016,-0.46119117736816406,-0.5139303207397461,-0.5715036392211914
542,275940256.0,10.19482135772705,-2.9102401733398438,0.28252410888671875,-0.2354297637939453,-0.17151260375976562,0.184295654296875,0.44332218170166016,-0.46119117736816406,-0.5139303207397461,-0.5715036392211914
543,275940256.0,9.35562801361084,-2.84320068359375,0.5363168716430664,-0.2354297637939453,-0.17151260375976562,0.184295654296875,0.44332218170166016,-0.46119117736816406,-0.5139303207397461,-0.5715036392211914
544,275940256.0,10.19482135772705,-2.9102401733398438,0.28252410888671875,-0.2354297637939453,-0.17151260375976562,0.184295654296875,0.44332218170166016,-0.46119117736816406,-0.5139303207397461,-0.5715036392211914
545,275940256.0,9.35562801361084,-2.84320068359375,0.5363168716430664,-0.2354297637939453,-0.17151260375976562,0.184295654296875,0.44332218170166016,-0.46119117736816406,-0.5139303207397461,-0.5715036392211914
546,275940288.0,8.781002044677734,-3.310084342956543,0.9325695037841797,-0.2354297637939453,-0.17151260375976562,0.184295654296875,0.44332218170166016,-0.46119117736816406,-0.5139303207397461,-0.5715036392211914
547,275940288.0,9.09345531463623,-3.4226150512695312,0.8619384765625,-0.2354297637939453,-0.17151260375976562,0.184295654296875,0.44332218170166016,-0.46119117736816406,-0.5139303207397461,-0.5715036392211914
548,275940288.0,8.781002044677734,-3.310084342956543,0.9325695037841797,-0.2354297637939453,-0.17151260375976562,0.184295654296875,0.44332218170166016,-0.46119117736816406,-0.5139303207397461,-0.5715036392211914
549,275940288.0,9.09345531463623,-3.4226150512695312,0.8619384765625,-0.2354297637939453,-0.17151260375976562,0.184295654296875,0.44332218170166016,-0.46119117736816406,-0.5139303207397461,-0.5715036392211914
550,275940320.0,9.367599487304688,-2.941366195678711,0.7553930282592773,-0.2354297637939453,-0.17151260375976562,0.184295654296875,0.44332218170166016,-0.46119117736816406,-0.5139303207397461,-0.5715036392211914
551,275940320.0,9.367599487304688,-2.941366195678711,0.7553930282592773,-0.2354297637939453,-0.17151260375976562,0.184295654296875,0.44332218170166016,-0.46119117736816406,-0.5139303207397461,-0.5715036392211914
552,275940352.0,9.168874740600586,-2.9246063232421875,0.6895503997802734,0.14168357849121094,-0.08522319793701172,0.05965614318847656,0.44332218170166016,-0.46119117736816406,-0.5139303207397461,-0.5715036392211914
553,275940352.0,9.192817687988281,-3.3256473541259766,0.8080673217773438,0.14168357849121094,-0.08522319793701172,0.05965614318847656,0.44332218170166016,-0.46119117736816406,-0.5139303207397461,-0.5715036392211914
554,275940384.0,9.559141159057617,-3.245438575744629,0.7027187347412109,0.1779041290283203,-0.041545867919921875,0.033023834228515625,0.44332218170166016,-0.46119117736816406,-0.5139303207397461,-0.5715036392211914
555,275940384.0,9.604632377624512,-3.037137031555176,0.6213140487670898,0.1779041290283203,-0.041545867919921875,0.033023834228515625,0.44332218170166016,-0.46119117736816406,-0.5139303207397461,-0.5715036392211914
556,275940416.0,9.301756858825684,-3.1700191497802734,0.6033563613891602,0.07563591003417969,0.014913558959960938,0.03515434265136719,0.44332218170166016,-0.46119117736816406,-0.5139303207397461,-0.5715036392211914
557,275940448.0,9.09465217590332,-3.4166297912597656,0.6296939849853516,0.07563591003417969,0.014913558959960938,0.03515434265136719,0.44332218170166016,-0.46119117736816406,-0.5139303207397461,-0.5715036392211914
558,275940448.0,9.209577560424805,-3.436981201171875,0.7577877044677734,0.07563591003417969,0.014913558959960938,0.03515434265136719,0.44332218170166016,-0.46119117736816406,-0.5139303207397461,-0.5715036392211914
559,275940448.0,9.09465217590332,-3.4166297912597656,0.6296939849853516,0.07563591003417969,0.014913558959960938,0.03515434265136719,0.44332218170166016,-0.46119117736816406,-0.5139303207397461,-0.5715036392211914
560,275940448.0,9.209577560424805,-3.436981201171875,0.7577877044677734,0.07563591003417969,0.014913558959960938,0.03515434265136719,0.44332218170166016,-0.46119117736816406,-0.5139303207397461,-0.5715036392211914
561,275940480.0,9.322108268737793,-3.2346649169921875,0.5901880264282227,0.07563591003417969,0.014913558959960938,0.03515434265136719,0.44332218170166016,-0.46119117736816406,-0.5139303207397461,-0.5715036392211914
562,275940480.0,9.322108268737793,-3.2346649169921875,0.5901880264282227,0.07563591003417969,0.014913558959960938,0.03515434265136719,0.44332218170166016,-0.46119117736816406,-0.5139303207397461,-0.5715036392211914
