,timestamp,accel_x,accel_y,accel_z,gyro_x,gyro_y,gyro_z,ori_scalar,ori_x,ori_y,ori_z
0,274366528.0,9.257462501525879,-2.6708126068115234,2.503213882446289,-0.30893516540527344,0.013848304748535156,-0.03621959686279297,0.596318244934082,0.3614072799682617,-0.6870813369750977,0.20418167114257812
1,274366528.0,9.228731155395508,-2.8635520935058594,2.266180992126465,-0.30893516540527344,0.013848304748535156,-0.03621959686279297,0.596318244934082,0.3614072799682617,-0.6870813369750977,0.20418167114257812
2,274366560.0,9.449005126953125,-2.682784080505371,2.3451919555664062,-0.2311687469482422,0.01810932159423828,-0.05646038055419922,0.596318244934082,0.3614072799682617,-0.6870813369750977,0.20418167114257812
3,274366592.0,9.670475006103516,-2.226675033569336,2.3272342681884766,-0.22797298431396484,0.06498241424560547,0.019174575805664062,0.596318244934082,0.3614072799682617,-0.6870813369750977,0.20418167114257812
4,274366592.0,9.713571548461914,-2.444554328918457,1.8411970138549805,-0.22797298431396484,0.06498241424560547,0.019174575805664062,0.596318244934082,0.3614072799682617,-0.6870813369750977,0.20418167114257812
5,274366624.0,9.803357124328613,-2.439764976501465,1.8028879165649414,-0.1736431121826172,0.0692434310913086,0.061786651611328125,0.596318244934082,0.3614072799682617,-0.6870813369750977,0.20418167114257812
6,274366752.0,9.480130195617676,-2.0902013778686523,1.4928302764892578,0.2716503143310547,-0.04687213897705078,0.29615211486816406,0.601109504699707,0.36084651947021484,-0.6870384216308594,0.19084548950195312
7,274366752.0,9.279010772705078,-1.971684455871582,1.5514898300170898,0.2716503143310547,-0.04687213897705078,0.29615211486816406,0.601109504699707,0.36084651947021484,-0.6870384216308594,0.19084548950195312
8,274366784.0,9.183239936828613,-1.8100709915161133,1.6759920120239258,0.45168495178222656,-0.0809621810913086,0.31532764434814453,0.601109504699707,0.36084651947021484,-0.6870384216308594,0.19084548950195312
9,274366816.0,9.397527694702148,-1.6496543884277344,1.729863166809082,0.5337133407592773,-0.0980072021484375,0.3174581527709961,0.601109504699707,0.36084651947021484,-0.6870384216308594,0.19084548950195312
10,274366816.0,9.428653717041016,-1.5000123977661133,1.6843719482421875,0.5337133407592773,-0.0980072021484375,0.3174581527709961,0.601109504699707,0.36084651947021484,-0.6870384216308594,0.19084548950195312
11,274366944.0,9.443018913269043,-1.7705659866333008,1.9728822708129883,-0.031958580017089844,-0.06604766845703125,0.007456779479980469,0.5997285842895508,0.39330196380615234,-0.6664953231811523,0.20353412628173828
12,274366976.0,9.348444938659668,-1.9621076583862305,1.723876953125,-0.02769756317138672,-0.02769756317138672,0.013848304748535156,0.6004619598388672,0.3930854797363281,-0.6661062240600586,0.20314598083496094
13,274366976.0,9.247885704040527,-2.0854129791259766,1.7214832305908203,-0.02769756317138672,-0.02769756317138672,0.013848304748535156,0.6004619598388672,0.3930854797363281,-0.6661062240600586,0.20314598083496094
14,274367008.0,9.511256217956543,-2.135692596435547,1.8651399612426758,0.12357425689697266,-0.024501800537109375,0.0031957626342773438,0.6005048751831055,0.3934307098388672,-0.66558837890625,0.20379352569580078
15,274367008.0,9.514846801757812,-2.2075204849243164,1.8699283599853516,0.12357425689697266,-0.024501800537109375,0.0031957626342773438,0.6005048751831055,0.3934307098388672,-0.66558837890625,0.20379352569580078
16,274367232.0,9.372387886047363,-2.2147035598754883,1.9202079772949219,0.030893325805664062,0.011717796325683594,0.022370338439941406,0.6001596450805664,0.39429473876953125,-0.6651573181152344,0.20465660095214844
17,274367264.0,9.378373146057129,-2.1201295852661133,1.884293556213379,0.04367637634277344,0.01597881317138672,0.021305084228515625,0.6001596450805664,0.39429473876953125,-0.6651573181152344,0.20465660095214844
18,274367296.0,9.410696029663086,-2.1153411865234375,1.7992973327636719,0.0031957626342773438,0.025567054748535156,0.005326271057128906,0.6001596450805664,0.39429473876953125,-0.6651573181152344,0.20465660095214844
19,274367296.0,9.35682487487793,-2.1704092025756836,1.7681713104248047,0.0031957626342773438,0.025567054748535156,0.005326271057128906,0.6001596450805664,0.39429473876953125,-0.6651573181152344,0.20465660095214844
20,274367328.0,9.361613273620605,-2.2362518310546875,1.765777587890625,0.01597881317138672,0.013848304748535156,-0.011717796325683594,0.6001596450805664,0.39429473876953125,-0.6651573181152344,0.20465660095214844
21,274367456.0,9.399922370910645,-2.201535224914551,1.7801427841186523,0.02982807159423828,0.026632308959960938,0.0287628173828125,0.6001596450805664,0.3999910354614258,-0.6617040634155273,0.20482921600341797
22,274367488.0,9.290982246398926,-2.2398433685302734,1.8040857315063477,0.020239830017089844,0.0031957626342773438,0.024501800537109375,0.6001596450805664,0.3999910354614258,-0.6617040634155273,0.20482921600341797
23,274367488.0,9.30774211883545,-2.2147035598754883,1.8615484237670898,0.020239830017089844,0.0031957626342773438,0.024501800537109375,0.6001596450805664,0.3999910354614258,-0.6617040634155273,0.20482921600341797
24,274367520.0,9.33647346496582,-2.196746826171875,1.7921142578125,0.0031957626342773438,0.0,0.03835010528564453,0.6001596450805664,0.3999910354614258,-0.6617040634155273,0.20482921600341797
25,274367648.0,9.369993209838867,-2.320052146911621,1.7777481079101562,-0.01810932159423828,-0.021305084228515625,0.010652542114257812,0.6011953353881836,0.4016742706298828,-0.6606254577636719,0.20215320587158203
26,274367680.0,9.42625904083252,-2.226675033569336,1.7717628479003906,0.04687213897705078,-0.012783050537109375,0.0170440673828125,0.6013679504394531,0.4021921157836914,-0.6600208282470703,0.20232582092285156
27,274367712.0,9.271828651428223,-2.194352149963379,1.7717628479003906,0.05539512634277344,-0.013848304748535156,0.0031957626342773438,0.6012382507324219,0.4026670455932617,-0.6598052978515625,0.20262813568115234
28,274367712.0,9.228731155395508,-2.1153411865234375,1.8735198974609375,0.05539512634277344,-0.013848304748535156,0.0031957626342773438,0.6012382507324219,0.4026670455932617,-0.6598052978515625,0.20262813568115234
29,274367744.0,9.312531471252441,-2.1368894577026367,1.8998565673828125,0.034089088439941406,-0.026632308959960938,-0.0010652542114257812,0.6012382507324219,0.40305519104003906,-0.6593303680419922,0.2032318115234375
30,274367744.0,9.320911407470703,-2.066258430480957,1.8639421463012695,0.034089088439941406,-0.026632308959960938,-0.0010652542114257812,0.6012382507324219,0.40305519104003906,-0.6593303680419922,0.2032318115234375
31,274367776.0,9.243097305297852,-2.1740007400512695,1.8675336837768555,0.034089088439941406,-0.026632308959960938,-0.0010652542114257812,0.6012382507324219,0.40305519104003906,-0.6593303680419922,0.2032318115234375
32,274367808.0,9.310136795043945,-2.2350549697875977,1.848379135131836,0.034089088439941406,-0.026632308959960938,-0.0010652542114257812,0.6012382507324219,0.40305519104003906,-0.6593303680419922,0.2032318115234375
33,274367808.0,9.332881927490234,-2.2613916397094727,1.8376054763793945,0.034089088439941406,-0.026632308959960938,-0.0010652542114257812,0.6012382507324219,0.40305519104003906,-0.6593303680419922,0.2032318115234375
34,274367840.0,9.293376922607422,-2.2613916397094727,1.788522720336914,0.034089088439941406,-0.026632308959960938,-0.0010652542114257812,0.6012382507324219,0.40305519104003906,-0.6593303680419922,0.2032318115234375
35,274367968.0,9.47414493560791,-2.3595571517944336,1.765777587890625,0.0031957626342773438,-0.05859088897705078,-0.03941535949707031,0.6041297912597656,0.40107059478759766,-0.658381462097168,0.2017221450805664
36,274367968.0,9.393936157226562,-2.4206113815307617,1.7753543853759766,0.0031957626342773438,-0.05859088897705078,-0.03941535949707031,0.6041297912597656,0.40107059478759766,-0.658381462097168,0.2017221450805664
37,274368000.0,9.331685066223145,-2.377513885498047,1.7753543853759766,0.0031957626342773438,-0.05859088897705078,-0.03941535949707031,0.6041297912597656,0.40107059478759766,-0.658381462097168,0.2017221450805664
38,274368032.0,9.343656539916992,-2.3619518280029297,1.8615484237670898,0.0031957626342773438,-0.05859088897705078,-0.03941535949707031,0.6041297912597656,0.40107059478759766,-0.658381462097168,0.2017221450805664
39,274368032.0,9.35682487487793,-2.3260374069213867,1.9082365036010742,0.0031957626342773438,-0.05859088897705078,-0.03941535949707031,0.6041297912597656,0.40107059478759766,-0.658381462097168,0.2017221450805664
40,274368064.0,9.40471076965332,-2.251814842224121,1.880702018737793,0.0031957626342773438,-0.05859088897705078,-0.03941535949707031,0.6041297912597656,0.40107059478759766,-0.658381462097168,0.2017221450805664
41,274368064.0,9.428653717041016,-2.312869071960449,1.822042465209961,0.0031957626342773438,-0.05859088897705078,-0.03941535949707031,0.6041297912597656,0.40107059478759766,-0.658381462097168,0.2017221450805664
42,274368096.0,9.422667503356934,-2.3918800354003906,1.850773811340332,0.0031957626342773438,-0.05859088897705078,-0.03941535949707031,0.6041297912597656,0.40107059478759766,-0.658381462097168,0.2017221450805664
43,274368128.0,9.472947120666504,-2.3954715728759766,1.8747167587280273,0.0031957626342773438,-0.05859088897705078,-0.03941535949707031,0.6041297912597656,0.40107059478759766,-0.658381462097168,0.2017221450805664
44,274368128.0,9.377176284790039,-2.312869071960449,1.8340139389038086,0.0031957626342773438,-0.05859088897705078,-0.03941535949707031,0.6041297912597656,0.40107059478759766,-0.658381462097168,0.2017221450805664
45,274368160.0,9.317319869995117,-2.2973060607910156,1.8196487426757812,0.030893325805664062,0.0010652542114257812,0.0170440673828125,0.6041297912597656,0.40107059478759766,-0.658381462097168,0.2017221450805664
46,274368160.0,9.317319869995117,-2.2973060607910156,1.8196487426757812,0.030893325805664062,0.0010652542114257812,0.0170440673828125,0.6041297912597656,0.40107059478759766,-0.658381462097168,0.2017221450805664
47,274368192.0,9.342459678649902,-2.262589454650879,1.7837343215942383,0.04900360107421875,0.010652542114257812,0.025567054748535156,0.6041297912597656,0.40107059478759766,-0.658381462097168,0.2017221450805664
48,274368192.0,9.277813911437988,-2.2422380447387695,1.7214832305908203,0.04900360107421875,0.010652542114257812,0.025567054748535156,0.6041297912597656,0.40107059478759766,-0.658381462097168,0.2017221450805664
49,274368192.0,9.342459678649902,-2.262589454650879,1.7837343215942383,0.04900360107421875,0.010652542114257812,0.025567054748535156,0.6041297912597656,0.40107059478759766,-0.658381462097168,0.2017221450805664
50,274368192.0,9.277813911437988,-2.2422380447387695,1.7214832305908203,0.04900360107421875,0.010652542114257812,0.025567054748535156,0.6041297912597656,0.40107059478759766,-0.658381462097168,0.2017221450805664
51,274368224.0,9.26464557647705,-2.225478172302246,1.697540283203125,0.07670116424560547,0.0,-0.0031957626342773438,0.6041297912597656,0.40107059478759766,-0.658381462097168,0.2017221450805664
52,274368224.0,9.259857177734375,-2.158437728881836,1.6831750869750977,0.07670116424560547,0.0,-0.0031957626342773438,0.6041297912597656,0.40107059478759766,-0.658381462097168,0.2017221450805664
53,274368224.0,9.26464557647705,-2.225478172302246,1.697540283203125,0.07670116424560547,0.0,-0.0031957626342773438,0.6041297912597656,0.40107059478759766,-0.658381462097168,0.2017221450805664
54,274368224.0,9.259857177734375,-2.158437728881836,1.6831750869750977,0.07670116424560547,0.0,-0.0031957626342773438,0.6041297912597656,0.40107059478759766,-0.658381462097168,0.2017221450805664
55,274368448.0,9.30534839630127,-2.201535224914551,2.0902013778686523,0.09587669372558594,-0.030893325805664062,0.05539512634277344,0.6045618057250977,0.40465259552001953,-0.6537637710571289,0.20810890197753906
56,274368480.0,9.271828651428223,-2.1081581115722656,2.132101058959961,0.10120296478271484,-0.019174575805664062,0.042611122131347656,0.6045618057250977,0.40465259552001953,-0.6537637710571289,0.20810890197753906
57,274368512.0,9.30534839630127,-2.1368894577026367,2.041118621826172,0.025567054748535156,0.021305084228515625,0.01810932159423828,0.6045618057250977,0.40465259552001953,-0.6537637710571289,0.20810890197753906
58,274368512.0,9.249082565307617,-2.229069709777832,1.915419578552246,0.025567054748535156,0.021305084228515625,0.01810932159423828,0.6045618057250977,0.40465259552001953,-0.6537637710571289,0.20810890197753906
59,274368544.0,9.177254676818848,-2.288926124572754,1.9345731735229492,0.04793834686279297,0.031958580017089844,0.0031957626342773438,0.6045618057250977,0.40465259552001953,-0.6537637710571289,0.20810890197753906
60,274368864.0,9.249082565307617,-2.347585678100586,1.638880729675293,0.04793834686279297,0.031958580017089844,0.0031957626342773438,0.5996417999267578,0.4150962829589844,-0.6494474411010742,0.21535968780517578
61,274368864.0,9.311333656311035,-2.287729263305664,1.737046241760254,0.04793834686279297,0.031958580017089844,0.0031957626342773438,0.5996417999267578,0.4150962829589844,-0.6494474411010742,0.21535968780517578
62,274368864.0,9.249082565307617,-2.347585678100586,1.638880729675293,0.04793834686279297,0.031958580017089844,0.0031957626342773438,0.5996417999267578,0.4150962829589844,-0.6494474411010742,0.21535968780517578
63,274368864.0,9.311333656311035,-2.287729263305664,1.737046241760254,0.04793834686279297,0.031958580017089844,0.0031957626342773438,0.5996417999267578,0.4150962829589844,-0.6494474411010742,0.21535968780517578
64,274368896.0,9.362811088562012,-2.2757577896118164,1.8124656677246094,0.04793834686279297,0.031958580017089844,0.0031957626342773438,0.5996417999267578,0.4150962829589844,-0.6494474411010742,0.21535968780517578
65,274368896.0,9.362811088562012,-2.2757577896118164,1.8124656677246094,0.04793834686279297,0.031958580017089844,0.0031957626342773438,0.5996417999267578,0.4150962829589844,-0.6494474411010742,0.21535968780517578
66,274368928.0,9.352036476135254,-2.1799869537353516,1.854365348815918,0.04793834686279297,0.031958580017089844,0.0031957626342773438,0.5996417999267578,0.4150962829589844,-0.6494474411010742,0.21535968780517578
67,274368928.0,9.324501991271973,-2.15364933013916,2.002810478210449,0.04793834686279297,0.031958580017089844,0.0031957626342773438,0.5996417999267578,0.4150962829589844,-0.6494474411010742,0.21535968780517578
68,274368928.0,9.352036476135254,-2.1799869537353516,1.854365348815918,0.04793834686279297,0.031958580017089844,0.0031957626342773438,0.5996417999267578,0.4150962829589844,-0.6494474411010742,0.21535968780517578
69,274368928.0,9.324501991271973,-2.15364933013916,2.002810478210449,0.04793834686279297,0.031958580017089844,0.0031957626342773438,0.5996417999267578,0.4150962829589844,-0.6494474411010742,0.21535968780517578
70,274368960.0,9.411893844604492,-2.219491958618164,1.9022512435913086,0.057525634765625,-0.033023834228515625,0.053264617919921875,0.5996417999267578,0.4150962829589844,-0.6494474411010742,0.21535968780517578
71,274368960.0,9.414287567138672,-2.2170982360839844,1.9549245834350586,0.057525634765625,-0.033023834228515625,0.053264617919921875,0.5996417999267578,0.4150962829589844,-0.6494474411010742,0.21535968780517578
72,274368992.0,9.292180061340332,-2.29132080078125,2.0351333618164062,0.02982807159423828,-0.023435592651367188,0.05113410949707031,0.5996417999267578,0.4150962829589844,-0.6494474411010742,0.21535968780517578
73,274369024.0,9.28380012512207,-2.314065933227539,2.0279502868652344,0.06711292266845703,-0.026632308959960938,0.045806884765625,0.5996417999267578,0.4150962829589844,-0.6494474411010742,0.21535968780517578
74,274369024.0,9.367599487304688,-2.256603240966797,1.9836559295654297,0.06711292266845703,-0.026632308959960938,0.045806884765625,0.5996417999267578,0.4150962829589844,-0.6494474411010742,0.21535968780517578
75,274369152.0,9.28739070892334,-2.29251766204834,1.8854904174804688,0.034089088439941406,0.02982807159423828,0.010652542114257812,0.596318244934082,0.43326663970947266,-0.63818359375,0.2223949432373047
76,274369184.0,9.310136795043945,-2.3296289443969727,1.8340139389038086,0.034089088439941406,0.02982807159423828,0.010652542114257812,0.5960168838500977,0.43352508544921875,-0.63818359375,0.22252368927001953
77,274369184.0,9.391542434692383,-2.286531448364258,1.763382911682129,0.034089088439941406,0.02982807159423828,0.010652542114257812,0.5960168838500977,0.43352508544921875,-0.63818359375,0.22252368927001953
78,274369216.0,9.389147758483887,-2.2733631134033203,1.7178916931152344,0.034089088439941406,0.02982807159423828,0.010652542114257812,0.5957574844360352,0.4338703155517578,-0.6382694244384766,0.22235107421875
79,274369248.0,9.35562801361084,-2.2901229858398438,1.7214832305908203,0.034089088439941406,0.02982807159423828,0.010652542114257812,0.5956716537475586,0.43404293060302734,-0.6383562088012695,0.2220926284790039
80,274369248.0,9.258659362792969,-2.372725486755371,1.7286663055419922,0.034089088439941406,0.02982807159423828,0.010652542114257812,0.5956716537475586,0.43404293060302734,-0.6383562088012695,0.2220926284790039
81,274369280.0,9.325699806213379,-2.2997007369995117,1.7083148956298828,0.034089088439941406,0.02982807159423828,0.010652542114257812,0.5956716537475586,0.43404293060302734,-0.6383562088012695,0.2220926284790039
82,274369280.0,9.361613273620605,-2.2578001022338867,1.7358484268188477,0.034089088439941406,0.02982807159423828,0.010652542114257812,0.5956716537475586,0.43404293060302734,-0.6383562088012695,0.2220926284790039
83,274369312.0,9.353233337402344,-2.2685747146606445,1.7705659866333008,0.034089088439941406,0.02982807159423828,0.010652542114257812,0.5956716537475586,0.43404293060302734,-0.6383562088012695,0.2220926284790039
84,274369344.0,9.21436595916748,-2.3272342681884766,1.7873258590698242,0.022370338439941406,-0.02769756317138672,0.013848304748535156,0.5956716537475586,0.43404293060302734,-0.6383562088012695,0.2220926284790039
85,274369344.0,9.282602310180664,-2.351177215576172,1.7741575241088867,0.022370338439941406,-0.02769756317138672,0.013848304748535156,0.5956716537475586,0.43404293060302734,-0.6383562088012695,0.2220926284790039
86,274369376.0,9.38675308227539,-2.3044891357421875,1.8064794540405273,0.05646038055419922,-0.02769756317138672,0.013848304748535156,0.5956716537475586,0.43404293060302734,-0.6383562088012695,0.2220926284790039
87,274369408.0,9.416682243347168,-2.2578001022338867,1.8531684875488281,0.03728485107421875,-0.01597881317138672,0.0010652542114257812,0.5956716537475586,0.43404293060302734,-0.6383562088012695,0.2220926284790039
88,274369408.0,9.319713592529297,-2.2949113845825195,1.919011116027832,0.03728485107421875,-0.01597881317138672,0.0010652542114257812,0.5956716537475586,0.43404293060302734,-0.6383562088012695,0.2220926284790039
89,274369440.0,9.256265640258789,-2.2673778533935547,1.9441509246826172,0.014913558959960938,-0.021305084228515625,-0.0010652542114257812,0.5956716537475586,0.43404293060302734,-0.6383562088012695,0.2220926284790039
90,274369440.0,9.239505767822266,-2.3236427307128906,1.9501361846923828,0.014913558959960938,-0.021305084228515625,-0.0010652542114257812,0.5956716537475586,0.43404293060302734,-0.6383562088012695,0.2220926284790039
91,274369472.0,9.292180061340332,-2.3080806732177734,1.9692907333374023,0.012783050537109375,-0.021305084228515625,-0.0010652542114257812,0.5956716537475586,0.43404293060302734,-0.6383562088012695,0.2220926284790039
92,274369504.0,9.324501991271973,-2.353571891784668,2.011190414428711,0.042611122131347656,-0.0063915252685546875,0.009587287902832031,0.5956716537475586,0.43404293060302734,-0.6383562088012695,0.2220926284790039
93,274369504.0,9.314925193786621,-2.286531448364258,1.9956274032592773,0.042611122131347656,-0.0063915252685546875,0.009587287902832031,0.5956716537475586,0.43404293060302734,-0.6383562088012695,0.2220926284790039
94,274369536.0,9.26584243774414,-2.254209518432617,1.977670669555664,0.01597881317138672,0.005326271057128906,0.007456779479980469,0.5956716537475586,0.43404293060302734,-0.6383562088012695,0.2220926284790039
95,274369536.0,9.298165321350098,-2.262589454650879,1.9704875946044922,0.01597881317138672,0.005326271057128906,0.007456779479980469,0.5956716537475586,0.43404293060302734,-0.6383562088012695,0.2220926284790039
96,274369536.0,9.298165321350098,-2.262589454650879,1.9704875946044922,0.01597881317138672,0.005326271057128906,0.007456779479980469,0.5956716537475586,0.43404293060302734,-0.6383562088012695,0.2220926284790039
97,274369568.0,9.338868141174316,-2.3056859970092773,1.9824590682983398,0.01597881317138672,0.005326271057128906,0.0,0.5956716537475586,0.43404293060302734,-0.6383562088012695,0.2220926284790039
98,274369568.0,9.338868141174316,-2.3056859970092773,1.9824590682983398,0.01597881317138672,0.005326271057128906,0.0,0.5956716537475586,0.43404293060302734,-0.6383562088012695,0.2220926284790039
99,274369600.0,9.3855562210083,-2.249420166015625,1.9381647109985352,0.013848304748535156,0.01810932159423828,-0.007456779479980469,0.5956716537475586,0.43404293060302734,-0.6383562088012695,0.2220926284790039
100,274369600.0,9.347248077392578,-2.215900421142578,1.8687305450439453,0.013848304748535156,0.01810932159423828,-0.007456779479980469,0.5956716537475586,0.43404293060302734,-0.6383562088012695,0.2220926284790039
101,274369600.0,9.3855562210083,-2.249420166015625,1.9381647109985352,0.013848304748535156,0.01810932159423828,-0.007456779479980469,0.5956716537475586,0.43404293060302734,-0.6383562088012695,0.2220926284790039
102,274369600.0,9.347248077392578,-2.215900421142578,1.8687305450439453,0.013848304748535156,0.01810932159423828,-0.007456779479980469,0.5956716537475586,0.43404293060302734,-0.6383562088012695,0.2220926284790039
103,274369632.0,9.280208587646484,-2.2745609283447266,1.9046449661254883,-0.01597881317138672,0.019174575805664062,-0.009587287902832031,0.5956716537475586,0.43404293060302734,-0.6383562088012695,0.2220926284790039
104,274369632.0,9.280208587646484,-2.2745609283447266,1.9046449661254883,-0.01597881317138672,0.019174575805664062,-0.009587287902832031,0.5956716537475586,0.43404293060302734,-0.6383562088012695,0.2220926284790039
105,274369760.0,9.262250900268555,-2.2949113845825195,1.8627452850341797,0.030893325805664062,0.0031957626342773438,0.0,0.5956716537475586,0.43404293060302734,-0.6383562088012695,0.2220926284790039
106,274369760.0,9.310136795043945,-2.2362518310546875,1.8519706726074219,0.030893325805664062,0.0031957626342773438,0.0,0.5956716537475586,0.43404293060302734,-0.6383562088012695,0.2220926284790039
107,274369792.0,9.28380012512207,-2.1811838150024414,1.8124656677246094,0.0170440673828125,0.005326271057128906,-0.0031957626342773438,0.5956716537475586,0.43404293060302734,-0.6383562088012695,0.2220926284790039
108,274369824.0,9.288588523864746,-2.219491958618164,1.820845603942871,-0.026632308959960938,-0.00852203369140625,-0.023435592651367188,0.5956716537475586,0.43404293060302734,-0.6383562088012695,0.2220926284790039
109,274369824.0,9.350839614868164,-2.320052146911621,1.8328170776367188,-0.026632308959960938,-0.00852203369140625,-0.023435592651367188,0.5956716537475586,0.43404293060302734,-0.6383562088012695,0.2220926284790039
110,274369856.0,9.308939933776855,-2.318854331970215,1.8687305450439453,-0.026632308959960938,-0.00852203369140625,-0.023435592651367188,0.5956716537475586,0.43404293060302734,-0.6383562088012695,0.2220926284790039
111,274369856.0,9.268237113952637,-2.2578001022338867,1.8435907363891602,-0.026632308959960938,-0.00852203369140625,-0.023435592651367188,0.5956716537475586,0.43404293060302734,-0.6383562088012695,0.2220926284790039
112,274369888.0,9.258659362792969,-2.2434349060058594,1.8711252212524414,-0.026632308959960938,-0.00852203369140625,-0.023435592651367188,0.5956716537475586,0.43404293060302734,-0.6383562088012695,0.2220926284790039
113,274369920.0,9.276617050170898,-2.3008975982666016,1.884293556213379,-0.026632308959960938,-0.00852203369140625,-0.023435592651367188,0.5956716537475586,0.43404293060302734,-0.6383562088012695,0.2220926284790039
114,274369920.0,9.313728332519531,-2.306882858276367,1.8998565673828125,-0.026632308959960938,-0.00852203369140625,-0.023435592651367188,0.5956716537475586,0.43404293060302734,-0.6383562088012695,0.2220926284790039
115,274369952.0,9.293376922607422,-2.285334587097168,1.8795051574707031,-0.026632308959960938,-0.00852203369140625,-0.023435592651367188,0.5956716537475586,0.43404293060302734,-0.6383562088012695,0.2220926284790039
116,274369984.0,9.249082565307617,-2.2769546508789062,1.8699283599853516,-0.026632308959960938,-0.00852203369140625,-0.023435592651367188,0.5956716537475586,0.43404293060302734,-0.6383562088012695,0.2220926284790039
117,274369984.0,9.398724555969238,-2.322445869445801,1.857956886291504,-0.026632308959960938,-0.00852203369140625,-0.023435592651367188,0.5956716537475586,0.43404293060302734,-0.6383562088012695,0.2220926284790039
118,274370016.0,9.409499168395996,-2.3008975982666016,1.9261932373046875,-0.026632308959960938,-0.00852203369140625,-0.023435592651367188,0.5956716537475586,0.43404293060302734,-0.6383562088012695,0.2220926284790039
119,274370016.0,9.324501991271973,-2.2793493270874023,1.9142217636108398,-0.026632308959960938,-0.00852203369140625,-0.023435592651367188,0.5956716537475586,0.43404293060302734,-0.6383562088012695,0.2220926284790039
120,274370048.0,9.279010772705078,-2.2769546508789062,1.9142217636108398,-0.007456779479980469,-0.009587287902832031,-0.014913558959960938,0.5956716537475586,0.43404293060302734,-0.6383562088012695,0.2220926284790039
121,274370080.0,9.308939933776855,-2.3356142044067383,1.9034481048583984,0.00852203369140625,-0.012783050537109375,-0.010652542114257812,0.5956716537475586,0.43404293060302734,-0.6383562088012695,0.2220926284790039
122,274370080.0,9.367599487304688,-2.3332204818725586,1.9645023345947266,0.00852203369140625,-0.012783050537109375,-0.010652542114257812,0.5956716537475586,0.43404293060302734,-0.6383562088012695,0.2220926284790039
123,274370112.0,9.314925193786621,-2.2506179809570312,1.9309816360473633,0.005326271057128906,-0.0063915252685546875,-0.0010652542114257812,0.5956716537475586,0.43404293060302734,-0.6383562088012695,0.2220926284790039
124,274370144.0,9.246688842773438,-2.2757577896118164,1.9441509246826172,-0.005326271057128906,-0.009587287902832031,0.0,0.5956716537475586,0.43404293060302734,-0.6383562088012695,0.2220926284790039
125,274370144.0,9.308939933776855,-2.3032913208007812,1.9381647109985352,-0.005326271057128906,-0.009587287902832031,0.0,0.5956716537475586,0.43404293060302734,-0.6383562088012695,0.2220926284790039
126,274370176.0,9.310136795043945,-2.266180992126465,1.9668960571289062,0.02982807159423828,0.0,-0.0021305084228515625,0.5956716537475586,0.43404293060302734,-0.6383562088012695,0.2220926284790039
127,274370176.0,9.344853401184082,-2.2087182998657227,1.9848527908325195,0.02982807159423828,0.0,-0.0021305084228515625,0.5956716537475586,0.43404293060302734,-0.6383562088012695,0.2220926284790039
128,274370208.0,9.337671279907227,-2.191958427429199,1.968092918395996,0.01597881317138672,0.0010652542114257812,-0.012783050537109375,0.5956716537475586,0.43404293060302734,-0.6383562088012695,0.2220926284790039
129,274370240.0,9.353233337402344,-2.2087182998657227,1.9561223983764648,0.013848304748535156,0.011717796325683594,-0.030893325805664062,0.5956716537475586,0.43404293060302734,-0.6383562088012695,0.2220926284790039
130,274370240.0,9.415484428405762,-2.219491958618164,1.9549245834350586,0.013848304748535156,0.011717796325683594,-0.030893325805664062,0.5956716537475586,0.43404293060302734,-0.6383562088012695,0.2220926284790039
131,274370272.0,9.322108268737793,-2.2398433685302734,1.945347785949707,0.01597881317138672,0.019174575805664062,-0.031958580017089844,0.5956716537475586,0.43404293060302734,-0.6383562088012695,0.2220926284790039
132,274370304.0,9.30774211883545,-2.2111120223999023,1.9022512435913086,0.012783050537109375,0.01810932159423828,-0.02769756317138672,0.5956716537475586,0.43404293060302734,-0.6383562088012695,0.2220926284790039
133,274370304.0,9.326896667480469,-2.225478172302246,1.909433364868164,0.012783050537109375,0.01810932159423828,-0.02769756317138672,0.5956716537475586,0.43404293060302734,-0.6383562088012695,0.2220926284790039
134,274370336.0,9.328093528747559,-2.1823806762695312,1.8890819549560547,-0.007456779479980469,0.0170440673828125,-0.022370338439941406,0.5956716537475586,0.43404293060302734,-0.6383562088012695,0.2220926284790039
135,274370336.0,9.329291343688965,-2.1955490112304688,1.8615484237670898,-0.007456779479980469,0.0170440673828125,-0.022370338439941406,0.5956716537475586,0.43404293060302734,-0.6383562088012695,0.2220926284790039
136,274370368.0,9.30774211883545,-2.1428756713867188,1.8340139389038086,-0.0287628173828125,0.021305084228515625,-0.022370338439941406,0.5956716537475586,0.43404293060302734,-0.6383562088012695,0.2220926284790039
137,274370400.0,9.326896667480469,-2.175198554992676,1.788522720336914,-0.041545867919921875,0.009587287902832031,-0.02982807159423828,0.5956716537475586,0.43404293060302734,-0.6383562088012695,0.2220926284790039
138,274370400.0,9.350839614868164,-2.2362518310546875,1.788522720336914,-0.041545867919921875,0.009587287902832031,-0.02982807159423828,0.5956716537475586,0.43404293060302734,-0.6383562088012695,0.2220926284790039
139,274370432.0,9.347248077392578,-2.230266571044922,1.8016910552978516,-0.010652542114257812,0.0,-0.0287628173828125,0.5956716537475586,0.43404293060302734,-0.6383562088012695,0.2220926284790039
140,274370560.0,9.366402626037598,-2.1560440063476562,1.822042465209961,0.0170440673828125,-0.023435592651367188,-0.025567054748535156,0.5925207138061523,0.43330955505371094,-0.639002799987793,0.22973155975341797
141,274370560.0,9.366402626037598,-2.135692596435547,1.8292255401611328,0.0170440673828125,-0.023435592651367188,-0.025567054748535156,0.5925207138061523,0.43330955505371094,-0.639002799987793,0.22973155975341797
142,274370592.0,9.33647346496582,-2.1428756713867188,1.847182273864746,0.0170440673828125,-0.023435592651367188,-0.025567054748535156,0.5924777984619141,0.43326663970947266,-0.6388740539550781,0.23055171966552734
143,274370624.0,9.275420188903809,-2.1261157989501953,1.820845603942871,0.0170440673828125,-0.023435592651367188,-0.025567054748535156,0.5924339294433594,0.4334392547607422,-0.6383562088012695,0.23171710968017578
144,274370624.0,9.419075965881348,-2.080624580383301,1.814859390258789,0.0170440673828125,-0.023435592651367188,-0.025567054748535156,0.5924339294433594,0.4334392547607422,-0.6383562088012695,0.23171710968017578
145,274370848.0,9.419075965881348,-2.1225242614746094,1.9537277221679688,-0.0021305084228515625,-0.024501800537109375,-0.034089088439941406,0.5925207138061523,0.4321012496948242,-0.6382265090942383,0.23413372039794922
146,274370848.0,9.419075965881348,-2.1225242614746094,1.9537277221679688,-0.0021305084228515625,-0.024501800537109375,-0.034089088439941406,0.5925207138061523,0.4321012496948242,-0.6382265090942383,0.23413372039794922
147,274370848.0,9.419075965881348,-2.1225242614746094,1.9537277221679688,-0.0021305084228515625,-0.024501800537109375,-0.034089088439941406,0.5925207138061523,0.4321012496948242,-0.6382265090942383,0.23413372039794922
148,274370880.0,9.419075965881348,-2.0842161178588867,1.9405593872070312,-0.0021305084228515625,-0.024501800537109375,-0.034089088439941406,0.5925207138061523,0.4321012496948242,-0.6382265090942383,0.23413372039794922
149,274370880.0,9.304150581359863,-2.0925960540771484,1.9261932373046875,-0.0021305084228515625,-0.024501800537109375,-0.034089088439941406,0.5925207138061523,0.4321012496948242,-0.6382265090942383,0.23413372039794922
150,274370880.0,9.419075965881348,-2.0842161178588867,1.9405593872070312,-0.0021305084228515625,-0.024501800537109375,-0.034089088439941406,0.5925207138061523,0.4321012496948242,-0.6382265090942383,0.23413372039794922
151,274370880.0,9.304150581359863,-2.0925960540771484,1.9261932373046875,-0.0021305084228515625,-0.024501800537109375,-0.034089088439941406,0.5925207138061523,0.4321012496948242,-0.6382265090942383,0.23413372039794922
152,274370880.0,9.419075965881348,-2.0842161178588867,1.9405593872070312,-0.0021305084228515625,-0.024501800537109375,-0.034089088439941406,0.5925207138061523,0.4321012496948242,-0.6382265090942383,0.23413372039794922
153,274370880.0,9.304150581359863,-2.0925960540771484,1.9261932373046875,-0.0021305084228515625,-0.024501800537109375,-0.034089088439941406,0.5925207138061523,0.4321012496948242,-0.6382265090942383,0.23413372039794922
154,274370912.0,9.28499698638916,-2.2087182998657227,1.9058418273925781,-0.0021305084228515625,-0.024501800537109375,-0.034089088439941406,0.5925207138061523,0.4321012496948242,-0.6382265090942383,0.23413372039794922
155,274370912.0,9.402316093444824,-2.096186637878418,1.8998565673828125,-0.0021305084228515625,-0.024501800537109375,-0.034089088439941406,0.5925207138061523,0.4321012496948242,-0.6382265090942383,0.23413372039794922
156,274370912.0,9.28499698638916,-2.2087182998657227,1.9058418273925781,-0.0021305084228515625,-0.024501800537109375,-0.034089088439941406,0.5925207138061523,0.4321012496948242,-0.6382265090942383,0.23413372039794922
157,274370912.0,9.402316093444824,-2.096186637878418,1.8998565673828125,-0.0021305084228515625,-0.024501800537109375,-0.034089088439941406,0.5925207138061523,0.4321012496948242,-0.6382265090942383,0.23413372039794922
158,274370912.0,9.28499698638916,-2.2087182998657227,1.9058418273925781,-0.0021305084228515625,-0.024501800537109375,-0.034089088439941406,0.5925207138061523,0.4321012496948242,-0.6382265090942383,0.23413372039794922
159,274370912.0,9.402316093444824,-2.096186637878418,1.8998565673828125,-0.0021305084228515625,-0.024501800537109375,-0.034089088439941406,0.5925207138061523,0.4321012496948242,-0.6382265090942383,0.23413372039794922
160,274370944.0,9.368796348571777,-2.0243587493896484,1.8651399612426758,0.0010652542114257812,0.026632308959960938,0.033023834228515625,0.5925207138061523,0.4321012496948242,-0.6382265090942383,0.23413372039794922
161,274370944.0,9.368796348571777,-2.0243587493896484,1.8651399612426758,0.0010652542114257812,0.026632308959960938,0.033023834228515625,0.5925207138061523,0.4321012496948242,-0.6382265090942383,0.23413372039794922
162,274370976.0,9.349641799926758,-2.000415802001953,1.8256340026855469,-0.041545867919921875,0.025567054748535156,0.021305084228515625,0.5925207138061523,0.4321012496948242,-0.6382265090942383,0.23413372039794922
163,274370976.0,9.324501991271973,-2.044710159301758,1.7705659866333008,-0.041545867919921875,0.025567054748535156,0.021305084228515625,0.5925207138061523,0.4321012496948242,-0.6382265090942383,0.23413372039794922
164,274370976.0,9.349641799926758,-2.000415802001953,1.8256340026855469,-0.041545867919921875,0.025567054748535156,0.021305084228515625,0.5925207138061523,0.4321012496948242,-0.6382265090942383,0.23413372039794922
165,274370976.0,9.324501991271973,-2.044710159301758,1.7705659866333008,-0.041545867919921875,0.025567054748535156,0.021305084228515625,0.5925207138061523,0.4321012496948242,-0.6382265090942383,0.23413372039794922
166,274371008.0,9.341261863708496,-2.0578784942626953,1.7801427841186523,-0.0170440673828125,0.012783050537109375,0.005326271057128906,0.5925207138061523,0.4321012496948242,-0.6382265090942383,0.23413372039794922
167,274371008.0,9.341261863708496,-2.0578784942626953,1.7801427841186523,-0.0170440673828125,0.012783050537109375,0.005326271057128906,0.5925207138061523,0.4321012496948242,-0.6382265090942383,0.23413372039794922
168,274371040.0,9.383162498474121,-1.9848527908325195,1.7837343215942383,0.0010652542114257812,0.0031957626342773438,-0.0063915252685546875,0.5925207138061523,0.4321012496948242,-0.6382265090942383,0.23413372039794922
169,274371040.0,9.383162498474121,-1.9848527908325195,1.7837343215942383,0.0010652542114257812,0.0031957626342773438,-0.0063915252685546875,0.5925207138061523,0.4321012496948242,-0.6382265090942383,0.23413372039794922
170,274371136.0,9.332881927490234,-2.1692123413085938,1.8172540664672852,0.01597881317138672,-0.022370338439941406,-0.020239830017089844,0.5925207138061523,0.4321012496948242,-0.6382265090942383,0.23413372039794922
171,274371168.0,9.320911407470703,-2.190760612487793,1.8256340026855469,0.03621959686279297,-0.031958580017089844,-0.019174575805664062,0.5925207138061523,0.4321012496948242,-0.6382265090942383,0.23413372039794922
172,274371200.0,9.367599487304688,-2.1201295852661133,1.883096694946289,0.014913558959960938,-0.025567054748535156,-0.012783050537109375,0.5925207138061523,0.4321012496948242,-0.6382265090942383,0.23413372039794922
173,274371200.0,9.387950897216797,-2.066258430480957,1.916616439819336,0.014913558959960938,-0.025567054748535156,-0.012783050537109375,0.5925207138061523,0.4321012496948242,-0.6382265090942383,0.23413372039794922
174,274371232.0,9.361613273620605,-2.1105527877807617,1.909433364868164,-0.023435592651367188,-0.007456779479980469,-0.013848304748535156,0.5925207138061523,0.4321012496948242,-0.6382265090942383,0.23413372039794922
175,274371232.0,9.343656539916992,-2.2470264434814453,1.8687305450439453,-0.023435592651367188,-0.007456779479980469,-0.013848304748535156,0.5925207138061523,0.4321012496948242,-0.6382265090942383,0.23413372039794922
176,274371264.0,9.431047439575195,-2.1763954162597656,1.857956886291504,-0.023435592651367188,-0.007456779479980469,-0.013848304748535156,0.5925207138061523,0.4321012496948242,-0.6382265090942383,0.23413372039794922
177,274371296.0,9.439427375793457,-2.132101058959961,1.883096694946289,-0.023435592651367188,-0.007456779479980469,-0.013848304748535156,0.5925207138061523,0.4321012496948242,-0.6382265090942383,0.23413372039794922
178,274371296.0,9.421470642089844,-2.099778175354004,1.8938703536987305,-0.023435592651367188,-0.007456779479980469,-0.013848304748535156,0.5925207138061523,0.4321012496948242,-0.6382265090942383,0.23413372039794922
179,274371328.0,9.392739295959473,-2.15364933013916,1.8950681686401367,-0.023435592651367188,-0.007456779479980469,-0.013848304748535156,0.5925207138061523,0.4321012496948242,-0.6382265090942383,0.23413372039794922
180,274371360.0,9.435835838317871,-2.1548471450805664,1.9082365036010742,0.0031957626342773438,-0.009587287902832031,0.020239830017089844,0.5925207138061523,0.4321012496948242,-0.6382265090942383,0.23413372039794922
181,274371360.0,9.493298530578613,-2.10336971282959,1.909433364868164,0.0031957626342773438,-0.009587287902832031,0.020239830017089844,0.5925207138061523,0.4321012496948242,-0.6382265090942383,0.23413372039794922
182,274371392.0,9.432244300842285,-2.1452693939208984,1.9573192596435547,0.023435592651367188,0.0,0.02982807159423828,0.5925207138061523,0.4321012496948242,-0.6382265090942383,0.23413372039794922
183,274371392.0,9.408302307128906,-2.1261157989501953,1.9585161209106445,0.023435592651367188,0.0,0.02982807159423828,0.5925207138061523,0.4321012496948242,-0.6382265090942383,0.23413372039794922
184,274371424.0,9.391542434692383,-2.0423154830932617,2.0016136169433594,0.045806884765625,0.010652542114257812,0.026632308959960938,0.5925207138061523,0.4321012496948242,-0.6382265090942383,0.23413372039794922
185,274371456.0,9.35443115234375,-2.008795738220215,1.9908390045166016,0.045806884765625,0.010652542114257812,0.026632308959960938,0.5925207138061523,0.4321012496948242,-0.6382265090942383,0.23413372039794922
186,274371456.0,9.373584747314453,-2.030344009399414,1.9764728546142578,0.045806884765625,0.010652542114257812,0.026632308959960938,0.5925207138061523,0.4321012496948242,-0.6382265090942383,0.23413372039794922
187,274371488.0,9.332881927490234,-2.1201295852661133,1.9345731735229492,0.045806884765625,0.010652542114257812,0.026632308959960938,0.5925207138061523,0.4321012496948242,-0.6382265090942383,0.23413372039794922
188,274371520.0,9.393936157226562,-2.041118621826172,1.9513330459594727,0.045806884765625,0.010652542114257812,0.026632308959960938,0.5925207138061523,0.4321012496948242,-0.6382265090942383,0.23413372039794922
189,274371520.0,9.380767822265625,-1.9968242645263672,1.8699283599853516,0.045806884765625,0.010652542114257812,0.026632308959960938,0.5925207138061523,0.4321012496948242,-0.6382265090942383,0.23413372039794922
190,274371552.0,9.324501991271973,-2.0925960540771484,1.8603506088256836,0.045806884765625,0.010652542114257812,0.026632308959960938,0.5925207138061523,0.4321012496948242,-0.6382265090942383,0.23413372039794922
191,274371552.0,9.35682487487793,-2.1488609313964844,1.8196487426757812,0.045806884765625,0.010652542114257812,0.026632308959960938,0.5925207138061523,0.4321012496948242,-0.6382265090942383,0.23413372039794922
192,274371584.0,9.360416412353516,-2.1045665740966797,1.8088741302490234,0.045806884765625,0.010652542114257812,0.026632308959960938,0.5925207138061523,0.4321012496948242,-0.6382265090942383,0.23413372039794922
193,274371616.0,9.358022689819336,-2.0483016967773438,1.7849311828613281,0.045806884765625,0.010652542114257812,0.026632308959960938,0.5925207138061523,0.4321012496948242,-0.6382265090942383,0.23413372039794922
194,274371616.0,9.353233337402344,-2.0782299041748047,1.8040857315063477,0.045806884765625,0.010652542114257812,0.026632308959960938,0.5925207138061523,0.4321012496948242,-0.6382265090942383,0.23413372039794922
195,274371648.0,9.365204811096191,-2.1045665740966797,1.8316192626953125,0.005326271057128906,0.013848304748535156,-0.0010652542114257812,0.5901899337768555,0.4340858459472656,-0.639002799987793,0.23430633544921875
196,274371680.0,9.38675308227539,-2.097384452819824,1.8160572052001953,0.004261016845703125,0.010652542114257812,0.0,0.5901470184326172,0.4341297149658203,-0.6390466690063477,0.23426342010498047
197,274371680.0,9.365204811096191,-2.0782299041748047,1.8435907363891602,0.004261016845703125,0.010652542114257812,0.0,0.5901470184326172,0.4341297149658203,-0.6390466690063477,0.23426342010498047
198,274371712.0,9.332881927490234,-2.0937929153442383,1.847182273864746,-0.0031957626342773438,0.00852203369140625,0.0010652542114257812,0.5901470184326172,0.4341297149658203,-0.6390466690063477,0.23426342010498047
199,274371712.0,9.338868141174316,-2.1261157989501953,1.883096694946289,-0.0031957626342773438,0.00852203369140625,0.0010652542114257812,0.5901470184326172,0.4341297149658203,-0.6390466690063477,0.23426342010498047
200,274371744.0,9.359219551086426,-2.15364933013916,1.8938703536987305,-0.0031957626342773438,0.00852203369140625,0.0010652542114257812,0.5901470184326172,0.4341297149658203,-0.6390466690063477,0.23426342010498047
201,274371776.0,9.331685066223145,-2.0925960540771484,1.8926734924316406,-0.0031957626342773438,0.00852203369140625,0.0010652542114257812,0.5901470184326172,0.4341297149658203,-0.6390466690063477,0.23426342010498047
202,274371776.0,9.299362182617188,-2.065061569213867,1.919011116027832,-0.0031957626342773438,0.00852203369140625,0.0010652542114257812,0.5901470184326172,0.4341297149658203,-0.6390466690063477,0.23426342010498047
203,274371808.0,9.296968460083008,-2.0842161178588867,1.9070396423339844,-0.0031957626342773438,0.00852203369140625,0.0010652542114257812,0.5901470184326172,0.4341297149658203,-0.6390466690063477,0.23426342010498047
204,274371840.0,9.348444938659668,-2.1021728515625,1.9465446472167969,0.0031957626342773438,0.0031957626342773438,0.010652542114257812,0.5901041030883789,0.43451786041259766,-0.6388301849365234,0.23421955108642578
205,274371936.0,9.314925193786621,-2.0159788131713867,1.8998565673828125,0.026632308959960938,0.009587287902832031,-0.009587287902832031,0.5899744033813477,0.4346904754638672,-0.6388301849365234,0.2341766357421875
206,274371968.0,9.269433975219727,-2.077033042907715,1.8986597061157227,0.026632308959960938,0.009587287902832031,-0.009587287902832031,0.5899744033813477,0.4346904754638672,-0.6388301849365234,0.2341766357421875
207,274371968.0,9.313728332519531,-2.134495735168457,1.886688232421875,0.026632308959960938,0.009587287902832031,-0.009587287902832031,0.5899744033813477,0.4346904754638672,-0.6388301849365234,0.2341766357421875
208,274372000.0,9.35443115234375,-2.0794267654418945,1.9022512435913086,0.026632308959960938,0.009587287902832031,-0.009587287902832031,0.5899744033813477,0.4346904754638672,-0.6388301849365234,0.2341766357421875
209,274372032.0,9.295770645141602,-2.098581314086914,1.9106311798095703,0.013848304748535156,-0.01597881317138672,0.004261016845703125,0.5899744033813477,0.4346904754638672,-0.6388301849365234,0.2341766357421875
210,274372032.0,9.33527660369873,-2.0818214416503906,1.880702018737793,0.013848304748535156,-0.01597881317138672,0.004261016845703125,0.5899744033813477,0.4346904754638672,-0.6388301849365234,0.2341766357421875
211,274372032.0,9.33527660369873,-2.0818214416503906,1.880702018737793,0.013848304748535156,-0.01597881317138672,0.004261016845703125,0.5899744033813477,0.4346904754638672,-0.6388301849365234,0.2341766357421875
212,274372032.0,9.33527660369873,-2.0818214416503906,1.880702018737793,0.013848304748535156,-0.01597881317138672,0.004261016845703125,0.5899744033813477,0.4346904754638672,-0.6388301849365234,0.2341766357421875
213,274372064.0,9.312531471252441,-2.0566816329956055,1.9070396423339844,0.014913558959960938,-0.0031957626342773438,0.010652542114257812,0.5899744033813477,0.4346904754638672,-0.6388301849365234,0.2341766357421875
214,274372064.0,9.312531471252441,-2.0566816329956055,1.9070396423339844,0.014913558959960938,-0.0031957626342773438,0.010652542114257812,0.5899744033813477,0.4346904754638672,-0.6388301849365234,0.2341766357421875
215,274372064.0,9.312531471252441,-2.0566816329956055,1.9070396423339844,0.014913558959960938,-0.0031957626342773438,0.010652542114257812,0.5899744033813477,0.4346904754638672,-0.6388301849365234,0.2341766357421875
216,274372096.0,9.4071044921875,-2.012387275695801,1.8711252212524414,-0.026632308959960938,-0.0021305084228515625,0.0010652542114257812,0.5899744033813477,0.4346904754638672,-0.6388301849365234,0.2341766357421875
217,274372096.0,9.393936157226562,-2.071046829223633,1.9118280410766602,-0.026632308959960938,-0.0021305084228515625,0.0010652542114257812,0.5899744033813477,0.4346904754638672,-0.6388301849365234,0.2341766357421875
218,274372096.0,9.4071044921875,-2.012387275695801,1.8711252212524414,-0.026632308959960938,-0.0021305084228515625,0.0010652542114257812,0.5899744033813477,0.4346904754638672,-0.6388301849365234,0.2341766357421875
219,274372096.0,9.393936157226562,-2.071046829223633,1.9118280410766602,-0.026632308959960938,-0.0021305084228515625,0.0010652542114257812,0.5899744033813477,0.4346904754638672,-0.6388301849365234,0.2341766357421875
220,274372096.0,9.4071044921875,-2.012387275695801,1.8711252212524414,-0.026632308959960938,-0.0021305084228515625,0.0010652542114257812,0.5899744033813477,0.4346904754638672,-0.6388301849365234,0.2341766357421875
221,274372096.0,9.393936157226562,-2.071046829223633,1.9118280410766602,-0.026632308959960938,-0.0021305084228515625,0.0010652542114257812,0.5899744033813477,0.4346904754638672,-0.6388301849365234,0.2341766357421875
222,274372128.0,9.366402626037598,-2.128509521484375,1.8878850936889648,-0.0031957626342773438,-0.009587287902832031,0.0,0.5899744033813477,0.4346904754638672,-0.6388301849365234,0.2341766357421875
223,274372128.0,9.366402626037598,-2.128509521484375,1.8878850936889648,-0.0031957626342773438,-0.009587287902832031,0.0,0.5899744033813477,0.4346904754638672,-0.6388301849365234,0.2341766357421875
224,274372128.0,9.366402626037598,-2.128509521484375,1.8878850936889648,-0.0031957626342773438,-0.009587287902832031,0.0,0.5899744033813477,0.4346904754638672,-0.6388301849365234,0.2341766357421875
225,274372256.0,9.359219551086426,-1.9585161209106445,1.9082365036010742,-0.04367637634277344,0.0,-0.0063915252685546875,0.5899744033813477,0.4346904754638672,-0.6388301849365234,0.2341766357421875
226,274372256.0,9.399922370910645,-2.037527084350586,1.8531684875488281,-0.04367637634277344,0.0,-0.0063915252685546875,0.5899744033813477,0.4346904754638672,-0.6388301849365234,0.2341766357421875
227,274372288.0,9.371191024780273,-2.1021728515625,1.9082365036010742,-0.0010652542114257812,-0.0031957626342773438,-0.012783050537109375,0.5899744033813477,0.4346904754638672,-0.6388301849365234,0.2341766357421875
228,274372288.0,9.381964683532715,-2.1297073364257812,1.91302490234375,-0.0010652542114257812,-0.0031957626342773438,-0.012783050537109375,0.5899744033813477,0.4346904754638672,-0.6388301849365234,0.2341766357421875
229,274372320.0,9.423864364624023,-1.9836559295654297,1.8388023376464844,0.007456779479980469,-0.0031957626342773438,-0.010652542114257812,0.5899744033813477,0.4346904754638672,-0.6388301849365234,0.2341766357421875
230,274372352.0,9.365204811096191,-2.018373489379883,1.8723220825195312,-0.04793834686279297,-0.0010652542114257812,-0.023435592651367188,0.5899744033813477,0.4346904754638672,-0.6388301849365234,0.2341766357421875
231,274372352.0,9.329291343688965,-2.1117496490478516,1.883096694946289,-0.04793834686279297,-0.0010652542114257812,-0.023435592651367188,0.5899744033813477,0.4346904754638672,-0.6388301849365234,0.2341766357421875
232,274372352.0,9.365204811096191,-2.018373489379883,1.8723220825195312,-0.04793834686279297,-0.0010652542114257812,-0.023435592651367188,0.5899744033813477,0.4346904754638672,-0.6388301849365234,0.2341766357421875
233,274372352.0,9.329291343688965,-2.1117496490478516,1.883096694946289,-0.04793834686279297,-0.0010652542114257812,-0.023435592651367188,0.5899744033813477,0.4346904754638672,-0.6388301849365234,0.2341766357421875
234,274372384.0,9.325699806213379,-2.160832405090332,1.91302490234375,-0.0287628173828125,-0.007456779479980469,-0.023435592651367188,0.5899744033813477,0.4346904754638672,-0.6388301849365234,0.2341766357421875
235,274372384.0,9.325699806213379,-2.160832405090332,1.91302490234375,-0.0287628173828125,-0.007456779479980469,-0.023435592651367188,0.5899744033813477,0.4346904754638672,-0.6388301849365234,0.2341766357421875
236,274372416.0,9.378373146057129,-2.0423154830932617,1.9321794509887695,-0.0980072021484375,0.0,0.0010652542114257812,0.5899744033813477,0.4346904754638672,-0.6388301849365234,0.2341766357421875
237,274372416.0,9.341261863708496,-2.099778175354004,1.9046449661254883,-0.0980072021484375,0.0,0.0010652542114257812,0.5899744033813477,0.4346904754638672,-0.6388301849365234,0.2341766357421875
238,274372416.0,9.378373146057129,-2.0423154830932617,1.9321794509887695,-0.0980072021484375,0.0,0.0010652542114257812,0.5899744033813477,0.4346904754638672,-0.6388301849365234,0.2341766357421875
239,274372416.0,9.341261863708496,-2.099778175354004,1.9046449661254883,-0.0980072021484375,0.0,0.0010652542114257812,0.5899744033813477,0.4346904754638672,-0.6388301849365234,0.2341766357421875
240,274372544.0,9.391542434692383,-2.1991405487060547,1.8663368225097656,-0.0980072021484375,0.0,0.0010652542114257812,0.5925636291503906,0.43054771423339844,-0.6402978897094727,0.23124217987060547
241,274372576.0,9.384359359741211,-2.2386465072631836,1.8196487426757812,-0.0980072021484375,0.0,0.0010652542114257812,0.5925636291503906,0.43054771423339844,-0.6402978897094727,0.23124217987060547
242,274372576.0,9.419075965881348,-2.1728038787841797,1.8100709915161133,-0.0980072021484375,0.0,0.0010652542114257812,0.5925636291503906,0.43054771423339844,-0.6402978897094727,0.23124217987060547
243,274372608.0,9.344853401184082,-2.194352149963379,1.828028678894043,-0.0980072021484375,0.0,0.0010652542114257812,0.5925636291503906,0.43054771423339844,-0.6402978897094727,0.23124217987060547
244,274372608.0,9.332881927490234,-2.160832405090332,1.880702018737793,-0.0980072021484375,0.0,0.0010652542114257812,0.5925636291503906,0.43054771423339844,-0.6402978897094727,0.23124217987060547
245,274372640.0,9.40590763092041,-2.094989776611328,1.8196487426757812,-0.042611122131347656,-0.012783050537109375,0.021305084228515625,0.5925636291503906,0.43054771423339844,-0.6402978897094727,0.23124217987060547
246,274372640.0,9.40590763092041,-2.094989776611328,1.8196487426757812,-0.042611122131347656,-0.012783050537109375,0.021305084228515625,0.5925636291503906,0.43054771423339844,-0.6402978897094727,0.23124217987060547
247,274372672.0,9.317319869995117,-2.1512556076049805,1.8759136199951172,-0.03621959686279297,-0.01597881317138672,0.02982807159423828,0.5925636291503906,0.43054771423339844,-0.6402978897094727,0.23124217987060547
248,274372672.0,9.320911407470703,-2.2063236236572266,1.8627452850341797,-0.03621959686279297,-0.01597881317138672,0.02982807159423828,0.5925636291503906,0.43054771423339844,-0.6402978897094727,0.23124217987060547
249,274372672.0,9.317319869995117,-2.1512556076049805,1.8759136199951172,-0.03621959686279297,-0.01597881317138672,0.02982807159423828,0.5925636291503906,0.43054771423339844,-0.6402978897094727,0.23124217987060547
250,274372672.0,9.320911407470703,-2.2063236236572266,1.8627452850341797,-0.03621959686279297,-0.01597881317138672,0.02982807159423828,0.5925636291503906,0.43054771423339844,-0.6402978897094727,0.23124217987060547
251,274372704.0,9.366402626037598,-2.1368894577026367,1.8878850936889648,0.0170440673828125,-0.013848304748535156,0.030893325805664062,0.5925636291503906,0.43054771423339844,-0.6402978897094727,0.23124217987060547
252,274372704.0,9.366402626037598,-2.1368894577026367,1.8878850936889648,0.0170440673828125,-0.013848304748535156,0.030893325805664062,0.5925636291503906,0.43054771423339844,-0.6402978897094727,0.23124217987060547
253,274372736.0,9.353233337402344,-1.9992189407348633,1.886688232421875,0.013848304748535156,-0.012783050537109375,0.02982807159423828,0.5925636291503906,0.43054771423339844,-0.6402978897094727,0.23124217987060547
254,274372736.0,9.353233337402344,-1.9992189407348633,1.886688232421875,0.013848304748535156,-0.012783050537109375,0.02982807159423828,0.5925636291503906,0.43054771423339844,-0.6402978897094727,0.23124217987060547
255,274372832.0,9.320911407470703,-2.189563751220703,1.8388023376464844,0.01810932159423828,-0.007456779479980469,-0.005326271057128906,0.5925636291503906,0.43054771423339844,-0.6402978897094727,0.23124217987060547
256,274372864.0,9.360416412353516,-2.1811838150024414,1.8376054763793945,0.0063915252685546875,-0.0063915252685546875,0.0010652542114257812,0.5925636291503906,0.43054771423339844,-0.6402978897094727,0.23124217987060547
257,274372864.0,9.342459678649902,-2.2087182998657227,1.8172540664672852,0.0063915252685546875,-0.0063915252685546875,0.0010652542114257812,0.5925636291503906,0.43054771423339844,-0.6402978897094727,0.23124217987060547
258,274372896.0,9.389147758483887,-2.260194778442383,1.814859390258789,0.007456779479980469,-0.019174575805664062,0.004261016845703125,0.5925636291503906,0.43054771423339844,-0.6402978897094727,0.23124217987060547
259,274372928.0,9.361613273620605,-2.218295097351074,1.8040857315063477,0.005326271057128906,-0.023435592651367188,0.024501800537109375,0.5925636291503906,0.43054771423339844,-0.6402978897094727,0.23124217987060547
260,274372928.0,9.484918594360352,-2.033935546875,1.9836559295654297,0.005326271057128906,-0.023435592651367188,0.024501800537109375,0.5925636291503906,0.43054771423339844,-0.6402978897094727,0.23124217987060547
261,274372960.0,9.794977188110352,-1.8615484237670898,2.099778175354004,0.005326271057128906,-0.023435592651367188,0.024501800537109375,0.5977859497070312,0.4276561737060547,-0.6391324996948242,0.2263650894165039
262,274372992.0,10.084684371948242,-2.4002599716186523,2.175198554992676,0.005326271057128906,-0.023435592651367188,0.024501800537109375,0.6014547348022461,0.42420291900634766,-0.6396503448486328,0.22174739837646484
263,274372992.0,10.933454513549805,-3.2633962631225586,2.312869071960449,0.005326271057128906,-0.023435592651367188,0.024501800537109375,0.6014547348022461,0.42420291900634766,-0.6396503448486328,0.22174739837646484
264,274373024.0,11.911516189575195,-3.6045799255371094,2.6073646545410156,0.005326271057128906,-0.023435592651367188,0.024501800537109375,0.6099138259887695,0.41820430755615234,-0.6388301849365234,0.2120800018310547
265,274373056.0,12.153337478637695,-4.695172309875488,2.934183120727539,-0.9939212799072266,-0.5688676834106445,0.6519613265991211,0.6099138259887695,0.41820430755615234,-0.6388301849365234,0.2120800018310547
266,274373056.0,12.692049980163574,-7.180429458618164,2.832426071166992,-0.9939212799072266,-0.5688676834106445,0.6519613265991211,0.6099138259887695,0.41820430755615234,-0.6388301849365234,0.2120800018310547
267,274373088.0,12.943449020385742,-9.54597282409668,3.5100059509277344,1.9026203155517578,-0.7915153503417969,1.6693201065063477,0.6099138259887695,0.41820430755615234,-0.6388301849365234,0.2120800018310547
268,274373088.0,12.252700805664062,-10.389954566955566,3.496837615966797,1.9026203155517578,-0.7915153503417969,1.6693201065063477,0.6099138259887695,0.41820430755615234,-0.6388301849365234,0.2120800018310547
269,274373120.0,14.103474617004395,-13.306180953979492,3.671619415283203,3.531458854675293,-1.3582534790039062,2.4874677658081055,0.6099138259887695,0.41820430755615234,-0.6388301849365234,0.2120800018310547
270,274373152.0,18.338947296142578,-15.03963565826416,6.998464584350586,3.531458854675293,-1.3582534790039062,2.4874677658081055,0.6099138259887695,0.41820430755615234,-0.6388301849365234,0.2120800018310547
271,274373152.0,24.403644561767578,-12.827325820922852,12.112635612487793,3.531458854675293,-1.3582534790039062,2.4874677658081055,0.6099138259887695,0.41820430755615234,-0.6388301849365234,0.2120800018310547
272,274373184.0,26.37652587890625,-12.774652481079102,5.716330528259277,3.531458854675293,-1.3582534790039062,2.4874677658081055,0.6099138259887695,0.41820430755615234,-0.6388301849365234,0.2120800018310547
273,274373184.0,23.619518280029297,-21.95310401916504,0.17478179931640625,3.531458854675293,-1.3582534790039062,2.4874677658081055,0.6099138259887695,0.41820430755615234,-0.6388301849365234,0.2120800018310547
274,274373216.0,22.084789276123047,-33.03620147705078,1.7813396453857422,3.531458854675293,-1.3582534790039062,2.4874677658081055,0.6099138259887695,0.41820430755615234,-0.6388301849365234,0.2120800018310547
275,274373344.0,18.692102432250977,-9.745894432067871,-13.33730697631836,4.518989562988281,1.7332372665405273,11.968610763549805,0.4640817642211914,0.8370561599731445,-0.03232574462890625,-0.2879962921142578
276,274373376.0,20.941524505615234,-7.484501838684082,-12.64895248413086,4.518989562988281,1.7332372665405273,11.968610763549805,0.4640817642211914,0.8370561599731445,-0.03232574462890625,-0.2879962921142578
277,274373376.0,21.117502212524414,0.7518014907836914,-14.168120384216309,4.518989562988281,1.7332372665405273,11.968610763549805,0.4640817642211914,0.8370561599731445,-0.03232574462890625,-0.2879962921142578
278,274373408.0,19.71685218811035,7.890332221984863,-13.40674114227295,4.518989562988281,1.7332372665405273,11.968610763549805,0.4640817642211914,0.8370561599731445,-0.03232574462890625,-0.2879962921142578
279,274373408.0,15.55919361114502,9.02641487121582,-11.262667655944824,4.518989562988281,1.7332372665405273,11.968610763549805,0.4640817642211914,0.8370561599731445,-0.03232574462890625,-0.2879962921142578
280,274373440.0,10.76705265045166,10.212778091430664,-7.897514343261719,4.518989562988281,1.7332372665405273,11.968610763549805,0.4640817642211914,0.8370561599731445,-0.03232574462890625,-0.2879962921142578
281,274373440.0,10.76705265045166,10.212778091430664,-7.897514343261719,4.518989562988281,1.7332372665405273,11.968610763549805,0.4640817642211914,0.8370561599731445,-0.03232574462890625,-0.2879962921142578
282,274373472.0,7.672452926635742,10.676070213317871,-6.410670280456543,4.518989562988281,1.7332372665405273,11.968610763549805,0.4640817642211914,0.8370561599731445,-0.03232574462890625,-0.2879962921142578
283,274373472.0,5.047130584716797,10.245100975036621,-6.155679702758789,4.518989562988281,1.7332372665405273,11.968610763549805,0.4640817642211914,0.8370561599731445,-0.03232574462890625,-0.2879962921142578
284,274373472.0,7.672452926635742,10.676070213317871,-6.410670280456543,4.518989562988281,1.7332372665405273,11.968610763549805,0.4640817642211914,0.8370561599731445,-0.03232574462890625,-0.2879962921142578
285,274373472.0,5.047130584716797,10.245100975036621,-6.155679702758789,4.518989562988281,1.7332372665405273,11.968610763549805,0.4640817642211914,0.8370561599731445,-0.03232574462890625,-0.2879962921142578
286,274373504.0,4.679609298706055,9.438230514526367,-5.007624626159668,4.518989562988281,1.7332372665405273,11.968610763549805,0.4640817642211914,0.8370561599731445,-0.03232574462890625,-0.2879962921142578
287,274373504.0,5.740273475646973,10.253480911254883,-4.608978271484375,4.518989562988281,1.7332372665405273,11.968610763549805,0.4640817642211914,0.8370561599731445,-0.03232574462890625,-0.2879962921142578
288,274373504.0,4.679609298706055,9.438230514526367,-5.007624626159668,4.518989562988281,1.7332372665405273,11.968610763549805,0.4640817642211914,0.8370561599731445,-0.03232574462890625,-0.2879962921142578
289,274373504.0,5.740273475646973,10.253480911254883,-4.608978271484375,4.518989562988281,1.7332372665405273,11.968610763549805,0.4640817642211914,0.8370561599731445,-0.03232574462890625,-0.2879962921142578
290,274373728.0,30.04934310913086,-1.0690431594848633,-9.4968900680542,-7.006457328796387,6.39710807800293,-13.959650993347168,-0.10155200958251953,0.7769365310668945,0.3410367965698242,-0.5194110870361328
291,274373760.0,32.03419876098633,-6.130539894104004,-9.80575180053711,-4.773594856262207,7.137489318847656,-15.170893669128418,-0.10155200958251953,0.7769365310668945,0.3410367965698242,-0.5194110870361328
292,274373792.0,33.19063186645508,-6.702771186828613,-3.7171106338500977,-4.896103858947754,4.186616897583008,-19.058162689208984,-0.10155200958251953,0.7769365310668945,0.3410367965698242,-0.5194110870361328
293,274373792.0,39.226600646972656,1.4341697692871094,3.025165557861328,-4.896103858947754,4.186616897583008,-19.058162689208984,-0.10155200958251953,0.7769365310668945,0.3410367965698242,-0.5194110870361328
294,274373824.0,39.226600646972656,9.572309494018555,-16.461833953857422,4.450810432434082,10.465476989746094,-13.861642837524414,-0.10155200958251953,0.7769365310668945,0.3410367965698242,-0.5194110870361328
295,274373824.0,38.46402359008789,-39.226600646972656,-20.46027374267578,4.450810432434082,10.465476989746094,-13.861642837524414,-0.10155200958251953,0.7769365310668945,0.3410367965698242,-0.5194110870361328
296,274373856.0,-1.971684455871582,-7.446193695068359,-39.226600646972656,29.608863830566406,12.05276870727539,-10.219392776489258,-0.10155200958251953,0.7769365310668945,0.3410367965698242,-0.5194110870361328
297,274373856.0,8.867196083068848,16.333740234375,-25.999427795410156,29.608863830566406,12.05276870727539,-10.219392776489258,-0.10155200958251953,0.7769365310668945,0.3410367965698242,-0.5194110870361328
298,274373888.0,17.91994857788086,37.70384216308594,39.10808181762695,-30.23525619506836,0.1214437484741211,-4.430569648742676,-0.10155200958251953,0.7769365310668945,0.3410367965698242,-0.5194110870361328
299,274373888.0,17.67812728881836,-1.3767070770263672,2.9916458129882812,-30.23525619506836,0.1214437484741211,-4.430569648742676,-0.10155200958251953,0.7769365310668945,0.3410367965698242,-0.5194110870361328
300,274373888.0,17.004138946533203,32.70698928833008,39.10808181762695,-30.23525619506836,0.1214437484741211,-4.430569648742676,-0.10155200958251953,0.7769365310668945,0.3410367965698242,-0.5194110870361328
301,274373920.0,4.685595512390137,-39.226600646972656,-38.94407653808594,-21.321918487548828,-6.1425018310546875,2.17746639251709,-0.10155200958251953,0.7769365310668945,0.3410367965698242,-0.5194110870361328
302,274373920.0,4.150474548339844,-25.084815979003906,-30.461158752441406,-21.321918487548828,-6.1425018310546875,2.17746639251709,-0.10155200958251953,0.7769365310668945,0.3410367965698242,-0.5194110870361328
303,274373920.0,17.540454864501953,-39.226600646972656,-16.156566619873047,-21.321918487548828,-6.1425018310546875,2.17746639251709,-0.10155200958251953,0.7769365310668945,0.3410367965698242,-0.5194110870361328
304,274374272.0,8.329681396484375,-1.510787010192871,1.1193227767944336,-2.7910776138305664,0.1555328369140625,1.5809001922607422,0.6947193145751953,0.27957916259765625,-0.6613588333129883,0.0419921875
305,274374272.0,8.329681396484375,-1.510787010192871,1.1193227767944336,-2.7910776138305664,0.1555328369140625,1.5809001922607422,0.6947193145751953,0.27957916259765625,-0.6613588333129883,0.0419921875
306,274374304.0,8.741496086120605,-2.449342727661133,1.0869998931884766,-2.7910776138305664,0.1555328369140625,1.5809001922607422,0.6947193145751953,0.27957916259765625,-0.6613588333129883,0.0419921875
307,274374304.0,9.201197624206543,-2.8707351684570312,0.33040904998779297,-2.7910776138305664,0.1555328369140625,1.5809001922607422,0.6947193145751953,0.27957916259765625,-0.6613588333129883,0.0419921875
308,274374304.0,8.741496086120605,-2.449342727661133,1.0869998931884766,-2.7910776138305664,0.1555328369140625,1.5809001922607422,0.6947193145751953,0.27957916259765625,-0.6613588333129883,0.0419921875
309,274374304.0,9.201197624206543,-2.8707351684570312,0.33040904998779297,-2.7910776138305664,0.1555328369140625,1.5809001922607422,0.6947193145751953,0.27957916259765625,-0.6613588333129883,0.0419921875
310,274374336.0,9.104228973388672,-3.4166297912597656,-0.0395050048828125,-2.7910776138305664,0.1555328369140625,1.5809001922607422,0.6947193145751953,0.27957916259765625,-0.6613588333129883,0.0419921875
311,274374336.0,9.104228973388672,-3.4166297912597656,-0.0395050048828125,-2.7910776138305664,0.1555328369140625,1.5809001922607422,0.6947193145751953,0.27957916259765625,-0.6613588333129883,0.0419921875
312,274374368.0,9.316122055053711,-3.803304672241211,0.15682411193847656,0.8969793319702148,-0.22264671325683594,-0.0031957626342773438,0.6947193145751953,0.27957916259765625,-0.6613588333129883,0.0419921875
313,274374368.0,9.316122055053711,-3.803304672241211,0.15682411193847656,0.8969793319702148,-0.22264671325683594,-0.0031957626342773438,0.6947193145751953,0.27957916259765625,-0.6613588333129883,0.0419921875
314,274374464.0,9.229928970336914,-4.51560115814209,0.30407238006591797,0.5933694839477539,-0.12677001953125,-0.11824703216552734,0.6947193145751953,0.27957916259765625,-0.6613588333129883,0.0419921875
315,274374464.0,9.229928970336914,-4.51560115814209,0.30407238006591797,0.5933694839477539,-0.12677001953125,-0.11824703216552734,0.6947193145751953,0.27957916259765625,-0.6613588333129883,0.0419921875
316,274374496.0,9.54716968536377,-4.174417495727539,0.4620943069458008,0.5933694839477539,-0.12677001953125,-0.11824703216552734,0.6947193145751953,0.27957916259765625,-0.6613588333129883,0.0419921875
317,274374496.0,9.54716968536377,-4.174417495727539,0.4620943069458008,0.5933694839477539,-0.12677001953125,-0.11824703216552734,0.6947193145751953,0.27957916259765625,-0.6613588333129883,0.0419921875
318,274374528.0,9.459778785705566,-3.6943655014038086,0.9182043075561523,0.5933694839477539,-0.12677001953125,-0.11824703216552734,0.6947193145751953,0.27957916259765625,-0.6613588333129883,0.0419921875
319,274374528.0,9.201197624206543,-3.27297306060791,1.4509296417236328,0.5933694839477539,-0.12677001953125,-0.11824703216552734,0.6947193145751953,0.27957916259765625,-0.6613588333129883,0.0419921875
320,274374528.0,9.459778785705566,-3.6943655014038086,0.9182043075561523,0.5933694839477539,-0.12677001953125,-0.11824703216552734,0.6947193145751953,0.27957916259765625,-0.6613588333129883,0.0419921875
321,274374528.0,9.201197624206543,-3.27297306060791,1.4509296417236328,0.5933694839477539,-0.12677001953125,-0.11824703216552734,0.6947193145751953,0.27957916259765625,-0.6613588333129883,0.0419921875
322,274374560.0,9.168874740600586,-2.971294403076172,1.8723220825195312,0.5933694839477539,-0.12677001953125,-0.11824703216552734,0.6947193145751953,0.27957916259765625,-0.6613588333129883,0.0419921875
323,274374560.0,9.168874740600586,-2.971294403076172,1.8723220825195312,0.5933694839477539,-0.12677001953125,-0.11824703216552734,0.6947193145751953,0.27957916259765625,-0.6613588333129883,0.0419921875
324,274374688.0,9.38675308227539,-2.407443046569824,1.8447885513305664,-0.2929563522338867,0.052199363708496094,0.005326271057128906,0.6947193145751953,0.27957916259765625,-0.6613588333129883,0.0419921875
325,274374688.0,9.21675968170166,-2.658841133117676,1.6759920120239258,-0.2929563522338867,0.052199363708496094,0.005326271057128906,0.6947193145751953,0.27957916259765625,-0.6613588333129883,0.0419921875
326,274374688.0,9.38675308227539,-2.407443046569824,1.8447885513305664,-0.2929563522338867,0.052199363708496094,0.005326271057128906,0.6947193145751953,0.27957916259765625,-0.6613588333129883,0.0419921875
327,274374688.0,9.21675968170166,-2.658841133117676,1.6759920120239258,-0.2929563522338867,0.052199363708496094,0.005326271057128906,0.6947193145751953,0.27957916259765625,-0.6613588333129883,0.0419921875
328,274374720.0,9.057540893554688,-2.9521398544311523,1.7154970169067383,-0.45807743072509766,0.14807605743408203,-0.004261016845703125,0.6947193145751953,0.27957916259765625,-0.6613588333129883,0.0419921875
329,274374720.0,9.009654998779297,-3.1987504959106445,1.6364860534667969,-0.45807743072509766,0.14807605743408203,-0.004261016845703125,0.6947193145751953,0.27957916259765625,-0.6613588333129883,0.0419921875
330,274374720.0,9.057540893554688,-2.9521398544311523,1.7154970169067383,-0.45807743072509766,0.14807605743408203,-0.004261016845703125,0.6947193145751953,0.27957916259765625,-0.6613588333129883,0.0419921875
331,274374720.0,9.009654998779297,-3.1987504959106445,1.6364860534667969,-0.45807743072509766,0.14807605743408203,-0.004261016845703125,0.6947193145751953,0.27957916259765625,-0.6613588333129883,0.0419921875
332,274374752.0,9.158100128173828,-3.307689666748047,1.5502920150756836,-0.334503173828125,0.12250900268554688,-0.011717796325683594,0.6947193145751953,0.27957916259765625,-0.6613588333129883,0.0419921875
333,274374752.0,9.158100128173828,-3.307689666748047,1.5502920150756836,-0.334503173828125,0.12250900268554688,-0.011717796325683594,0.6947193145751953,0.27957916259765625,-0.6613588333129883,0.0419921875
334,274374880.0,9.158100128173828,-2.9210147857666016,1.4844493865966797,-0.0628519058227539,0.0287628173828125,0.11398601531982422,0.6947193145751953,0.27957916259765625,-0.6613588333129883,0.0419921875
335,274374880.0,9.16767692565918,-2.84439754486084,1.4210014343261719,-0.0628519058227539,0.0287628173828125,0.11398601531982422,0.6947193145751953,0.27957916259765625,-0.6613588333129883,0.0419921875
336,274374912.0,9.099440574645996,-2.807286262512207,1.4904356002807617,-0.04687213897705078,0.04687213897705078,0.12357425689697266,0.6947193145751953,0.27957916259765625,-0.6613588333129883,0.0419921875
337,274374944.0,9.04676628112793,-3.0084056854248047,1.4437475204467773,-0.053264617919921875,0.0287628173828125,0.10759449005126953,0.5968799591064453,0.4368915557861328,-0.6424989700317383,0.20016765594482422
338,274374944.0,9.055146217346191,-2.9856605529785156,1.4593095779418945,-0.053264617919921875,0.0287628173828125,0.10759449005126953,0.5968799591064453,0.4368915557861328,-0.6424989700317383,0.20016765594482422
339,274374976.0,9.019232749938965,-3.0383338928222656,1.6233177185058594,-0.053264617919921875,0.0287628173828125,0.10759449005126953,0.597743034362793,0.4378843307495117,-0.6411609649658203,0.19964981079101562
340,274375008.0,9.047964096069336,-2.970097541809082,1.6472606658935547,-0.053264617919921875,0.0287628173828125,0.10759449005126953,0.5982608795166016,0.4404735565185547,-0.6384849548339844,0.2009449005126953
341,274375008.0,8.961770057678223,-2.967702865600586,1.514378547668457,-0.053264617919921875,0.0287628173828125,0.10759449005126953,0.5982608795166016,0.4404735565185547,-0.6384849548339844,0.2009449005126953
342,274375040.0,8.857619285583496,-3.069459915161133,1.7909173965454102,-0.053264617919921875,0.0287628173828125,0.10759449005126953,0.5982179641723633,0.4417686462402344,-0.6371908187866211,0.20228290557861328
343,274375040.0,8.7654390335083,-3.1376962661743164,2.0818214416503906,-0.053264617919921875,0.0287628173828125,0.10759449005126953,0.5982179641723633,0.4417686462402344,-0.6371908187866211,0.20228290557861328
344,274375072.0,8.929447174072266,-2.8264408111572266,1.7645797729492188,-0.053264617919921875,0.0287628173828125,0.10759449005126953,0.5982179641723633,0.4417686462402344,-0.6371908187866211,0.20228290557861328
345,274375104.0,9.508861541748047,-2.717501640319824,1.7131032943725586,-0.053264617919921875,0.0287628173828125,0.10759449005126953,0.5982179641723633,0.4417686462402344,-0.6371908187866211,0.20228290557861328
346,274375104.0,9.47773551940918,-2.616941452026367,1.8519706726074219,-0.053264617919921875,0.0287628173828125,0.10759449005126953,0.5982179641723633,0.4417686462402344,-0.6371908187866211,0.20228290557861328
347,274375136.0,8.986909866333008,-2.679192543029785,1.8256340026855469,-0.053264617919921875,0.0287628173828125,0.10759449005126953,0.5982179641723633,0.4417686462402344,-0.6371908187866211,0.20228290557861328
348,274375168.0,9.514846801757812,-2.9653091430664062,1.7035255432128906,-0.053264617919921875,0.0287628173828125,0.10759449005126953,0.5982179641723633,0.4417686462402344,-0.6371908187866211,0.20228290557861328
349,274375168.0,9.982928276062012,-3.058685302734375,1.5981779098510742,-0.053264617919921875,0.0287628173828125,0.10759449005126953,0.5982179641723633,0.4417686462402344,-0.6371908187866211,0.20228290557861328
350,274375168.0,9.870396614074707,-3.064671516418457,1.6496543884277344,-0.053264617919921875,0.0287628173828125,0.10759449005126953,0.5982179641723633,0.4417686462402344,-0.6371908187866211,0.20228290557861328
351,274375168.0,9.774625778198242,-3.0048141479492188,1.5909948348999023,-0.053264617919921875,0.0287628173828125,0.10759449005126953,0.5982179641723633,0.4417686462402344,-0.6371908187866211,0.20228290557861328
352,274375200.0,9.320911407470703,-2.900663375854492,1.6245145797729492,-0.053264617919921875,0.0287628173828125,0.10759449005126953,0.5982179641723633,0.4417686462402344,-0.6371908187866211,0.20228290557861328
353,274375200.0,8.78339672088623,-2.8587636947631836,1.6879634857177734,-0.053264617919921875,0.0287628173828125,0.10759449005126953,0.5982179641723633,0.4417686462402344,-0.6371908187866211,0.20228290557861328
354,274375200.0,8.851633071899414,-2.853975296020508,1.6197261810302734,-0.053264617919921875,0.0287628173828125,0.10759449005126953,0.5982179641723633,0.4417686462402344,-0.6371908187866211,0.20228290557861328
355,274375232.0,9.566324234008789,-2.7941179275512695,1.6496543884277344,-0.053264617919921875,0.0287628173828125,0.10759449005126953,0.5982179641723633,0.4417686462402344,-0.6371908187866211,0.20228290557861328
356,274375232.0,9.09465217590332,-2.84200382232666,1.6915550231933594,-0.053264617919921875,0.0287628173828125,0.10759449005126953,0.5982179641723633,0.4417686462402344,-0.6371908187866211,0.20228290557861328
357,274375232.0,9.88595962524414,-2.7605981826782227,1.6305007934570312,-0.053264617919921875,0.0287628173828125,0.10759449005126953,0.5982179641723633,0.4417686462402344,-0.6371908187866211,0.20228290557861328
358,274375264.0,9.872791290283203,-2.7426414489746094,1.5586719512939453,-0.053264617919921875,0.0287628173828125,0.10759449005126953,0.5982179641723633,0.4417686462402344,-0.6371908187866211,0.20228290557861328
359,274375264.0,9.584280967712402,-2.755809783935547,1.5502920150756836,-0.053264617919921875,0.0287628173828125,0.10759449005126953,0.5982179641723633,0.4417686462402344,-0.6371908187866211,0.20228290557861328
360,274375296.0,9.189226150512695,-2.832426071166992,1.5945863723754883,-0.053264617919921875,0.0287628173828125,0.10759449005126953,0.5982179641723633,0.4417686462402344,-0.6371908187866211,0.20228290557861328
361,274375296.0,9.344853401184082,-2.813272476196289,1.658034324645996,-0.053264617919921875,0.0287628173828125,0.10759449005126953,0.5982179641723633,0.4417686462402344,-0.6371908187866211,0.20228290557861328
362,274375328.0,9.273025512695312,-2.663630485534668,1.6436691284179688,-0.053264617919921875,0.0287628173828125,0.10759449005126953,0.5982179641723633,0.4417686462402344,-0.6371908187866211,0.20228290557861328
363,274375328.0,9.082680702209473,-2.6085615158081055,1.6795835494995117,-0.053264617919921875,0.0287628173828125,0.10759449005126953,0.5982179641723633,0.4417686462402344,-0.6371908187866211,0.20228290557861328
364,274375360.0,9.107820510864258,-2.6839818954467773,1.8136625289916992,0.10120296478271484,-0.04900360107421875,0.0862884521484375,0.5982179641723633,0.4417686462402344,-0.6371908187866211,0.20228290557861328
365,274375392.0,9.118595123291016,-2.6516590118408203,1.8818998336791992,0.09587669372558594,-0.010652542114257812,0.00852203369140625,0.5982179641723633,0.4417686462402344,-0.6371908187866211,0.20228290557861328
366,274375392.0,9.032401084899902,-2.53194522857666,1.7585945129394531,0.09587669372558594,-0.010652542114257812,0.00852203369140625,0.5982179641723633,0.4417686462402344,-0.6371908187866211,0.20228290557861328
367,274375424.0,8.929447174072266,-2.5929994583129883,1.8376054763793945,0.022370338439941406,-0.004261016845703125,-0.03515434265136719,0.5982179641723633,0.4417686462402344,-0.6371908187866211,0.20228290557861328
368,274375456.0,9.02521800994873,-2.816864013671875,1.883096694946289,0.0010652542114257812,-0.012783050537109375,-0.12996578216552734,0.5999870300292969,0.45061588287353516,-0.6301555633544922,0.19964981079101562
369,274375552.0,9.205986022949219,-3.007208824157715,1.763382911682129,0.045806884765625,0.012783050537109375,-0.1736431121826172,0.5985631942749023,0.4474649429321289,-0.6322708129882812,0.20409584045410156
370,274375584.0,9.23711109161377,-2.973689079284668,1.695145606994629,0.045806884765625,0.012783050537109375,-0.1736431121826172,0.5985631942749023,0.4474649429321289,-0.6322708129882812,0.20409584045410156
371,274375584.0,9.310136795043945,-2.974885940551758,1.6269092559814453,0.045806884765625,0.012783050537109375,-0.1736431121826172,0.5985631942749023,0.4474649429321289,-0.6322708129882812,0.20409584045410156
372,274375616.0,9.33647346496582,-3.064671516418457,1.5909948348999023,0.045806884765625,0.012783050537109375,-0.1736431121826172,0.5985631942749023,0.4474649429321289,-0.6322708129882812,0.20409584045410156
373,274375616.0,9.28619384765625,-3.089811325073242,1.5933895111083984,0.045806884765625,0.012783050537109375,-0.1736431121826172,0.5985631942749023,0.4474649429321289,-0.6322708129882812,0.20409584045410156
374,274375648.0,9.222745895385742,-3.002420425415039,1.6185293197631836,0.045806884765625,0.012783050537109375,-0.1736431121826172,0.5985631942749023,0.4474649429321289,-0.6322708129882812,0.20409584045410156
375,274375680.0,9.174860000610352,-3.0096025466918945,1.6592321395874023,0.045806884765625,0.012783050537109375,-0.1736431121826172,0.5985631942749023,0.4474649429321289,-0.6322708129882812,0.20409584045410156
376,274375680.0,9.16767692565918,-3.003617286682129,1.6436691284179688,0.045806884765625,0.012783050537109375,-0.1736431121826172,0.5985631942749023,0.4474649429321289,-0.6322708129882812,0.20409584045410156
377,274375712.0,9.158100128173828,-3.0239686965942383,1.6604290008544922,0.045806884765625,0.012783050537109375,-0.1736431121826172,0.5985631942749023,0.4474649429321289,-0.6322708129882812,0.20409584045410156
378,274375744.0,9.053949356079102,-2.970097541809082,1.6125431060791016,0.045806884765625,0.012783050537109375,-0.1736431121826172,0.5985631942749023,0.4474649429321289,-0.6322708129882812,0.20409584045410156
379,274375840.0,9.176057815551758,-2.968899726867676,1.7023286819458008,-0.0063915252685546875,-0.0170440673828125,-0.0287628173828125,0.602015495300293,0.44435787200927734,-0.6314077377319336,0.20366382598876953
380,274375840.0,9.176057815551758,-2.968899726867676,1.7023286819458008,-0.0063915252685546875,-0.0170440673828125,-0.0287628173828125,0.602015495300293,0.44435787200927734,-0.6314077377319336,0.20366382598876953
381,274375872.0,9.148523330688477,-3.037137031555176,1.7849311828613281,0.019174575805664062,-0.019174575805664062,-0.0170440673828125,0.602015495300293,0.44435787200927734,-0.6314077377319336,0.20366382598876953
382,274375872.0,9.148523330688477,-3.037137031555176,1.7849311828613281,0.019174575805664062,-0.019174575805664062,-0.0170440673828125,0.602015495300293,0.44435787200927734,-0.6314077377319336,0.20366382598876953
383,274375904.0,9.191619873046875,-2.96291446685791,1.7538061141967773,0.01597881317138672,-0.020239830017089844,0.005326271057128906,0.602015495300293,0.44435787200927734,-0.6314077377319336,0.20366382598876953
384,274375904.0,9.178451538085938,-2.906648635864258,1.7717628479003906,0.01597881317138672,-0.020239830017089844,0.005326271057128906,0.602015495300293,0.44435787200927734,-0.6314077377319336,0.20366382598876953
385,274375904.0,9.191619873046875,-2.96291446685791,1.7538061141967773,0.01597881317138672,-0.020239830017089844,0.005326271057128906,0.602015495300293,0.44435787200927734,-0.6314077377319336,0.20366382598876953
386,274375904.0,9.178451538085938,-2.906648635864258,1.7717628479003906,0.01597881317138672,-0.020239830017089844,0.005326271057128906,0.602015495300293,0.44435787200927734,-0.6314077377319336,0.20366382598876953
387,274375936.0,9.174860000610352,-2.9557313919067383,1.7478199005126953,-0.025567054748535156,-0.013848304748535156,0.042611122131347656,0.602015495300293,0.44435787200927734,-0.6314077377319336,0.20366382598876953
388,274375936.0,9.174860000610352,-2.9557313919067383,1.7478199005126953,-0.025567054748535156,-0.013848304748535156,0.042611122131347656,0.602015495300293,0.44435787200927734,-0.6314077377319336,0.20366382598876953
389,274375936.0,9.172466278076172,-3.000025749206543,1.7992973327636719,-0.025567054748535156,-0.013848304748535156,0.042611122131347656,0.602015495300293,0.44435787200927734,-0.6314077377319336,0.20366382598876953
390,274375968.0,9.182043075561523,-2.8862972259521484,1.7430315017700195,-0.025567054748535156,-0.013848304748535156,0.042611122131347656,0.602015495300293,0.44435787200927734,-0.6314077377319336,0.20366382598876953
391,274376000.0,9.197606086730957,-2.809680938720703,1.7478199005126953,-0.025567054748535156,-0.013848304748535156,0.042611122131347656,0.602015495300293,0.44435787200927734,-0.6314077377319336,0.20366382598876953
392,274376000.0,9.199999809265137,-2.8300323486328125,1.765777587890625,-0.025567054748535156,-0.013848304748535156,0.042611122131347656,0.602015495300293,0.44435787200927734,-0.6314077377319336,0.20366382598876953
393,274376032.0,9.203591346740723,-2.84200382232666,1.7119054794311523,-0.025567054748535156,-0.013848304748535156,0.042611122131347656,0.602015495300293,0.44435787200927734,-0.6314077377319336,0.20366382598876953
394,274376256.0,9.148523330688477,-2.9138317108154297,1.67120361328125,0.0287628173828125,-0.0021305084228515625,0.014913558959960938,0.6043033599853516,0.4478111267089844,-0.6272640228271484,0.2019805908203125
395,274376256.0,9.148523330688477,-2.9138317108154297,1.67120361328125,0.0287628173828125,-0.0021305084228515625,0.014913558959960938,0.6043033599853516,0.4478111267089844,-0.6272640228271484,0.2019805908203125
396,274376288.0,9.198802947998047,-2.907846450805664,1.6891603469848633,0.0287628173828125,-0.0021305084228515625,0.014913558959960938,0.6043033599853516,0.4478111267089844,-0.6272640228271484,0.2019805908203125
397,274376288.0,9.172466278076172,-2.7929210662841797,1.6891603469848633,0.0287628173828125,-0.0021305084228515625,0.014913558959960938,0.6043033599853516,0.4478111267089844,-0.6272640228271484,0.2019805908203125
398,274376288.0,9.198802947998047,-2.907846450805664,1.6891603469848633,0.0287628173828125,-0.0021305084228515625,0.014913558959960938,0.6043033599853516,0.4478111267089844,-0.6272640228271484,0.2019805908203125
399,274376288.0,9.172466278076172,-2.7929210662841797,1.6891603469848633,0.0287628173828125,-0.0021305084228515625,0.014913558959960938,0.6043033599853516,0.4478111267089844,-0.6272640228271484,0.2019805908203125
400,274376320.0,9.134157180786133,-2.814469337463379,1.7107086181640625,0.0287628173828125,-0.0021305084228515625,0.014913558959960938,0.6043033599853516,0.4478111267089844,-0.6272640228271484,0.2019805908203125
401,274376320.0,9.134157180786133,-2.814469337463379,1.7107086181640625,0.0287628173828125,-0.0021305084228515625,0.014913558959960938,0.6043033599853516,0.4478111267089844,-0.6272640228271484,0.2019805908203125
402,274376352.0,9.202394485473633,-2.8779172897338867,1.6987371444702148,0.0287628173828125,-0.0021305084228515625,0.014913558959960938,0.6043033599853516,0.4478111267089844,-0.6272640228271484,0.2019805908203125
403,274376352.0,9.202394485473633,-2.8779172897338867,1.6987371444702148,0.0287628173828125,-0.0021305084228515625,0.014913558959960938,0.6043033599853516,0.4478111267089844,-0.6272640228271484,0.2019805908203125
404,274376352.0,9.158100128173828,-2.907846450805664,1.668808937072754,0.0287628173828125,-0.0021305084228515625,0.014913558959960938,0.6043033599853516,0.4478111267089844,-0.6272640228271484,0.2019805908203125
405,274376384.0,9.155706405639648,-2.8970718383789062,1.6927518844604492,0.007456779479980469,-0.005326271057128906,-0.011717796325683594,0.6043033599853516,0.4478111267089844,-0.6272640228271484,0.2019805908203125
406,274376384.0,9.1868314743042,-2.8001041412353516,1.6484575271606445,0.007456779479980469,-0.005326271057128906,-0.011717796325683594,0.6043033599853516,0.4478111267089844,-0.6272640228271484,0.2019805908203125
407,274376416.0,9.245491027832031,-2.8228492736816406,1.6640205383300781,-0.05965614318847656,-0.004261016845703125,-0.013848304748535156,0.6043033599853516,0.4478111267089844,-0.6272640228271484,0.2019805908203125
408,274376448.0,9.21436595916748,-2.932986259460449,1.6891603469848633,-0.03728485107421875,-0.0021305084228515625,-0.019174575805664062,0.6043033599853516,0.4478111267089844,-0.6272640228271484,0.2019805908203125
409,274376544.0,9.155706405639648,-2.8515806198120117,1.7729597091674805,-0.013848304748535156,-0.005326271057128906,0.0010652542114257812,0.6043033599853516,0.4478111267089844,-0.6272640228271484,0.2019805908203125
410,274376544.0,9.155706405639648,-2.8515806198120117,1.7729597091674805,-0.013848304748535156,-0.005326271057128906,0.0010652542114257812,0.6043033599853516,0.4478111267089844,-0.6272640228271484,0.2019805908203125
411,274376544.0,9.155706405639648,-2.8515806198120117,1.7729597091674805,-0.013848304748535156,-0.005326271057128906,0.0010652542114257812,0.6043033599853516,0.4478111267089844,-0.6272640228271484,0.2019805908203125
412,274376576.0,9.170071601867676,-2.7929210662841797,1.759791374206543,-0.07989692687988281,0.0,0.0010652542114257812,0.6043033599853516,0.4478111267089844,-0.6272640228271484,0.2019805908203125
413,274376576.0,9.170071601867676,-2.7929210662841797,1.759791374206543,-0.07989692687988281,0.0,0.0010652542114257812,0.6043033599853516,0.4478111267089844,-0.6272640228271484,0.2019805908203125
414,274376576.0,9.170071601867676,-2.7929210662841797,1.759791374206543,-0.07989692687988281,0.0,0.0010652542114257812,0.6043033599853516,0.4478111267089844,-0.6272640228271484,0.2019805908203125
415,274376608.0,9.162888526916504,-2.8946781158447266,1.7214832305908203,-0.08735370635986328,0.009587287902832031,-0.005326271057128906,0.6043033599853516,0.4478111267089844,-0.6272640228271484,0.2019805908203125
416,274376608.0,9.141340255737305,-2.9832658767700195,1.665217399597168,-0.08735370635986328,0.009587287902832031,-0.005326271057128906,0.6043033599853516,0.4478111267089844,-0.6272640228271484,0.2019805908203125
417,274376608.0,9.162888526916504,-2.8946781158447266,1.7214832305908203,-0.08735370635986328,0.009587287902832031,-0.005326271057128906,0.6043033599853516,0.4478111267089844,-0.6272640228271484,0.2019805908203125
418,274376608.0,9.141340255737305,-2.9832658767700195,1.665217399597168,-0.08735370635986328,0.009587287902832031,-0.005326271057128906,0.6043033599853516,0.4478111267089844,-0.6272640228271484,0.2019805908203125
419,274376608.0,9.162888526916504,-2.8946781158447266,1.7214832305908203,-0.08735370635986328,0.009587287902832031,-0.005326271057128906,0.6043033599853516,0.4478111267089844,-0.6272640228271484,0.2019805908203125
420,274376608.0,9.141340255737305,-2.9832658767700195,1.665217399597168,-0.08735370635986328,0.009587287902832031,-0.005326271057128906,0.6043033599853516,0.4478111267089844,-0.6272640228271484,0.2019805908203125
421,274376640.0,9.140143394470215,-2.9832658767700195,1.6867656707763672,-0.03515434265136719,0.0021305084228515625,-0.021305084228515625,0.6043033599853516,0.4478111267089844,-0.6272640228271484,0.2019805908203125
422,274376640.0,9.140143394470215,-2.9832658767700195,1.6867656707763672,-0.03515434265136719,0.0021305084228515625,-0.021305084228515625,0.6043033599853516,0.4478111267089844,-0.6272640228271484,0.2019805908203125
423,274376640.0,9.140143394470215,-2.9832658767700195,1.6867656707763672,-0.03515434265136719,0.0021305084228515625,-0.021305084228515625,0.6043033599853516,0.4478111267089844,-0.6272640228271484,0.2019805908203125
424,274376672.0,9.205986022949219,-2.936577796936035,1.6831750869750977,-0.03515434265136719,0.0021305084228515625,-0.021305084228515625,0.6043033599853516,0.4478111267089844,-0.6272640228271484,0.2019805908203125
425,274376672.0,9.222745895385742,-2.8587636947631836,1.7226800918579102,-0.03515434265136719,0.0021305084228515625,-0.021305084228515625,0.6043033599853516,0.4478111267089844,-0.6272640228271484,0.2019805908203125
426,274376704.0,9.202394485473633,-2.882706642150879,1.7131032943725586,-0.03515434265136719,0.0021305084228515625,-0.021305084228515625,0.6043033599853516,0.4478111267089844,-0.6272640228271484,0.2019805908203125
427,274376704.0,9.21675968170166,-2.9186201095581055,1.6843719482421875,-0.03515434265136719,0.0021305084228515625,-0.021305084228515625,0.6043033599853516,0.4478111267089844,-0.6272640228271484,0.2019805908203125
428,274376736.0,9.172466278076172,-2.9760828018188477,1.6460638046264648,-0.012783050537109375,0.0021305084228515625,-0.009587287902832031,0.6077127456665039,0.4424161911010742,-0.6281700134277344,0.20081520080566406
429,274376864.0,9.201197624206543,-2.9653091430664062,1.631697654724121,-0.052199363708496094,0.0,0.005326271057128906,0.6081438064575195,0.44219970703125,-0.6280412673950195,0.200469970703125
430,274376864.0,9.213168144226074,-2.8659467697143555,1.6568374633789062,-0.052199363708496094,0.0,0.005326271057128906,0.6081438064575195,0.44219970703125,-0.6280412673950195,0.200469970703125
431,274376896.0,9.222745895385742,-2.84320068359375,1.635289192199707,-0.052199363708496094,0.0,0.005326271057128906,0.6081438064575195,0.44219970703125,-0.6280412673950195,0.200469970703125
432,274376928.0,9.220351219177246,-2.838412284851074,1.642472267150879,-0.052199363708496094,0.0,0.005326271057128906,0.6081438064575195,0.44219970703125,-0.6280412673950195,0.200469970703125
433,274376928.0,9.16408634185791,-2.898268699645996,1.6640205383300781,-0.052199363708496094,0.0,0.005326271057128906,0.6081438064575195,0.44219970703125,-0.6280412673950195,0.200469970703125
434,274376960.0,9.135354995727539,-2.91263484954834,1.668808937072754,-0.052199363708496094,0.0,0.005326271057128906,0.6081438064575195,0.44219970703125,-0.6280412673950195,0.200469970703125
435,274376960.0,9.199999809265137,-2.8276376724243164,1.67120361328125,-0.052199363708496094,0.0,0.005326271057128906,0.6081438064575195,0.44219970703125,-0.6280412673950195,0.200469970703125
436,274376960.0,9.135354995727539,-2.91263484954834,1.668808937072754,-0.052199363708496094,0.0,0.005326271057128906,0.6081438064575195,0.44219970703125,-0.6280412673950195,0.200469970703125
437,274376960.0,9.199999809265137,-2.8276376724243164,1.67120361328125,-0.052199363708496094,0.0,0.005326271057128906,0.6081438064575195,0.44219970703125,-0.6280412673950195,0.200469970703125
438,274376992.0,9.204788208007812,-2.812075614929199,1.668808937072754,-0.052199363708496094,0.0,0.005326271057128906,0.6081438064575195,0.44219970703125,-0.6280412673950195,0.200469970703125
439,274376992.0,9.204788208007812,-2.812075614929199,1.668808937072754,-0.052199363708496094,0.0,0.005326271057128906,0.6081438064575195,0.44219970703125,-0.6280412673950195,0.200469970703125
440,274377024.0,9.174860000610352,-2.8192577362060547,1.6759920120239258,-0.052199363708496094,0.0,0.005326271057128906,0.6081438064575195,0.44219970703125,-0.6280412673950195,0.200469970703125
441,274377024.0,9.126975059509277,-2.8240461349487305,1.6532459259033203,-0.052199363708496094,0.0,0.005326271057128906,0.6081438064575195,0.44219970703125,-0.6280412673950195,0.200469970703125
442,274377024.0,9.174860000610352,-2.8192577362060547,1.6759920120239258,-0.052199363708496094,0.0,0.005326271057128906,0.6081438064575195,0.44219970703125,-0.6280412673950195,0.200469970703125
443,274377024.0,9.126975059509277,-2.8240461349487305,1.6532459259033203,-0.052199363708496094,0.0,0.005326271057128906,0.6081438064575195,0.44219970703125,-0.6280412673950195,0.200469970703125
444,274377056.0,9.229928970336914,-2.853975296020508,1.6400775909423828,-0.020239830017089844,-0.013848304748535156,-0.0010652542114257812,0.6081438064575195,0.44219970703125,-0.6280412673950195,0.200469970703125
445,274377056.0,9.229928970336914,-2.853975296020508,1.6400775909423828,-0.020239830017089844,-0.013848304748535156,-0.0010652542114257812,0.6081438064575195,0.44219970703125,-0.6280412673950195,0.200469970703125
446,274377088.0,9.256265640258789,-2.8659467697143555,1.638880729675293,0.0010652542114257812,-0.0021305084228515625,-0.004261016845703125,0.6081438064575195,0.44219970703125,-0.6280412673950195,0.200469970703125
447,274377088.0,9.213168144226074,-2.8874950408935547,1.6783857345581055,0.0010652542114257812,-0.0021305084228515625,-0.004261016845703125,0.6081438064575195,0.44219970703125,-0.6280412673950195,0.200469970703125
448,274377088.0,9.256265640258789,-2.8659467697143555,1.638880729675293,0.0010652542114257812,-0.0021305084228515625,-0.004261016845703125,0.6081438064575195,0.44219970703125,-0.6280412673950195,0.200469970703125
449,274377088.0,9.213168144226074,-2.8874950408935547,1.6783857345581055,0.0010652542114257812,-0.0021305084228515625,-0.004261016845703125,0.6081438064575195,0.44219970703125,-0.6280412673950195,0.200469970703125
450,274377120.0,9.207182884216309,-2.820455551147461,1.727468490600586,0.019174575805664062,-0.0031957626342773438,-0.013848304748535156,0.6081438064575195,0.44219970703125,-0.6280412673950195,0.200469970703125
451,274377120.0,9.19640827178955,-2.7977094650268555,1.6915550231933594,0.019174575805664062,-0.0031957626342773438,-0.013848304748535156,0.6081438064575195,0.44219970703125,-0.6280412673950195,0.200469970703125
452,274377120.0,9.207182884216309,-2.820455551147461,1.727468490600586,0.019174575805664062,-0.0031957626342773438,-0.013848304748535156,0.6081438064575195,0.44219970703125,-0.6280412673950195,0.200469970703125
453,274377120.0,9.19640827178955,-2.7977094650268555,1.6915550231933594,0.019174575805664062,-0.0031957626342773438,-0.013848304748535156,0.6081438064575195,0.44219970703125,-0.6280412673950195,0.200469970703125
454,274377152.0,9.21556282043457,-2.8599605560302734,1.665217399597168,0.019174575805664062,-0.0031957626342773438,-0.013848304748535156,0.6081438064575195,0.44219970703125,-0.6280412673950195,0.200469970703125
455,274377184.0,9.21436595916748,-2.9030580520629883,1.6472606658935547,0.019174575805664062,-0.0031957626342773438,-0.013848304748535156,0.6081438064575195,0.44219970703125,-0.6280412673950195,0.200469970703125
456,274377184.0,9.188028335571289,-2.9581260681152344,1.674795150756836,0.019174575805664062,-0.0031957626342773438,-0.013848304748535156,0.6081438064575195,0.44219970703125,-0.6280412673950195,0.200469970703125
457,274377216.0,9.162888526916504,-2.847989082336426,1.6472606658935547,0.019174575805664062,-0.0031957626342773438,-0.013848304748535156,0.6081438064575195,0.44219970703125,-0.6280412673950195,0.200469970703125
458,274377248.0,9.18443775177002,-2.778554916381836,1.658034324645996,0.019174575805664062,-0.0031957626342773438,-0.013848304748535156,0.6081438064575195,0.44219970703125,-0.6280412673950195,0.200469970703125
459,274377248.0,9.18563461303711,-2.8036956787109375,1.6221208572387695,0.019174575805664062,-0.0031957626342773438,-0.013848304748535156,0.6081438064575195,0.44219970703125,-0.6280412673950195,0.200469970703125
460,274377280.0,9.205986022949219,-2.8527774810791016,1.6340923309326172,0.019174575805664062,-0.0031957626342773438,-0.013848304748535156,0.6081438064575195,0.44219970703125,-0.6280412673950195,0.200469970703125
461,274377280.0,9.201197624206543,-2.873128890991211,1.6376838684082031,0.019174575805664062,-0.0031957626342773438,-0.013848304748535156,0.6081438064575195,0.44219970703125,-0.6280412673950195,0.200469970703125
462,274377312.0,9.173663139343262,-2.832426071166992,1.6221208572387695,0.019174575805664062,-0.0031957626342773438,-0.013848304748535156,0.6081438064575195,0.44219970703125,-0.6280412673950195,0.200469970703125
463,274377344.0,9.21436595916748,-2.84439754486084,1.5814180374145508,-0.023435592651367188,-0.01597881317138672,-0.0287628173828125,0.6104316711425781,0.44077587127685547,-0.6272211074829102,0.19904613494873047
464,274377440.0,9.205986022949219,-2.9198179244995117,1.661625862121582,0.005326271057128906,-0.00852203369140625,-0.01597881317138672,0.6107330322265625,0.44008541107177734,-0.6273069381713867,0.19960689544677734
465,274377472.0,9.250279426574707,-2.8886919021606445,1.6831750869750977,0.005326271057128906,-0.00852203369140625,-0.01597881317138672,0.6107330322265625,0.44008541107177734,-0.6273069381713867,0.19960689544677734
466,274377504.0,9.246688842773438,-2.9198179244995117,1.6987371444702148,0.005326271057128906,-0.00852203369140625,-0.01597881317138672,0.6107330322265625,0.44008541107177734,-0.6273069381713867,0.19960689544677734
467,274377504.0,9.208379745483398,-2.974885940551758,1.6448659896850586,0.005326271057128906,-0.00852203369140625,-0.01597881317138672,0.6107330322265625,0.44008541107177734,-0.6273069381713867,0.19960689544677734
468,274377536.0,9.23471736907959,-2.966506004333496,1.6448659896850586,0.01597881317138672,-0.0010652542114257812,0.010652542114257812,0.6107330322265625,0.44008541107177734,-0.6273069381713867,0.19960689544677734
469,274377568.0,9.28619384765625,-2.869537353515625,1.642472267150879,0.0031957626342773438,0.0063915252685546875,0.021305084228515625,0.6107330322265625,0.44008541107177734,-0.6273069381713867,0.19960689544677734
470,274377568.0,9.21436595916748,-2.840806007385254,1.6400775909423828,0.0031957626342773438,0.0063915252685546875,0.021305084228515625,0.6107330322265625,0.44008541107177734,-0.6273069381713867,0.19960689544677734
471,274377600.0,9.16767692565918,-2.871932029724121,1.6305007934570312,-0.030893325805664062,0.010652542114257812,0.025567054748535156,0.6107330322265625,0.44008541107177734,-0.6273069381713867,0.19960689544677734
472,274377600.0,9.182043075561523,-2.879115104675293,1.6532459259033203,-0.030893325805664062,0.010652542114257812,0.025567054748535156,0.6107330322265625,0.44008541107177734,-0.6273069381713867,0.19960689544677734
473,274377632.0,9.119791984558105,-2.8587636947631836,1.6257123947143555,0.01597881317138672,0.0063915252685546875,0.011717796325683594,0.6107330322265625,0.44008541107177734,-0.6273069381713867,0.19960689544677734
474,274377664.0,9.168874740600586,-2.8013010025024414,1.6544437408447266,0.0010652542114257812,0.00852203369140625,0.0,0.6107330322265625,0.44008541107177734,-0.6273069381713867,0.19960689544677734
475,274377664.0,9.221549034118652,-2.8240461349487305,1.6305007934570312,0.0010652542114257812,0.00852203369140625,0.0,0.6107330322265625,0.44008541107177734,-0.6273069381713867,0.19960689544677734
476,274377664.0,9.168874740600586,-2.8013010025024414,1.6544437408447266,0.0010652542114257812,0.00852203369140625,0.0,0.6107330322265625,0.44008541107177734,-0.6273069381713867,0.19960689544677734
477,274377664.0,9.221549034118652,-2.8240461349487305,1.6305007934570312,0.0010652542114257812,0.00852203369140625,0.0,0.6107330322265625,0.44008541107177734,-0.6273069381713867,0.19960689544677734
478,274377696.0,9.16648006439209,-2.8671436309814453,1.6149377822875977,-0.025567054748535156,0.01597881317138672,-0.0031957626342773438,0.6107330322265625,0.44008541107177734,-0.6273069381713867,0.19960689544677734
479,274377696.0,9.16648006439209,-2.8671436309814453,1.6149377822875977,-0.025567054748535156,0.01597881317138672,-0.0031957626342773438,0.6107330322265625,0.44008541107177734,-0.6273069381713867,0.19960689544677734
480,274377728.0,9.141340255737305,-2.898268699645996,1.576629638671875,0.014913558959960938,-0.0031957626342773438,-0.0031957626342773438,0.6107330322265625,0.44008541107177734,-0.6273069381713867,0.19960689544677734
481,274377728.0,9.269433975219727,-2.901860237121582,1.580221176147461,0.014913558959960938,-0.0031957626342773438,-0.0031957626342773438,0.6107330322265625,0.44008541107177734,-0.6273069381713867,0.19960689544677734
482,274377728.0,9.141340255737305,-2.898268699645996,1.576629638671875,0.014913558959960938,-0.0031957626342773438,-0.0031957626342773438,0.6107330322265625,0.44008541107177734,-0.6273069381713867,0.19960689544677734
483,274377728.0,9.269433975219727,-2.901860237121582,1.580221176147461,0.014913558959960938,-0.0031957626342773438,-0.0031957626342773438,0.6107330322265625,0.44008541107177734,-0.6273069381713867,0.19960689544677734
484,274377856.0,9.211971282958984,-2.901860237121582,1.6807804107666016,-0.010652542114257812,0.0,0.01597881317138672,0.6107330322265625,0.44008541107177734,-0.6273069381713867,0.19960689544677734
485,274377888.0,9.190423011779785,-2.9222116470336914,1.635289192199707,0.007456779479980469,-0.00852203369140625,0.033023834228515625,0.6107330322265625,0.44008541107177734,-0.6273069381713867,0.19960689544677734
486,274377888.0,9.182043075561523,-2.9186201095581055,1.608952522277832,0.007456779479980469,-0.00852203369140625,0.033023834228515625,0.6107330322265625,0.44008541107177734,-0.6273069381713867,0.19960689544677734
487,274377920.0,9.249082565307617,-2.7989063262939453,1.7071170806884766,-0.09587669372558594,-0.019174575805664062,0.042611122131347656,0.6107330322265625,0.44008541107177734,-0.6273069381713867,0.19960689544677734
488,274377920.0,9.313728332519531,-2.7989063262939453,1.7729597091674805,-0.09587669372558594,-0.019174575805664062,0.042611122131347656,0.6107330322265625,0.44008541107177734,-0.6273069381713867,0.19960689544677734
489,274377952.0,9.457385063171387,-3.0682621002197266,1.883096694946289,-0.09587669372558594,-0.019174575805664062,0.042611122131347656,0.616948127746582,0.4362010955810547,-0.6267890930175781,0.19037151336669922
490,274377984.0,9.768640518188477,-3.189173698425293,1.8076772689819336,-0.09587669372558594,-0.019174575805664062,0.042611122131347656,0.6231632232666016,0.4301156997680664,-0.627436637878418,0.18165302276611328
491,274377984.0,10.058347702026367,-3.6596479415893555,1.8938703536987305,-0.09587669372558594,-0.019174575805664062,0.042611122131347656,0.6231632232666016,0.4301156997680664,-0.627436637878418,0.18165302276611328
492,274378016.0,10.054756164550781,-5.346414566040039,1.7478199005126953,-0.09587669372558594,-0.019174575805664062,0.042611122131347656,0.6413755416870117,0.41289520263671875,-0.6278247833251953,0.15480899810791016
493,274378048.0,10.089472770690918,-6.672842979431152,1.5095901489257812,-0.8341274261474609,-0.5923042297363281,0.8767385482788086,0.6413755416870117,0.41289520263671875,-0.6278247833251953,0.15480899810791016
494,274378144.0,19.214054107666016,-11.212388038635254,3.313675880432129,2.397982597351074,-1.830179214477539,2.9561986923217773,0.6413755416870117,0.41289520263671875,-0.6278247833251953,0.15480899810791016
495,274378144.0,19.214054107666016,-11.212388038635254,3.313675880432129,2.397982597351074,-1.830179214477539,2.9561986923217773,0.6413755416870117,0.41289520263671875,-0.6278247833251953,0.15480899810791016
496,274378176.0,20.292675018310547,-15.15575885772705,5.581053733825684,-1.6906261444091797,-2.012345314025879,4.476377487182617,0.6413755416870117,0.41289520263671875,-0.6278247833251953,0.15480899810791016
497,274378176.0,17.70566177368164,-20.066415786743164,5.196772575378418,-1.6906261444091797,-2.012345314025879,4.476377487182617,0.6413755416870117,0.41289520263671875,-0.6278247833251953,0.15480899810791016
498,274378176.0,20.292675018310547,-15.15575885772705,5.581053733825684,-1.6906261444091797,-2.012345314025879,4.476377487182617,0.6413755416870117,0.41289520263671875,-0.6278247833251953,0.15480899810791016
499,274378176.0,17.70566177368164,-20.066415786743164,5.196772575378418,-1.6906261444091797,-2.012345314025879,4.476377487182617,0.6413755416870117,0.41289520263671875,-0.6278247833251953,0.15480899810791016
500,274378208.0,15.620247840881348,-23.310657501220703,-0.24900436401367188,0.9118938446044922,-1.7705230712890625,5.932638168334961,0.6413755416870117,0.41289520263671875,-0.6278247833251953,0.15480899810791016
501,274378208.0,15.620247840881348,-23.310657501220703,-0.24900436401367188,0.9118938446044922,-1.7705230712890625,5.932638168334961,0.6413755416870117,0.41289520263671875,-0.6278247833251953,0.15480899810791016
502,274378240.0,17.20884895324707,-25.048900604248047,-3.3340272903442383,0.9118938446044922,-1.7705230712890625,5.932638168334961,0.6413755416870117,0.41289520263671875,-0.6278247833251953,0.15480899810791016
503,274378240.0,17.20884895324707,-25.048900604248047,-3.3340272903442383,0.9118938446044922,-1.7705230712890625,5.932638168334961,0.6413755416870117,0.41289520263671875,-0.6278247833251953,0.15480899810791016
504,274378240.0,16.846115112304688,-25.575641632080078,-6.277788162231445,0.9118938446044922,-1.7705230712890625,5.932638168334961,0.6413755416870117,0.41289520263671875,-0.6278247833251953,0.15480899810791016
505,274378272.0,18.77350616455078,-23.682968139648438,-10.345660209655762,0.9118938446044922,-1.7705230712890625,5.932638168334961,0.6413755416870117,0.41289520263671875,-0.6278247833251953,0.15480899810791016
506,274378304.0,18.74118423461914,-16.806610107421875,-12.733949661254883,0.9118938446044922,-1.7705230712890625,5.932638168334961,0.6413755416870117,0.41289520263671875,-0.6278247833251953,0.15480899810791016
507,274378304.0,15.34849739074707,-16.678516387939453,-18.18691062927246,0.9118938446044922,-1.7705230712890625,5.932638168334961,0.6413755416870117,0.41289520263671875,-0.6278247833251953,0.15480899810791016
508,274378336.0,18.210853576660156,-11.776239395141602,-18.30542755126953,0.9118938446044922,-1.7705230712890625,5.932638168334961,0.6413755416870117,0.41289520263671875,-0.6278247833251953,0.15480899810791016
509,274378336.0,20.171764373779297,-5.846817970275879,-14.047208786010742,0.9118938446044922,-1.7705230712890625,5.932638168334961,0.6413755416870117,0.41289520263671875,-0.6278247833251953,0.15480899810791016
510,274378368.0,20.183734893798828,-3.984072685241699,-8.020819664001465,0.9118938446044922,-1.7705230712890625,5.932638168334961,0.6413755416870117,0.41289520263671875,-0.6278247833251953,0.15480899810791016
511,274378400.0,20.23162078857422,-1.6376838684082031,-8.341652870178223,0.9118938446044922,-1.7705230712890625,5.932638168334961,0.6413755416870117,0.41289520263671875,-0.6278247833251953,0.15480899810791016
512,274378400.0,20.016136169433594,1.1923484802246094,-9.481327056884766,0.9118938446044922,-1.7705230712890625,5.932638168334961,0.6413755416870117,0.41289520263671875,-0.6278247833251953,0.15480899810791016
513,274378432.0,18.543657302856445,4.611372947692871,-10.513259887695312,6.994739532470703,2.0688066482543945,10.065990447998047,0.6413755416870117,0.41289520263671875,-0.6278247833251953,0.15480899810791016
514,274378464.0,16.06438446044922,8.66487979888916,-10.800572395324707,5.085726737976074,2.7655105590820312,9.014542579650879,0.6413755416870117,0.41289520263671875,-0.6278247833251953,0.15480899810791016
515,274378464.0,12.899154663085938,12.271854400634766,-9.469355583190918,5.085726737976074,2.7655105590820312,9.014542579650879,0.6413755416870117,0.41289520263671875,-0.6278247833251953,0.15480899810791016
516,274378496.0,10.114612579345703,13.376811981201172,-7.006844520568848,0.7638177871704102,1.8504199981689453,6.304427146911621,0.6413755416870117,0.41289520263671875,-0.6278247833251953,0.15480899810791016
517,274378496.0,7.6377363204956055,12.681275367736816,-3.7063369750976562,0.7638177871704102,1.8504199981689453,6.304427146911621,0.6413755416870117,0.41289520263671875,-0.6278247833251953,0.15480899810791016
518,274378528.0,5.619361877441406,10.415094375610352,-3.4226150512695312,1.5191125869750977,0.07989692687988281,2.558842658996582,-0.19615554809570312,0.650482177734375,0.4934720993041992,-0.5429754257202148
519,274378656.0,11.533221244812012,10.85803508758545,-2.9868574142456055,0.3185234069824219,-2.201968193054199,-6.262880325317383,-0.22075557708740234,0.6939859390258789,0.35778236389160156,-0.5844945907592773
520,274378656.0,15.514899253845215,8.310526847839355,-4.0606889724731445,0.3185234069824219,-2.201968193054199,-6.262880325317383,-0.22075557708740234,0.6939859390258789,0.35778236389160156,-0.5844945907592773
521,274378688.0,20.546466827392578,4.933403015136719,-4.838829040527344,0.3185234069824219,-2.201968193054199,-6.262880325317383,-0.22075557708740234,0.6939859390258789,0.35778236389160156,-0.5844945907592773
522,274378720.0,23.929576873779297,4.040338516235352,-7.0702924728393555,0.3185234069824219,-2.201968193054199,-6.262880325317383,-0.22075557708740234,0.6939859390258789,0.35778236389160156,-0.5844945907592773
523,274378720.0,28.99346923828125,3.867950439453125,-8.35601806640625,0.3185234069824219,-2.201968193054199,-6.262880325317383,-0.22075557708740234,0.6939859390258789,0.35778236389160156,-0.5844945907592773
524,274378752.0,33.249290466308594,0.8116588592529297,-10.403122901916504,0.3185234069824219,-2.201968193054199,-6.262880325317383,-0.22075557708740234,0.6939859390258789,0.35778236389160156,-0.5844945907592773
525,274378784.0,37.025062561035156,-3.4154319763183594,-11.889967918395996,0.3185234069824219,-2.201968193054199,-6.262880325317383,-0.22075557708740234,0.6939859390258789,0.35778236389160156,-0.5844945907592773
526,274378784.0,38.34071731567383,-4.929811477661133,-6.891919136047363,0.3185234069824219,-2.201968193054199,-6.262880325317383,-0.22075557708740234,0.6939859390258789,0.35778236389160156,-0.5844945907592773
527,274378816.0,39.226600646972656,8.946207046508789,-14.499727249145508,0.3185234069824219,-2.201968193054199,-6.262880325317383,-0.22075557708740234,0.6939859390258789,0.35778236389160156,-0.5844945907592773
528,274378816.0,39.226600646972656,-18.742382049560547,-39.226600646972656,0.3185234069824219,-2.201968193054199,-6.262880325317383,-0.22075557708740234,0.6939859390258789,0.35778236389160156,-0.5844945907592773
529,274378848.0,17.217227935791016,-39.226600646972656,-38.8626708984375,28.509475708007812,12.29565715789795,-7.515669822692871,-0.22075557708740234,0.6939859390258789,0.35778236389160156,-0.5844945907592773
530,274378880.0,3.984072685241699,13.014080047607422,-39.226600646972656,29.708999633789062,-1.3017921447753906,-5.479887008666992,-0.22075557708740234,0.6939859390258789,0.35778236389160156,-0.5844945907592773
531,274378880.0,35.12400817871094,37.30638885498047,39.10808181762695,29.708999633789062,-1.3017921447753906,-5.479887008666992,-0.22075557708740234,0.6939859390258789,0.35778236389160156,-0.5844945907592773
532,274378912.0,8.326089859008789,-14.696057319641113,0.6129341125488281,-23.336395263671875,-3.2108049392700195,-0.3387641906738281,-0.22075557708740234,0.6939859390258789,0.35778236389160156,-0.5844945907592773
533,274378944.0,6.941001892089844,-39.226600646972656,-23.869720458984375,4.874798774719238,-1.113234519958496,0.5156030654907227,-0.22075557708740234,0.6939859390258789,0.35778236389160156,-0.5844945907592773
534,274379040.0,8.95458698272705,-5.813298225402832,-0.07661628723144531,-0.05539512634277344,-0.5624761581420898,1.5020685195922852,-0.22075557708740234,0.6939859390258789,0.35778236389160156,-0.5844945907592773
535,274379040.0,8.95458698272705,-5.813298225402832,-0.07661628723144531,-0.05539512634277344,-0.5624761581420898,1.5020685195922852,-0.22075557708740234,0.6939859390258789,0.35778236389160156,-0.5844945907592773
536,274379072.0,10.066727638244629,-3.524372100830078,-0.5147686004638672,-0.05539512634277344,-0.5624761581420898,1.5020685195922852,-0.22075557708740234,0.6939859390258789,0.35778236389160156,-0.5844945907592773
537,274379072.0,10.066727638244629,-3.524372100830078,-0.5147686004638672,-0.05539512634277344,-0.5624761581420898,1.5020685195922852,-0.22075557708740234,0.6939859390258789,0.35778236389160156,-0.5844945907592773
538,274379104.0,10.419882774353027,-3.055093765258789,-0.7362394332885742,-0.05539512634277344,-0.5624761581420898,1.5020685195922852,-0.22075557708740234,0.6939859390258789,0.35778236389160156,-0.5844945907592773
539,274379104.0,9.35443115234375,-2.7031354904174805,-0.42977142333984375,-0.05539512634277344,-0.5624761581420898,1.5020685195922852,-0.22075557708740234,0.6939859390258789,0.35778236389160156,-0.5844945907592773
540,274379104.0,10.419882774353027,-3.055093765258789,-0.7362394332885742,-0.05539512634277344,-0.5624761581420898,1.5020685195922852,-0.22075557708740234,0.6939859390258789,0.35778236389160156,-0.5844945907592773
541,274379104.0,9.35443115234375,-2.7031354904174805,-0.42977142333984375,-0.05539512634277344,-0.5624761581420898,1.5020685195922852,-0.22075557708740234,0.6939859390258789,0.35778236389160156,-0.5844945907592773
542,274379136.0,8.810930252075195,-2.1692123413085938,-0.14605045318603516,0.25673580169677734,0.2301034927368164,1.0429248809814453,-0.22075557708740234,0.6939859390258789,0.35778236389160156,-0.5844945907592773
543,274379136.0,8.810930252075195,-2.1692123413085938,-0.14605045318603516,0.25673580169677734,0.2301034927368164,1.0429248809814453,-0.22075557708740234,0.6939859390258789,0.35778236389160156,-0.5844945907592773
544,274379360.0,8.868392944335938,-3.092205047607422,0.1364736557006836,0.49855804443359375,0.05113410949707031,0.29082584381103516,0.690058708190918,0.3202781677246094,-0.6488866806030273,-0.011782646179199219
545,274379360.0,8.956981658935547,-3.3340272903442383,0.23463821411132812,0.49855804443359375,0.05113410949707031,0.29082584381103516,0.690058708190918,0.3202781677246094,-0.6488866806030273,-0.011782646179199219
546,274379392.0,9.047964096069336,-3.434586524963379,0.16999340057373047,0.49855804443359375,0.05113410949707031,0.29082584381103516,0.7024021148681641,0.27854347229003906,-0.6538496017456055,0.038367271423339844
547,274379392.0,8.922264099121094,-3.4094467163085938,0.25379276275634766,0.49855804443359375,0.05113410949707031,0.29082584381103516,0.7024021148681641,0.27854347229003906,-0.6538496017456055,0.038367271423339844
548,274379424.0,8.703187942504883,-3.5088090896606445,0.457305908203125,0.49855804443359375,0.05113410949707031,0.29082584381103516,0.7043437957763672,0.2791481018066406,-0.6513462066650391,0.041431427001953125
549,274379456.0,8.601431846618652,-3.6979570388793945,0.3292121887207031,0.49855804443359375,0.05113410949707031,0.29082584381103516,0.7043437957763672,0.2791481018066406,-0.6513462066650391,0.041431427001953125
550,274379456.0,8.588262557983398,-3.802107810974121,0.2047100067138672,0.49855804443359375,0.05113410949707031,0.29082584381103516,0.7043437957763672,0.2791481018066406,-0.6513462066650391,0.041431427001953125
551,274379456.0,8.601431846618652,-3.6979570388793945,0.3292121887207031,0.49855804443359375,0.05113410949707031,0.29082584381103516,0.7043437957763672,0.2791481018066406,-0.6513462066650391,0.041431427001953125
552,274379456.0,8.588262557983398,-3.802107810974121,0.2047100067138672,0.49855804443359375,0.05113410949707031,0.29082584381103516,0.7043437957763672,0.2791481018066406,-0.6513462066650391,0.041431427001953125
553,274379488.0,8.718750953674316,-3.9697065353393555,0.173583984375,0.49855804443359375,0.05113410949707031,0.29082584381103516,0.7043437957763672,0.2791481018066406,-0.6513462066650391,0.041431427001953125
554,274379488.0,8.718750953674316,-3.9697065353393555,0.173583984375,0.49855804443359375,0.05113410949707031,0.29082584381103516,0.7043437957763672,0.2791481018066406,-0.6513462066650391,0.041431427001953125
555,274379520.0,8.887547492980957,-4.176812171936035,0.5243453979492188,0.49855804443359375,0.05113410949707031,0.29082584381103516,0.7043437957763672,0.2791481018066406,-0.6513462066650391,0.041431427001953125
556,274379520.0,9.021626472473145,-4.048718452453613,0.6668052673339844,0.49855804443359375,0.05113410949707031,0.29082584381103516,0.7043437957763672,0.2791481018066406,-0.6513462066650391,0.041431427001953125
557,274379520.0,8.887547492980957,-4.176812171936035,0.5243453979492188,0.49855804443359375,0.05113410949707031,0.29082584381103516,0.7043437957763672,0.2791481018066406,-0.6513462066650391,0.041431427001953125
558,274379520.0,9.021626472473145,-4.048718452453613,0.6668052673339844,0.49855804443359375,0.05113410949707031,0.29082584381103516,0.7043437957763672,0.2791481018066406,-0.6513462066650391,0.041431427001953125
559,274379552.0,9.110215187072754,-3.8152761459350586,0.5626544952392578,0.2876300811767578,-0.18003463745117188,-0.3792448043823242,0.7043437957763672,0.2791481018066406,-0.6513462066650391,0.041431427001953125
560,274379552.0,9.119791984558105,-3.8787240982055664,0.5770196914672852,0.2876300811767578,-0.18003463745117188,-0.3792448043823242,0.7043437957763672,0.2791481018066406,-0.6513462066650391,0.041431427001953125
561,274379584.0,9.180846214294434,-4.39469051361084,0.7194786071777344,0.020239830017089844,-0.1320962905883789,-0.38883304595947266,0.7043437957763672,0.2791481018066406,-0.6513462066650391,0.041431427001953125
562,274379616.0,9.158100128173828,-4.500039100646973,0.646453857421875,0.08202743530273438,-0.11079025268554688,-0.3504819869995117,0.7043437957763672,0.2791481018066406,-0.6513462066650391,0.041431427001953125
563,274379616.0,9.070709228515625,-4.362367630004883,0.6237077713012695,0.08202743530273438,-0.11079025268554688,-0.3504819869995117,0.7043437957763672,0.2791481018066406,-0.6513462066650391,0.041431427001953125
564,274379744.0,9.052752494812012,-4.2857513427734375,0.7063102722167969,0.25034427642822266,-0.11718177795410156,-0.05859088897705078,0.7043437957763672,0.2791481018066406,-0.6513462066650391,0.041431427001953125
565,274379744.0,9.052752494812012,-4.2857513427734375,0.7063102722167969,0.25034427642822266,-0.11718177795410156,-0.05859088897705078,0.7043437957763672,0.2791481018066406,-0.6513462066650391,0.041431427001953125
566,274379776.0,9.250279426574707,-4.1025896072387695,0.6859588623046875,0.25034427642822266,-0.11718177795410156,-0.05859088897705078,0.7043437957763672,0.2791481018066406,-0.6513462066650391,0.041431427001953125
567,274379776.0,9.23471736907959,-3.9445667266845703,0.6703968048095703,0.25034427642822266,-0.11718177795410156,-0.05859088897705078,0.7043437957763672,0.2791481018066406,-0.6513462066650391,0.041431427001953125
568,274379808.0,9.043174743652344,-3.919426918029785,0.5051918029785156,0.25034427642822266,-0.11718177795410156,-0.05859088897705078,0.7043437957763672,0.2791481018066406,-0.6513462066650391,0.041431427001953125
569,274379808.0,9.043174743652344,-3.919426918029785,0.5051918029785156,0.25034427642822266,-0.11718177795410156,-0.05859088897705078,0.7043437957763672,0.2791481018066406,-0.6513462066650391,0.041431427001953125
