,timestamp,accel_x,accel_y,accel_z,gyro_x,gyro_y,gyro_z,ori_scalar,ori_x,ori_y,ori_z
0,85984656.0,8.73670768737793,-1.9728822708129883,2.743838310241699,0.45381641387939453,-0.2641935348510742,0.3568744659423828,0.23383140563964844,-0.6608409881591797,-0.4553213119506836,-0.5488882064819336
1,85984672.0,8.675653457641602,-2.008795738220215,2.927000045776367,0.45381641387939453,-0.2641935348510742,0.3568744659423828,0.23383140563964844,-0.6608409881591797,-0.4553213119506836,-0.5488882064819336
2,85984688.0,8.931840896606445,-2.0578784942626953,2.9808712005615234,0.45381641387939453,-0.2641935348510742,0.3568744659423828,0.23383140563964844,-0.6608409881591797,-0.4553213119506836,-0.5488882064819336
3,85984712.0,9.083877563476562,-1.7442283630371094,3.3148727416992188,0.45381641387939453,-0.2641935348510742,0.3568744659423828,0.23383140563964844,-0.6608409881591797,-0.4553213119506836,-0.5488882064819336
4,85984728.0,8.883955955505371,-1.6795835494995117,3.1053733825683594,0.45381641387939453,-0.2641935348510742,0.3568744659423828,0.23383140563964844,-0.6608409881591797,-0.4553213119506836,-0.5488882064819336
5,85984752.0,8.741496086120605,-1.6472606658935547,2.960519790649414,0.45381641387939453,-0.2641935348510742,0.3568744659423828,0.23383140563964844,-0.6608409881591797,-0.4553213119506836,-0.5488882064819336
6,85984768.0,8.864801406860352,-1.6496543884277344,3.1029796600341797,0.2588663101196289,-0.2982826232910156,0.3057394027709961,0.23383140563964844,-0.6608409881591797,-0.4553213119506836,-0.5488882064819336
7,85984792.0,8.980923652648926,-1.7765512466430664,3.375926971435547,0.15340232849121094,-0.3046741485595703,0.24395275115966797,0.23383140563964844,-0.6608409881591797,-0.4553213119506836,-0.5488882064819336
8,85984808.0,8.851633071899414,-1.6556406021118164,3.5100059509277344,0.13103103637695312,-0.2705850601196289,0.2024059295654297,0.23383140563964844,-0.6608409881591797,-0.4553213119506836,-0.5488882064819336
9,85984832.0,8.743890762329102,-1.67120361328125,3.311281204223633,0.053264617919921875,-0.2641935348510742,0.16512012481689453,0.23383140563964844,-0.6608409881591797,-0.4553213119506836,-0.5488882064819336
10,85984848.0,8.749876022338867,-1.6209230422973633,3.20473575592041,0.053264617919921875,-0.2641935348510742,0.16512012481689453,0.23383140563964844,-0.6608409881591797,-0.4553213119506836,-0.5488882064819336
11,85984872.0,8.909095764160156,-1.4976186752319336,3.338815689086914,0.053264617919921875,-0.2641935348510742,0.16512012481689453,0.23383140563964844,-0.6608409881591797,-0.4553213119506836,-0.5488882064819336
12,85984888.0,8.982121467590332,-1.6664142608642578,3.2598047256469727,0.053264617919921875,-0.2641935348510742,0.16512012481689453,0.23383140563964844,-0.6608409881591797,-0.4553213119506836,-0.5488882064819336
13,85984912.0,8.808536529541016,-1.8759136199951172,3.0143909454345703,0.053264617919921875,-0.2641935348510742,0.16512012481689453,0.23236370086669922,-0.6609277725219727,-0.45195484161376953,-0.5522546768188477
14,85984928.0,8.721144676208496,-1.9704875946044922,2.9222116470336914,0.053264617919921875,-0.2641935348510742,0.16512012481689453,0.2309398651123047,-0.6606254577636719,-0.4477682113647461,-0.5565271377563477
15,85985048.0,9.391542434692383,-2.468496322631836,2.348782539367676,-0.1331615447998047,-0.2876300811767578,-0.061786651611328125,0.22925662994384766,-0.6567411422729492,-0.4271383285522461,-0.577631950378418
16,85985072.0,9.671671867370605,-2.351177215576172,2.2206897735595703,-0.1331615447998047,-0.2876300811767578,-0.061786651611328125,0.23106956481933594,-0.6545829772949219,-0.42774295806884766,-0.5789270401000977
17,85985088.0,9.520833015441895,-2.139284133911133,2.2937145233154297,-0.1331615447998047,-0.2876300811767578,-0.061786651611328125,0.2331838607788086,-0.652338981628418,-0.4293832778930664,-0.5794010162353516
18,85985112.0,9.149720191955566,-2.0866098403930664,2.3966684341430664,-0.1331615447998047,-0.2876300811767578,-0.061786651611328125,0.23508358001708984,-0.6503105163574219,-0.43158435821533203,-0.579315185546875
19,85985128.0,9.120988845825195,-2.1847753524780273,2.2997007369995117,-0.1331615447998047,-0.2876300811767578,-0.061786651611328125,0.2369823455810547,-0.6481962203979492,-0.43378543853759766,-0.579228401184082
20,85985448.0,9.508861541748047,-2.1177358627319336,2.068653106689453,-0.5443658828735352,-0.007456779479980469,-0.07137489318847656,0.24418926239013672,-0.6453046798706055,-0.43831634521484375,-0.5760784149169922
21,85985472.0,9.289785385131836,-2.1464672088623047,2.018373489379883,-0.5443658828735352,-0.007456779479980469,-0.07137489318847656,0.24418926239013672,-0.6453046798706055,-0.43831634521484375,-0.5760784149169922
22,85985488.0,9.328093528747559,-2.3092775344848633,2.2769546508789062,-0.5443658828735352,-0.007456779479980469,-0.07137489318847656,0.24418926239013672,-0.6453046798706055,-0.43831634521484375,-0.5760784149169922
23,85985504.0,9.571112632751465,-2.2422380447387695,2.226675033569336,-0.5443658828735352,-0.007456779479980469,-0.07137489318847656,0.24418926239013672,-0.6453046798706055,-0.43831634521484375,-0.5760784149169922
24,85985528.0,9.466961860656738,-2.29132080078125,2.037527084350586,-0.5443658828735352,-0.007456779479980469,-0.07137489318847656,0.24418926239013672,-0.6453046798706055,-0.43831634521484375,-0.5760784149169922
25,85985944.0,9.168874740600586,-2.378711700439453,2.130904197692871,-0.10439872741699219,0.033023834228515625,0.005326271057128906,0.2070302963256836,-0.6598482131958008,-0.4155721664428711,-0.5907955169677734
26,85985968.0,9.174860000610352,-2.5463104248046875,2.1428756713867188,-0.10120296478271484,0.01597881317138672,-0.007456779479980469,0.20586490631103516,-0.6601076126098633,-0.41514110565185547,-0.5911836624145508
27,85985984.0,9.227534294128418,-2.5714502334594727,2.1823806762695312,0.0,0.01810932159423828,-0.011717796325683594,0.2052602767944336,-0.6601076126098633,-0.415313720703125,-0.5912704467773438
28,85986008.0,9.100637435913086,-2.439764976501465,2.139284133911133,0.06391716003417969,0.022370338439941406,-0.012783050537109375,0.2052173614501953,-0.660064697265625,-0.4158744812011719,-0.590968132019043
29,85986024.0,9.058737754821777,-2.4242029190063477,2.1955490112304688,0.04687213897705078,0.0031957626342773438,-0.023435592651367188,0.20530414581298828,-0.659977912902832,-0.4163064956665039,-0.5907087326049805
30,85986144.0,9.198802947998047,-2.4864540100097656,2.2829408645629883,-0.03835010528564453,0.022370338439941406,0.021305084228515625,0.2040090560913086,-0.660064697265625,-0.4188957214355469,-0.5892419815063477
31,85986168.0,9.150917053222656,-2.3643455505371094,2.2506179809570312,0.025567054748535156,0.04367637634277344,0.024501800537109375,0.20357704162597656,-0.6601076126098633,-0.4193706512451172,-0.5889825820922852
32,85986184.0,9.014443397521973,-2.3296289443969727,2.175198554992676,0.02982807159423828,0.04474163055419922,0.00852203369140625,0.20336151123046875,-0.6602373123168945,-0.4198446273803711,-0.5885944366455078
33,85986208.0,9.031203269958496,-2.3344173431396484,2.1955490112304688,0.013848304748535156,0.024501800537109375,-0.020239830017089844,0.2032756805419922,-0.6603670120239258,-0.4200611114501953,-0.5883350372314453
34,85986224.0,9.113805770874023,-2.3739233016967773,2.2147035598754883,0.009587287902832031,0.014913558959960938,-0.034089088439941406,0.2032756805419922,-0.6606254577636719,-0.41997432708740234,-0.5881624221801758
35,85986248.0,9.148523330688477,-2.346388816833496,2.1787891387939453,0.004261016845703125,0.014913558959960938,-0.034089088439941406,0.20331859588623047,-0.6607551574707031,-0.4198446273803711,-0.5880327224731445
36,85986264.0,9.204788208007812,-2.2973060607910156,2.130904197692871,0.004261016845703125,0.014913558959960938,-0.034089088439941406,0.20331859588623047,-0.6607551574707031,-0.4198446273803711,-0.5880327224731445
37,85986288.0,9.160494804382324,-2.390683174133301,2.121326446533203,0.004261016845703125,0.014913558959960938,-0.034089088439941406,0.20331859588623047,-0.6607551574707031,-0.4198446273803711,-0.5880327224731445
38,85986304.0,9.231125831604004,-2.4649057388305664,2.2039289474487305,0.004261016845703125,0.014913558959960938,-0.034089088439941406,0.20331859588623047,-0.6607551574707031,-0.4198446273803711,-0.5880327224731445
39,85986328.0,9.358022689819336,-2.405048370361328,2.1165380477905273,0.004261016845703125,0.014913558959960938,-0.034089088439941406,0.20331859588623047,-0.6607551574707031,-0.4198446273803711,-0.5880327224731445
40,85986464.0,9.124580383300781,-2.251814842224121,2.419414520263672,0.02982807159423828,-0.0063915252685546875,0.019174575805664062,0.20314598083496094,-0.6603670120239258,-0.4201469421386719,-0.588292121887207
41,85986488.0,9.190423011779785,-2.1488609313964844,2.320052146911621,0.02982807159423828,-0.0063915252685546875,0.019174575805664062,0.20314598083496094,-0.6603670120239258,-0.4201469421386719,-0.588292121887207
42,85986504.0,9.100637435913086,-2.1668176651000977,2.266180992126465,0.02982807159423828,-0.0063915252685546875,0.019174575805664062,0.20314598083496094,-0.6603670120239258,-0.4201469421386719,-0.588292121887207
43,85986528.0,9.137748718261719,-2.2075204849243164,2.2949113845825195,0.02982807159423828,-0.0063915252685546875,0.019174575805664062,0.20314598083496094,-0.6603670120239258,-0.4201469421386719,-0.588292121887207
44,85986544.0,9.366402626037598,-2.194352149963379,2.4565258026123047,0.02982807159423828,-0.0063915252685546875,0.019174575805664062,0.20314598083496094,-0.6603670120239258,-0.4201469421386719,-0.588292121887207
45,85986568.0,9.40351390838623,-2.0818214416503906,2.382303237915039,-0.010652542114257812,0.009587287902832031,-0.0287628173828125,0.20314598083496094,-0.6603670120239258,-0.4201469421386719,-0.588292121887207
46,85986584.0,9.1868314743042,-2.0578784942626953,2.2829408645629883,-0.0809621810913086,0.041545867919921875,-0.01810932159423828,0.20314598083496094,-0.6603670120239258,-0.4201469421386719,-0.588292121887207
47,85986608.0,9.000078201293945,-2.1835784912109375,2.320052146911621,-0.10439872741699219,0.031958580017089844,-0.01597881317138672,0.20314598083496094,-0.6603670120239258,-0.4201469421386719,-0.588292121887207
48,85986624.0,9.04556941986084,-2.073441505432129,2.1823806762695312,-0.08415794372558594,0.007456779479980469,-0.009587287902832031,0.20314598083496094,-0.6603670120239258,-0.4201469421386719,-0.588292121887207
49,85986648.0,9.154508590698242,-2.068653106689453,2.1799869537353516,-0.05859088897705078,-0.004261016845703125,-0.011717796325683594,0.20314598083496094,-0.6603670120239258,-0.4201469421386719,-0.588292121887207
50,85986664.0,9.0970458984375,-2.0902013778686523,2.1512556076049805,-0.05859088897705078,-0.004261016845703125,-0.011717796325683594,0.20314598083496094,-0.6603670120239258,-0.4201469421386719,-0.588292121887207
51,85986688.0,8.97613525390625,-2.0494985580444336,2.258997917175293,-0.05859088897705078,-0.004261016845703125,-0.011717796325683594,0.20314598083496094,-0.6603670120239258,-0.4201469421386719,-0.588292121887207
52,85986704.0,9.040781021118164,-2.03273868560791,2.190760612487793,-0.05859088897705078,-0.004261016845703125,-0.011717796325683594,0.20314598083496094,-0.6603670120239258,-0.4201469421386719,-0.588292121887207
53,85986720.0,9.148523330688477,-2.0746383666992188,2.0231618881225586,-0.05859088897705078,-0.004261016845703125,-0.011717796325683594,0.20314598083496094,-0.6603670120239258,-0.4201469421386719,-0.588292121887207
54,85986744.0,9.080286026000977,-2.0614700317382812,2.139284133911133,-0.05859088897705078,-0.004261016845703125,-0.011717796325683594,0.20314598083496094,-0.6603670120239258,-0.4201469421386719,-0.588292121887207
55,85986768.0,9.059934616088867,-2.097384452819824,2.130904197692871,-0.05859088897705078,-0.004261016845703125,-0.011717796325683594,0.20314598083496094,-0.6603670120239258,-0.4201469421386719,-0.588292121887207
56,85986768.0,9.059934616088867,-2.097384452819824,2.130904197692871,-0.05859088897705078,-0.004261016845703125,-0.011717796325683594,0.20314598083496094,-0.6603670120239258,-0.4201469421386719,-0.588292121887207
57,85986784.0,9.304150581359863,-2.1883668899536133,2.004007339477539,-0.05859088897705078,-0.004261016845703125,-0.011717796325683594,0.20314598083496094,-0.6603670120239258,-0.4201469421386719,-0.588292121887207
58,85986784.0,9.304150581359863,-2.1883668899536133,2.004007339477539,-0.05859088897705078,-0.004261016845703125,-0.011717796325683594,0.20314598083496094,-0.6603670120239258,-0.4201469421386719,-0.588292121887207
59,85986800.0,9.293376922607422,-2.2326602935791016,1.942953109741211,-0.05859088897705078,-0.004261016845703125,-0.011717796325683594,0.20314598083496094,-0.6603670120239258,-0.4201469421386719,-0.588292121887207
60,85986800.0,9.293376922607422,-2.2326602935791016,1.942953109741211,-0.05859088897705078,-0.004261016845703125,-0.011717796325683594,0.20314598083496094,-0.6603670120239258,-0.4201469421386719,-0.588292121887207
61,85986824.0,9.136551856994629,-2.1955490112304688,2.0554847717285156,-0.05859088897705078,-0.004261016845703125,-0.011717796325683594,0.20314598083496094,-0.6603670120239258,-0.4201469421386719,-0.588292121887207
62,85986824.0,9.136551856994629,-2.1955490112304688,2.0554847717285156,-0.05859088897705078,-0.004261016845703125,-0.011717796325683594,0.20314598083496094,-0.6603670120239258,-0.4201469421386719,-0.588292121887207
63,85986840.0,9.249082565307617,-2.200338363647461,2.127312660217285,-0.05859088897705078,-0.004261016845703125,-0.011717796325683594,0.20314598083496094,-0.6603670120239258,-0.4201469421386719,-0.588292121887207
64,85986840.0,9.249082565307617,-2.200338363647461,2.127312660217285,-0.05859088897705078,-0.004261016845703125,-0.011717796325683594,0.20314598083496094,-0.6603670120239258,-0.4201469421386719,-0.588292121887207
65,85987064.0,9.35682487487793,-2.130904197692871,2.41342830657959,-0.18855667114257812,-0.0063915252685546875,-0.031958580017089844,0.1921834945678711,-0.671717643737793,-0.39274120330810547,-0.5980463027954102
66,85987080.0,9.384359359741211,-2.1775922775268555,2.2458295822143555,-0.18855667114257812,-0.0063915252685546875,-0.031958580017089844,0.1921834945678711,-0.671717643737793,-0.39274120330810547,-0.5980463027954102
67,85987104.0,9.154508590698242,-2.249420166015625,2.159635543823242,-0.18855667114257812,-0.0063915252685546875,-0.031958580017089844,0.1921834945678711,-0.671717643737793,-0.39274120330810547,-0.5980463027954102
68,85987120.0,9.105425834655762,-2.2673778533935547,2.189563751220703,-0.18855667114257812,-0.0063915252685546875,-0.031958580017089844,0.1921834945678711,-0.671717643737793,-0.39274120330810547,-0.5980463027954102
69,85987144.0,9.213168144226074,-2.130904197692871,2.0578784942626953,-0.18855667114257812,-0.0063915252685546875,-0.031958580017089844,0.1921834945678711,-0.671717643737793,-0.39274120330810547,-0.5980463027954102
70,85987160.0,9.213168144226074,-2.067455291748047,2.0279502868652344,-0.0862884521484375,0.06391716003417969,0.0063915252685546875,0.1921834945678711,-0.671717643737793,-0.39274120330810547,-0.5980463027954102
71,85987184.0,9.071906089782715,-2.1955490112304688,2.041118621826172,-0.10759449005126953,0.0745706558227539,-0.031958580017089844,0.1921834945678711,-0.671717643737793,-0.39274120330810547,-0.5980463027954102
72,85987200.0,9.049160957336426,-2.3020944595336914,2.0459070205688477,-0.11931324005126953,0.05539512634277344,-0.05006885528564453,0.1921834945678711,-0.671717643737793,-0.39274120330810547,-0.5980463027954102
73,85987224.0,9.131763458251953,-2.3368120193481445,1.9621076583862305,-0.0980072021484375,0.05006885528564453,-0.0809621810913086,0.1921834945678711,-0.671717643737793,-0.39274120330810547,-0.5980463027954102
74,85987240.0,9.153311729431152,-2.2170982360839844,1.9549245834350586,-0.11398601531982422,0.04687213897705078,-0.09054946899414062,0.1921834945678711,-0.671717643737793,-0.39274120330810547,-0.5980463027954102
75,85987336.0,9.246688842773438,-2.215900421142578,1.857956886291504,-0.2471485137939453,-0.0063915252685546875,-0.09054946899414062,0.17664623260498047,-0.680607795715332,-0.3800525665283203,-0.6009807586669922
76,85987336.0,9.246688842773438,-2.215900421142578,1.857956886291504,-0.2471485137939453,-0.0063915252685546875,-0.09054946899414062,0.17664623260498047,-0.680607795715332,-0.3800525665283203,-0.6009807586669922
77,85987352.0,9.109017372131348,-2.3092775344848633,1.9633045196533203,-0.26206302642822266,0.0,-0.09267997741699219,0.17664623260498047,-0.680607795715332,-0.3800525665283203,-0.6009807586669922
78,85987352.0,9.109017372131348,-2.3092775344848633,1.9633045196533203,-0.26206302642822266,0.0,-0.09267997741699219,0.17664623260498047,-0.680607795715332,-0.3800525665283203,-0.6009807586669922
79,85987376.0,9.135354995727539,-2.4948339462280273,2.012387275695801,-0.20027542114257812,-0.030893325805664062,-0.10652923583984375,0.17664623260498047,-0.680607795715332,-0.3800525665283203,-0.6009807586669922
80,85987376.0,9.135354995727539,-2.4948339462280273,2.012387275695801,-0.20027542114257812,-0.030893325805664062,-0.10652923583984375,0.17664623260498047,-0.680607795715332,-0.3800525665283203,-0.6009807586669922
81,85987392.0,9.304150581359863,-2.496030807495117,2.080624580383301,-0.06711292266845703,-0.05006885528564453,-0.12037849426269531,0.17664623260498047,-0.680607795715332,-0.3800525665283203,-0.6009807586669922
82,85987392.0,9.304150581359863,-2.496030807495117,2.080624580383301,-0.06711292266845703,-0.05006885528564453,-0.12037849426269531,0.17664623260498047,-0.680607795715332,-0.3800525665283203,-0.6009807586669922
83,85987408.0,9.179648399353027,-2.4253997802734375,2.1045665740966797,0.022370338439941406,-0.022370338439941406,-0.11718177795410156,0.17664623260498047,-0.680607795715332,-0.3800525665283203,-0.6009807586669922
84,85987408.0,9.179648399353027,-2.4253997802734375,2.1045665740966797,0.022370338439941406,-0.022370338439941406,-0.11718177795410156,0.17664623260498047,-0.680607795715332,-0.3800525665283203,-0.6009807586669922
85,85987560.0,9.367599487304688,-2.225478172302246,1.9321794509887695,0.022370338439941406,-0.022370338439941406,-0.11718177795410156,0.17664623260498047,-0.680607795715332,-0.3800525665283203,-0.6009807586669922
86,85987584.0,9.319713592529297,-2.2410402297973633,1.8974618911743164,0.022370338439941406,-0.022370338439941406,-0.11718177795410156,0.17664623260498047,-0.680607795715332,-0.3800525665283203,-0.6009807586669922
87,85987600.0,9.141340255737305,-2.158437728881836,1.9118280410766602,0.022370338439941406,-0.022370338439941406,-0.11718177795410156,0.17664623260498047,-0.680607795715332,-0.3800525665283203,-0.6009807586669922
88,85987624.0,9.043174743652344,-2.1476640701293945,1.8986597061157227,0.022370338439941406,-0.022370338439941406,-0.11718177795410156,0.17664623260498047,-0.680607795715332,-0.3800525665283203,-0.6009807586669922
89,85987640.0,9.191619873046875,-2.1428756713867188,1.8926734924316406,0.022370338439941406,-0.022370338439941406,-0.11718177795410156,0.17664623260498047,-0.680607795715332,-0.3800525665283203,-0.6009807586669922
90,85987664.0,9.269433975219727,-2.229069709777832,1.8854904174804688,0.022370338439941406,-0.03941535949707031,0.054329872131347656,0.17664623260498047,-0.680607795715332,-0.3800525665283203,-0.6009807586669922
91,85987664.0,9.269433975219727,-2.229069709777832,1.8854904174804688,0.022370338439941406,-0.03941535949707031,0.054329872131347656,0.17664623260498047,-0.680607795715332,-0.3800525665283203,-0.6009807586669922
92,85987680.0,9.170071601867676,-2.2997007369995117,1.9597129821777344,0.04793834686279297,-0.03941535949707031,0.02982807159423828,0.17664623260498047,-0.680607795715332,-0.3800525665283203,-0.6009807586669922
93,85987680.0,9.170071601867676,-2.2997007369995117,1.9597129821777344,0.04793834686279297,-0.03941535949707031,0.02982807159423828,0.17664623260498047,-0.680607795715332,-0.3800525665283203,-0.6009807586669922
94,85987704.0,9.247885704040527,-2.248223304748535,1.9884443283081055,0.07776641845703125,-0.05113410949707031,0.00852203369140625,0.17664623260498047,-0.680607795715332,-0.3800525665283203,-0.6009807586669922
95,85987704.0,9.247885704040527,-2.248223304748535,1.9884443283081055,0.07776641845703125,-0.05113410949707031,0.00852203369140625,0.17664623260498047,-0.680607795715332,-0.3800525665283203,-0.6009807586669922
96,85987720.0,9.33407974243164,-2.278151512145996,1.915419578552246,0.05646038055419922,-0.04793834686279297,-0.0010652542114257812,0.17664623260498047,-0.680607795715332,-0.3800525665283203,-0.6009807586669922
97,85987720.0,9.33407974243164,-2.278151512145996,1.915419578552246,0.05646038055419922,-0.04793834686279297,-0.0010652542114257812,0.17664623260498047,-0.680607795715332,-0.3800525665283203,-0.6009807586669922
98,85987744.0,9.361613273620605,-2.2326602935791016,1.9214048385620117,0.03621959686279297,-0.02982807159423828,-0.007456779479980469,0.17664623260498047,-0.680607795715332,-0.3800525665283203,-0.6009807586669922
99,85987744.0,9.361613273620605,-2.2326602935791016,1.9214048385620117,0.03621959686279297,-0.02982807159423828,-0.007456779479980469,0.17664623260498047,-0.680607795715332,-0.3800525665283203,-0.6009807586669922
100,85987760.0,9.195211410522461,-2.347585678100586,2.038724899291992,0.03621959686279297,-0.02982807159423828,-0.007456779479980469,0.17664623260498047,-0.680607795715332,-0.3800525665283203,-0.6009807586669922
101,85987784.0,9.086272239685059,-2.407443046569824,2.043513298034668,0.03621959686279297,-0.02982807159423828,-0.007456779479980469,0.17664623260498047,-0.680607795715332,-0.3800525665283203,-0.6009807586669922
102,85987800.0,9.243097305297852,-2.3260374069213867,1.9800643920898438,0.03621959686279297,-0.02982807159423828,-0.007456779479980469,0.17664623260498047,-0.680607795715332,-0.3800525665283203,-0.6009807586669922
103,85987824.0,9.310136795043945,-2.2769546508789062,1.9968242645263672,0.03621959686279297,-0.02982807159423828,-0.007456779479980469,0.17664623260498047,-0.680607795715332,-0.3800525665283203,-0.6009807586669922
104,85987840.0,9.268237113952637,-2.2985029220581055,1.9980220794677734,0.03621959686279297,-0.02982807159423828,-0.007456779479980469,0.17664623260498047,-0.680607795715332,-0.3800525665283203,-0.6009807586669922
105,85987960.0,9.238308906555176,-2.433779716491699,2.0638647079467773,-0.026632308959960938,-0.007456779479980469,-0.01597881317138672,0.17664623260498047,-0.680607795715332,-0.3800525665283203,-0.6009807586669922
106,85987960.0,9.238308906555176,-2.433779716491699,2.0638647079467773,-0.026632308959960938,-0.007456779479980469,-0.01597881317138672,0.17664623260498047,-0.680607795715332,-0.3800525665283203,-0.6009807586669922
107,85987960.0,9.238308906555176,-2.433779716491699,2.0638647079467773,-0.026632308959960938,-0.007456779479980469,-0.01597881317138672,0.17664623260498047,-0.680607795715332,-0.3800525665283203,-0.6009807586669922
108,85987984.0,9.156903266906738,-2.2937145233154297,1.9992189407348633,-0.026632308959960938,-0.007456779479980469,-0.01597881317138672,0.17664623260498047,-0.680607795715332,-0.3800525665283203,-0.6009807586669922
109,85987984.0,9.156903266906738,-2.2937145233154297,1.9992189407348633,-0.026632308959960938,-0.007456779479980469,-0.01597881317138672,0.17664623260498047,-0.680607795715332,-0.3800525665283203,-0.6009807586669922
110,85987984.0,9.156903266906738,-2.2937145233154297,1.9992189407348633,-0.026632308959960938,-0.007456779479980469,-0.01597881317138672,0.17664623260498047,-0.680607795715332,-0.3800525665283203,-0.6009807586669922
111,85988000.0,9.221549034118652,-2.256603240966797,1.9992189407348633,-0.026632308959960938,-0.007456779479980469,-0.01597881317138672,0.17664623260498047,-0.680607795715332,-0.3800525665283203,-0.6009807586669922
112,85988000.0,9.221549034118652,-2.256603240966797,1.9992189407348633,-0.026632308959960938,-0.007456779479980469,-0.01597881317138672,0.17664623260498047,-0.680607795715332,-0.3800525665283203,-0.6009807586669922
113,85988000.0,9.221549034118652,-2.256603240966797,1.9992189407348633,-0.026632308959960938,-0.007456779479980469,-0.01597881317138672,0.17664623260498047,-0.680607795715332,-0.3800525665283203,-0.6009807586669922
114,85988016.0,9.298165321350098,-2.233858108520508,1.9656991958618164,-0.026632308959960938,-0.007456779479980469,-0.01597881317138672,0.17664623260498047,-0.680607795715332,-0.3800525665283203,-0.6009807586669922
115,85988016.0,9.298165321350098,-2.233858108520508,1.9656991958618164,-0.026632308959960938,-0.007456779479980469,-0.01597881317138672,0.17664623260498047,-0.680607795715332,-0.3800525665283203,-0.6009807586669922
116,85988016.0,9.298165321350098,-2.233858108520508,1.9656991958618164,-0.026632308959960938,-0.007456779479980469,-0.01597881317138672,0.17664623260498047,-0.680607795715332,-0.3800525665283203,-0.6009807586669922
117,85988040.0,9.359219551086426,-2.2051267623901367,1.939361572265625,-0.026632308959960938,-0.007456779479980469,-0.01597881317138672,0.17664623260498047,-0.680607795715332,-0.3800525665283203,-0.6009807586669922
118,85988040.0,9.359219551086426,-2.2051267623901367,1.939361572265625,-0.026632308959960938,-0.007456779479980469,-0.01597881317138672,0.17664623260498047,-0.680607795715332,-0.3800525665283203,-0.6009807586669922
119,85988040.0,9.359219551086426,-2.2051267623901367,1.939361572265625,-0.026632308959960938,-0.007456779479980469,-0.01597881317138672,0.17664623260498047,-0.680607795715332,-0.3800525665283203,-0.6009807586669922
120,85988056.0,9.275420188903809,-2.2314634323120117,1.9285879135131836,-0.026632308959960938,-0.007456779479980469,-0.01597881317138672,0.17664623260498047,-0.680607795715332,-0.3800525665283203,-0.6009807586669922
121,85988080.0,9.229928970336914,-2.1811838150024414,1.8950681686401367,-0.026632308959960938,-0.007456779479980469,-0.01597881317138672,0.17664623260498047,-0.680607795715332,-0.3800525665283203,-0.6009807586669922
122,85988096.0,9.249082565307617,-2.1740007400512695,1.9309816360473633,-0.026632308959960938,-0.007456779479980469,-0.01597881317138672,0.17664623260498047,-0.680607795715332,-0.3800525665283203,-0.6009807586669922
123,85988120.0,9.323305130004883,-2.150057792663574,1.8878850936889648,-0.026632308959960938,-0.007456779479980469,-0.01597881317138672,0.17664623260498047,-0.680607795715332,-0.3800525665283203,-0.6009807586669922
124,85988136.0,9.322108268737793,-2.175198554992676,1.8328170776367188,-0.026632308959960938,-0.007456779479980469,-0.01597881317138672,0.17664623260498047,-0.680607795715332,-0.3800525665283203,-0.6009807586669922
125,85988160.0,9.16648006439209,-2.2985029220581055,1.9202079772949219,-0.007456779479980469,0.01597881317138672,-0.031958580017089844,0.17664623260498047,-0.680607795715332,-0.3800525665283203,-0.6009807586669922
126,85988176.0,9.227534294128418,-2.3032913208007812,1.8675336837768555,0.03515434265136719,-0.014913558959960938,-0.031958580017089844,0.17664623260498047,-0.680607795715332,-0.3800525665283203,-0.6009807586669922
127,85988200.0,9.366402626037598,-2.2685747146606445,1.9022512435913086,0.07776641845703125,-0.0170440673828125,-0.040480613708496094,0.17664623260498047,-0.680607795715332,-0.3800525665283203,-0.6009807586669922
128,85988216.0,9.293376922607422,-2.2099151611328125,1.916616439819336,0.08415794372558594,-0.0021305084228515625,-0.040480613708496094,0.17664623260498047,-0.680607795715332,-0.3800525665283203,-0.6009807586669922
129,85988240.0,9.18563461303711,-2.233858108520508,2.006402015686035,0.05965614318847656,-0.004261016845703125,-0.03515434265136719,0.17664623260498047,-0.680607795715332,-0.3800525665283203,-0.6009807586669922
130,85988256.0,9.292180061340332,-2.2829408645629883,2.002810478210449,0.05965614318847656,-0.004261016845703125,-0.03515434265136719,0.17664623260498047,-0.680607795715332,-0.3800525665283203,-0.6009807586669922
131,85988280.0,9.45618724822998,-2.2422380447387695,2.0279502868652344,0.05965614318847656,-0.004261016845703125,-0.03515434265136719,0.17664623260498047,-0.680607795715332,-0.3800525665283203,-0.6009807586669922
132,85988296.0,9.324501991271973,-2.286531448364258,2.0351333618164062,0.05965614318847656,-0.004261016845703125,-0.03515434265136719,0.17664623260498047,-0.680607795715332,-0.3800525665283203,-0.6009807586669922
133,85988320.0,9.207182884216309,-2.2973060607910156,2.068653106689453,0.05965614318847656,-0.004261016845703125,-0.03515434265136719,0.17664623260498047,-0.680607795715332,-0.3800525665283203,-0.6009807586669922
134,85988336.0,9.293376922607422,-2.2410402297973633,2.0902013778686523,0.05965614318847656,-0.004261016845703125,-0.03515434265136719,0.17664623260498047,-0.680607795715332,-0.3800525665283203,-0.6009807586669922
135,85988560.0,9.267040252685547,-2.1464672088623047,1.8914766311645508,-0.007456779479980469,0.011717796325683594,0.04793834686279297,0.1770782470703125,-0.6747379302978516,-0.3828153610229492,-0.6056413650512695
136,85988560.0,9.267040252685547,-2.1464672088623047,1.8914766311645508,-0.007456779479980469,0.011717796325683594,0.04793834686279297,0.1770782470703125,-0.6747379302978516,-0.3828153610229492,-0.6056413650512695
137,85988576.0,9.204788208007812,-2.194352149963379,1.9273910522460938,-0.013848304748535156,0.0031957626342773438,0.04793834686279297,0.1770782470703125,-0.6747379302978516,-0.3828153610229492,-0.6056413650512695
138,85988576.0,9.204788208007812,-2.194352149963379,1.9273910522460938,-0.013848304748535156,0.0031957626342773438,0.04793834686279297,0.1770782470703125,-0.6747379302978516,-0.3828153610229492,-0.6056413650512695
139,85988600.0,9.259857177734375,-2.1787891387939453,1.9237995147705078,0.0063915252685546875,-0.009587287902832031,0.03835010528564453,0.1770782470703125,-0.6747379302978516,-0.3828153610229492,-0.6056413650512695
140,85988600.0,9.259857177734375,-2.1787891387939453,1.9237995147705078,0.0063915252685546875,-0.009587287902832031,0.03835010528564453,0.1770782470703125,-0.6747379302978516,-0.3828153610229492,-0.6056413650512695
141,85988616.0,9.316122055053711,-2.106961250305176,1.9285879135131836,0.022370338439941406,-0.012783050537109375,0.04367637634277344,0.1770782470703125,-0.6747379302978516,-0.3828153610229492,-0.6056413650512695
142,85988616.0,9.316122055053711,-2.106961250305176,1.9285879135131836,0.022370338439941406,-0.012783050537109375,0.04367637634277344,0.1770782470703125,-0.6747379302978516,-0.3828153610229492,-0.6056413650512695
143,85988640.0,9.299362182617188,-2.0459070205688477,1.9345731735229492,0.0,-0.0021305084228515625,0.03515434265136719,0.1770782470703125,-0.6747379302978516,-0.3828153610229492,-0.6056413650512695
144,85988640.0,9.299362182617188,-2.0459070205688477,1.9345731735229492,0.0,-0.0021305084228515625,0.03515434265136719,0.1770782470703125,-0.6747379302978516,-0.3828153610229492,-0.6056413650512695
145,85988760.0,9.250279426574707,-2.1428756713867188,2.0937929153442383,0.0,-0.0021305084228515625,0.03515434265136719,0.17340946197509766,-0.6730985641479492,-0.38600921630859375,-0.6065483093261719
146,85988776.0,9.280208587646484,-2.2170982360839844,2.033935546875,0.0,-0.0021305084228515625,0.03515434265136719,0.17340946197509766,-0.6730985641479492,-0.38600921630859375,-0.6065483093261719
147,85988800.0,9.302953720092773,-2.2350549697875977,2.0902013778686523,0.0,-0.0021305084228515625,0.03515434265136719,0.17340946197509766,-0.6730985641479492,-0.38600921630859375,-0.6065483093261719
148,85988816.0,9.225139617919922,-2.2613916397094727,2.069849967956543,0.0,-0.0021305084228515625,0.03515434265136719,0.17340946197509766,-0.6730985641479492,-0.38600921630859375,-0.6065483093261719
149,85988832.0,9.249082565307617,-2.287729263305664,2.077033042907715,0.0,-0.0021305084228515625,0.03515434265136719,0.17340946197509766,-0.6730985641479492,-0.38600921630859375,-0.6065483093261719
150,85988856.0,9.371191024780273,-2.230266571044922,2.047104835510254,0.0,-0.0021305084228515625,0.03515434265136719,0.17340946197509766,-0.6730985641479492,-0.38600921630859375,-0.6065483093261719
151,85988856.0,9.371191024780273,-2.230266571044922,2.047104835510254,0.0,-0.0021305084228515625,0.03515434265136719,0.17340946197509766,-0.6730985641479492,-0.38600921630859375,-0.6065483093261719
152,85988880.0,9.28380012512207,-2.233858108520508,2.0459070205688477,0.0,-0.0021305084228515625,0.03515434265136719,0.17340946197509766,-0.6730985641479492,-0.38600921630859375,-0.6065483093261719
153,85988880.0,9.28380012512207,-2.233858108520508,2.0459070205688477,0.0,-0.0021305084228515625,0.03515434265136719,0.17340946197509766,-0.6730985641479492,-0.38600921630859375,-0.6065483093261719
154,85988896.0,9.19640827178955,-2.310474395751953,2.033935546875,0.0,-0.0021305084228515625,0.03515434265136719,0.17340946197509766,-0.6730985641479492,-0.38600921630859375,-0.6065483093261719
155,85988896.0,9.19640827178955,-2.310474395751953,2.033935546875,0.0,-0.0021305084228515625,0.03515434265136719,0.17340946197509766,-0.6730985641479492,-0.38600921630859375,-0.6065483093261719
156,85988920.0,9.18443775177002,-2.4122314453125,2.005204200744629,0.0,-0.0021305084228515625,0.03515434265136719,0.17340946197509766,-0.6730985641479492,-0.38600921630859375,-0.6065483093261719
157,85988920.0,9.18443775177002,-2.4122314453125,2.005204200744629,0.0,-0.0021305084228515625,0.03515434265136719,0.17340946197509766,-0.6730985641479492,-0.38600921630859375,-0.6065483093261719
158,85988936.0,9.269433975219727,-2.3703317642211914,2.036330223083496,0.0,-0.0021305084228515625,0.03515434265136719,0.17340946197509766,-0.6730985641479492,-0.38600921630859375,-0.6065483093261719
159,85988936.0,9.269433975219727,-2.3703317642211914,2.036330223083496,0.0,-0.0021305084228515625,0.03515434265136719,0.17340946197509766,-0.6730985641479492,-0.38600921630859375,-0.6065483093261719
160,85989056.0,9.207182884216309,-2.296109199523926,1.9944305419921875,-0.010652542114257812,0.0063915252685546875,0.020239830017089844,0.17017269134521484,-0.6736593246459961,-0.3846712112426758,-0.6076269149780273
161,85989072.0,9.138946533203125,-2.3607540130615234,1.909433364868164,-0.010652542114257812,0.0063915252685546875,0.020239830017089844,0.17017269134521484,-0.6736593246459961,-0.3846712112426758,-0.6076269149780273
162,85989096.0,9.259857177734375,-2.3715286254882812,1.9333763122558594,-0.010652542114257812,0.0063915252685546875,0.020239830017089844,0.17017269134521484,-0.6736593246459961,-0.3846712112426758,-0.6076269149780273
163,85989120.0,9.350839614868164,-2.316460609436035,1.9237995147705078,-0.010652542114257812,0.0063915252685546875,0.020239830017089844,0.17017269134521484,-0.6736593246459961,-0.3846712112426758,-0.6076269149780273
164,85989136.0,9.219154357910156,-2.248223304748535,1.9226016998291016,-0.010652542114257812,0.0063915252685546875,0.020239830017089844,0.17017269134521484,-0.6736593246459961,-0.3846712112426758,-0.6076269149780273
165,85989152.0,9.18443775177002,-2.278151512145996,1.9597129821777344,-0.034089088439941406,-0.004261016845703125,-0.0010652542114257812,0.17017269134521484,-0.6736593246459961,-0.3846712112426758,-0.6076269149780273
166,85989176.0,9.23471736907959,-2.3607540130615234,1.9944305419921875,-0.04474163055419922,-0.013848304748535156,-0.0031957626342773438,0.17017269134521484,-0.6736593246459961,-0.3846712112426758,-0.6076269149780273
167,85989200.0,9.26464557647705,-2.340402603149414,1.9285879135131836,-0.0287628173828125,-0.0170440673828125,0.005326271057128906,0.17017269134521484,-0.6736593246459961,-0.3846712112426758,-0.6076269149780273
168,85989216.0,9.239505767822266,-2.3260374069213867,1.9645023345947266,-0.013848304748535156,-0.004261016845703125,0.0031957626342773438,0.17017269134521484,-0.6736593246459961,-0.3846712112426758,-0.6076269149780273
169,85989232.0,9.174860000610352,-2.357163429260254,1.9968242645263672,-0.005326271057128906,-0.005326271057128906,-0.0031957626342773438,0.17017269134521484,-0.6736593246459961,-0.3846712112426758,-0.6076269149780273
170,85989256.0,9.189226150512695,-2.351177215576172,2.011190414428711,-0.005326271057128906,-0.005326271057128906,-0.0031957626342773438,0.17017269134521484,-0.6736593246459961,-0.3846712112426758,-0.6076269149780273
171,85989272.0,9.261054039001465,-2.3344173431396484,1.9537277221679688,-0.005326271057128906,-0.005326271057128906,-0.0031957626342773438,0.17017269134521484,-0.6736593246459961,-0.3846712112426758,-0.6076269149780273
172,85989296.0,9.295770645141602,-2.3655433654785156,1.9740791320800781,-0.005326271057128906,-0.005326271057128906,-0.0031957626342773438,0.17017269134521484,-0.6736593246459961,-0.3846712112426758,-0.6076269149780273
173,85989312.0,9.233519554138184,-2.3595571517944336,1.9848527908325195,-0.005326271057128906,-0.005326271057128906,-0.0031957626342773438,0.17017269134521484,-0.6736593246459961,-0.3846712112426758,-0.6076269149780273
174,85989336.0,9.203591346740723,-2.3320226669311523,2.014781951904297,-0.005326271057128906,-0.005326271057128906,-0.0031957626342773438,0.17017269134521484,-0.6736593246459961,-0.3846712112426758,-0.6076269149780273
175,85989352.0,9.324501991271973,-2.310474395751953,1.9585161209106445,0.0010652542114257812,-0.020239830017089844,0.004261016845703125,0.17017269134521484,-0.6736593246459961,-0.3846712112426758,-0.6076269149780273
176,85989352.0,9.324501991271973,-2.310474395751953,1.9585161209106445,0.0010652542114257812,-0.020239830017089844,0.004261016845703125,0.17017269134521484,-0.6736593246459961,-0.3846712112426758,-0.6076269149780273
177,85989376.0,9.267040252685547,-2.244631767272949,1.9381647109985352,0.0031957626342773438,-0.0010652542114257812,-0.0010652542114257812,0.17017269134521484,-0.6736593246459961,-0.3846712112426758,-0.6076269149780273
178,85989376.0,9.267040252685547,-2.244631767272949,1.9381647109985352,0.0031957626342773438,-0.0010652542114257812,-0.0010652542114257812,0.17017269134521484,-0.6736593246459961,-0.3846712112426758,-0.6076269149780273
179,85989392.0,9.183239936828613,-2.2578001022338867,1.9848527908325195,-0.024501800537109375,0.0010652542114257812,-0.010652542114257812,0.17017269134521484,-0.6736593246459961,-0.3846712112426758,-0.6076269149780273
180,85989392.0,9.183239936828613,-2.2578001022338867,1.9848527908325195,-0.024501800537109375,0.0010652542114257812,-0.010652542114257812,0.17017269134521484,-0.6736593246459961,-0.3846712112426758,-0.6076269149780273
181,85989416.0,9.19640827178955,-2.3942737579345703,1.9836559295654297,-0.031958580017089844,-0.011717796325683594,-0.014913558959960938,0.17017269134521484,-0.6736593246459961,-0.3846712112426758,-0.6076269149780273
182,85989416.0,9.19640827178955,-2.3942737579345703,1.9836559295654297,-0.031958580017089844,-0.011717796325683594,-0.014913558959960938,0.17017269134521484,-0.6736593246459961,-0.3846712112426758,-0.6076269149780273
183,85989432.0,9.28499698638916,-2.417019844055176,1.9501361846923828,0.00852203369140625,-0.01810932159423828,-0.013848304748535156,0.17017269134521484,-0.6736593246459961,-0.3846712112426758,-0.6076269149780273
184,85989432.0,9.28499698638916,-2.417019844055176,1.9501361846923828,0.00852203369140625,-0.01810932159423828,-0.013848304748535156,0.17017269134521484,-0.6736593246459961,-0.3846712112426758,-0.6076269149780273
185,85989552.0,9.310136795043945,-2.3344173431396484,1.909433364868164,0.020239830017089844,-0.0170440673828125,-0.01597881317138672,0.17017269134521484,-0.6736593246459961,-0.3846712112426758,-0.6076269149780273
186,85989576.0,9.228731155395508,-2.3451919555664062,1.9501361846923828,0.020239830017089844,-0.0170440673828125,-0.01597881317138672,0.16913700103759766,-0.6730117797851562,-0.3829011917114258,-0.6097850799560547
187,85989592.0,9.23471736907959,-2.4517364501953125,1.942953109741211,0.020239830017089844,-0.0170440673828125,-0.01597881317138672,0.1690511703491211,-0.6730985641479492,-0.3826427459716797,-0.6098709106445312
188,85989616.0,9.257462501525879,-2.4230051040649414,1.941756248474121,0.020239830017089844,-0.0170440673828125,-0.01597881317138672,0.1690511703491211,-0.6731843948364258,-0.38247013092041016,-0.6098709106445312
189,85989632.0,9.28739070892334,-2.3020944595336914,1.9369678497314453,0.020239830017089844,-0.0170440673828125,-0.01597881317138672,0.16922378540039062,-0.6731414794921875,-0.382598876953125,-0.6097850799560547
190,85989656.0,9.240702629089355,-2.3368120193481445,1.9633045196533203,0.020239830017089844,-0.0170440673828125,-0.01597881317138672,0.1692667007446289,-0.6731414794921875,-0.38268566131591797,-0.6097421646118164
191,85989672.0,9.231125831604004,-2.419414520263672,1.9381647109985352,0.020239830017089844,-0.0170440673828125,-0.01597881317138672,0.1692667007446289,-0.6731414794921875,-0.38268566131591797,-0.6097421646118164
192,85989696.0,9.250279426574707,-2.387091636657715,1.9249963760375977,0.020239830017089844,-0.0170440673828125,-0.01597881317138672,0.1692667007446289,-0.6731414794921875,-0.38268566131591797,-0.6097421646118164
193,85989712.0,9.269433975219727,-2.310474395751953,1.9573192596435547,0.020239830017089844,-0.0170440673828125,-0.01597881317138672,0.1692667007446289,-0.6731414794921875,-0.38268566131591797,-0.6097421646118164
194,85989736.0,9.219154357910156,-2.315262794494629,1.9345731735229492,0.020239830017089844,-0.0170440673828125,-0.01597881317138672,0.1692667007446289,-0.6731414794921875,-0.38268566131591797,-0.6097421646118164
195,85989752.0,9.223942756652832,-2.3236427307128906,1.9118280410766602,0.0,-0.0063915252685546875,-0.0063915252685546875,0.1692667007446289,-0.6731414794921875,-0.38268566131591797,-0.6097421646118164
196,85989776.0,9.232322692871094,-2.3332204818725586,1.9668960571289062,0.00852203369140625,-0.00852203369140625,-0.011717796325683594,0.1692667007446289,-0.6731414794921875,-0.38268566131591797,-0.6097421646118164
197,85989792.0,9.28499698638916,-2.2949113845825195,1.9357709884643555,0.0,-0.014913558959960938,-0.007456779479980469,0.1692667007446289,-0.6731414794921875,-0.38268566131591797,-0.6097421646118164
198,85989816.0,9.277813911437988,-2.2721662521362305,1.9513330459594727,-0.025567054748535156,-0.00852203369140625,-0.0063915252685546875,0.1692667007446289,-0.6731414794921875,-0.38268566131591797,-0.6097421646118164
199,85989832.0,9.244294166564941,-2.382303237915039,1.9010534286499023,-0.026632308959960938,-0.004261016845703125,-0.0063915252685546875,0.1692667007446289,-0.6731414794921875,-0.38268566131591797,-0.6097421646118164
200,85989856.0,9.279010772705078,-2.357163429260254,1.9369678497314453,-0.026632308959960938,-0.004261016845703125,-0.0063915252685546875,0.1692667007446289,-0.6731414794921875,-0.38268566131591797,-0.6097421646118164
201,85989872.0,9.311333656311035,-2.249420166015625,1.971684455871582,-0.026632308959960938,-0.004261016845703125,-0.0063915252685546875,0.1692667007446289,-0.6731414794921875,-0.38268566131591797,-0.6097421646118164
202,85989896.0,9.302953720092773,-2.2410402297973633,1.919011116027832,-0.026632308959960938,-0.004261016845703125,-0.0063915252685546875,0.1692667007446289,-0.6731414794921875,-0.38268566131591797,-0.6097421646118164
203,85989912.0,9.217957496643066,-2.328432083129883,1.939361572265625,-0.026632308959960938,-0.004261016845703125,-0.0063915252685546875,0.1692667007446289,-0.6731414794921875,-0.38268566131591797,-0.6097421646118164
204,85989936.0,9.176057815551758,-2.346388816833496,1.952530860900879,-0.026632308959960938,-0.004261016845703125,-0.0063915252685546875,0.1692667007446289,-0.6731414794921875,-0.38268566131591797,-0.6097421646118164
205,85989952.0,9.271828651428223,-2.2613916397094727,1.9549245834350586,0.030893325805664062,-0.022370338439941406,-0.0031957626342773438,0.1692667007446289,-0.6731414794921875,-0.38268566131591797,-0.6097421646118164
206,85989976.0,9.358022689819336,-2.1991405487060547,1.9309816360473633,-0.0010652542114257812,-0.00852203369140625,-0.01810932159423828,0.1692667007446289,-0.6731414794921875,-0.38268566131591797,-0.6097421646118164
207,85989992.0,9.23471736907959,-2.317657470703125,1.9441509246826172,-0.019174575805664062,0.007456779479980469,-0.021305084228515625,0.1692667007446289,-0.6731414794921875,-0.38268566131591797,-0.6097421646118164
208,85990016.0,9.23471736907959,-2.3080806732177734,1.91302490234375,-0.0031957626342773438,-0.011717796325683594,-0.023435592651367188,0.1692667007446289,-0.6731414794921875,-0.38268566131591797,-0.6097421646118164
209,85990032.0,9.308939933776855,-2.3080806732177734,1.9333763122558594,0.009587287902832031,-0.00852203369140625,-0.01597881317138672,0.1692667007446289,-0.6731414794921875,-0.38268566131591797,-0.6097421646118164
210,85990056.0,9.350839614868164,-2.2793493270874023,1.9297847747802734,0.009587287902832031,-0.00852203369140625,-0.01597881317138672,0.1692667007446289,-0.6731414794921875,-0.38268566131591797,-0.6097421646118164
211,85990072.0,9.299362182617188,-2.2973060607910156,1.945347785949707,0.009587287902832031,-0.00852203369140625,-0.01597881317138672,0.1692667007446289,-0.6731414794921875,-0.38268566131591797,-0.6097421646118164
212,85990096.0,9.245491027832031,-2.312869071960449,1.9285879135131836,0.009587287902832031,-0.00852203369140625,-0.01597881317138672,0.1692667007446289,-0.6731414794921875,-0.38268566131591797,-0.6097421646118164
213,85990112.0,9.258659362792969,-2.3715286254882812,1.9214048385620117,0.009587287902832031,-0.00852203369140625,-0.01597881317138672,0.1692667007446289,-0.6731414794921875,-0.38268566131591797,-0.6097421646118164
214,85990128.0,9.314925193786621,-2.29251766204834,1.9010534286499023,0.009587287902832031,-0.00852203369140625,-0.01597881317138672,0.1692667007446289,-0.6731414794921875,-0.38268566131591797,-0.6097421646118164
215,85990152.0,9.292180061340332,-2.2733631134033203,1.9501361846923828,-0.019174575805664062,0.0031957626342773438,0.0031957626342773438,0.1692667007446289,-0.6731414794921875,-0.38268566131591797,-0.6097421646118164
216,85990152.0,9.292180061340332,-2.2733631134033203,1.9501361846923828,-0.019174575805664062,0.0031957626342773438,0.0031957626342773438,0.1692667007446289,-0.6731414794921875,-0.38268566131591797,-0.6097421646118164
217,85990176.0,9.211971282958984,-2.339205741882324,1.9345731735229492,-0.022370338439941406,0.0021305084228515625,0.0,0.1692667007446289,-0.6731414794921875,-0.38268566131591797,-0.6097421646118164
218,85990176.0,9.211971282958984,-2.339205741882324,1.9345731735229492,-0.022370338439941406,0.0021305084228515625,0.0,0.1692667007446289,-0.6731414794921875,-0.38268566131591797,-0.6097421646118164
219,85990192.0,9.238308906555176,-2.339205741882324,1.9465446472167969,0.011717796325683594,0.0,0.0,0.1692667007446289,-0.6731414794921875,-0.38268566131591797,-0.6097421646118164
220,85990192.0,9.238308906555176,-2.339205741882324,1.9465446472167969,0.011717796325683594,0.0,0.0,0.1692667007446289,-0.6731414794921875,-0.38268566131591797,-0.6097421646118164
221,85990208.0,9.320911407470703,-2.212308883666992,1.9237995147705078,0.01597881317138672,-0.005326271057128906,-0.004261016845703125,0.1692667007446289,-0.6731414794921875,-0.38268566131591797,-0.6097421646118164
222,85990208.0,9.320911407470703,-2.212308883666992,1.9237995147705078,0.01597881317138672,-0.005326271057128906,-0.004261016845703125,0.1692667007446289,-0.6731414794921875,-0.38268566131591797,-0.6097421646118164
223,85990232.0,9.28619384765625,-2.29251766204834,1.9261932373046875,-0.020239830017089844,0.005326271057128906,-0.0031957626342773438,0.1692667007446289,-0.6731414794921875,-0.38268566131591797,-0.6097421646118164
224,85990232.0,9.28619384765625,-2.29251766204834,1.9261932373046875,-0.020239830017089844,0.005326271057128906,-0.0031957626342773438,0.1692667007446289,-0.6731414794921875,-0.38268566131591797,-0.6097421646118164
225,85990352.0,9.226337432861328,-2.324840545654297,1.8938703536987305,-0.020239830017089844,0.005326271057128906,-0.0031957626342773438,0.1685333251953125,-0.6734867095947266,-0.37992382049560547,-0.6112527847290039
226,85990368.0,9.319713592529297,-2.2362518310546875,1.8962650299072266,-0.020239830017089844,0.005326271057128906,-0.0031957626342773438,0.1685333251953125,-0.6734867095947266,-0.37992382049560547,-0.6112527847290039
227,85990392.0,9.353233337402344,-2.2147035598754883,1.8914766311645508,-0.020239830017089844,0.005326271057128906,-0.0031957626342773438,0.1685333251953125,-0.6734867095947266,-0.37992382049560547,-0.6112527847290039
228,85990408.0,9.220351219177246,-2.3032913208007812,1.9285879135131836,-0.020239830017089844,0.005326271057128906,-0.0031957626342773438,0.1685333251953125,-0.6734867095947266,-0.37992382049560547,-0.6112527847290039
229,85990432.0,9.228731155395508,-2.4218082427978516,1.8639421463012695,-0.020239830017089844,0.005326271057128906,-0.0031957626342773438,0.1685333251953125,-0.6734867095947266,-0.37992382049560547,-0.6112527847290039
230,85990448.0,9.304150581359863,-2.3368120193481445,1.883096694946289,0.03728485107421875,-0.010652542114257812,-0.0063915252685546875,0.1685333251953125,-0.6734867095947266,-0.37992382049560547,-0.6112527847290039
231,85990472.0,9.328093528747559,-2.2206897735595703,1.91302490234375,0.02769756317138672,-0.004261016845703125,-0.0063915252685546875,0.1685333251953125,-0.6734867095947266,-0.37992382049560547,-0.6112527847290039
232,85990488.0,9.23471736907959,-2.266180992126465,1.9321794509887695,-0.025567054748535156,0.0010652542114257812,-0.0031957626342773438,0.1685333251953125,-0.6734867095947266,-0.37992382049560547,-0.6112527847290039
233,85990512.0,9.240702629089355,-2.372725486755371,1.919011116027832,-0.022370338439941406,-0.0021305084228515625,-0.0031957626342773438,0.1685333251953125,-0.6734867095947266,-0.37992382049560547,-0.6112527847290039
234,85990528.0,9.300559997558594,-2.340402603149414,1.9106311798095703,0.013848304748535156,-0.0010652542114257812,-0.004261016845703125,0.1685333251953125,-0.6734867095947266,-0.37992382049560547,-0.6112527847290039
235,85990552.0,9.294573783874512,-2.230266571044922,1.91302490234375,0.013848304748535156,-0.0010652542114257812,-0.004261016845703125,0.1685333251953125,-0.6734867095947266,-0.37992382049560547,-0.6112527847290039
236,85990568.0,9.21556282043457,-2.2793493270874023,1.8818998336791992,0.013848304748535156,-0.0010652542114257812,-0.004261016845703125,0.1685333251953125,-0.6734867095947266,-0.37992382049560547,-0.6112527847290039
237,85990592.0,9.231125831604004,-2.3679370880126953,1.9010534286499023,0.013848304748535156,-0.0010652542114257812,-0.004261016845703125,0.1685333251953125,-0.6734867095947266,-0.37992382049560547,-0.6112527847290039
238,85990608.0,9.311333656311035,-2.2949113845825195,1.9178133010864258,0.013848304748535156,-0.0010652542114257812,-0.004261016845703125,0.1685333251953125,-0.6734867095947266,-0.37992382049560547,-0.6112527847290039
239,85990632.0,9.323305130004883,-2.2099151611328125,1.9058418273925781,0.013848304748535156,-0.0010652542114257812,-0.004261016845703125,0.1685333251953125,-0.6734867095947266,-0.37992382049560547,-0.6112527847290039
240,85990648.0,9.2550687789917,-2.2613916397094727,1.9034481048583984,-0.025567054748535156,0.010652542114257812,0.012783050537109375,0.1685333251953125,-0.6734867095947266,-0.37992382049560547,-0.6112527847290039
241,85990672.0,9.232322692871094,-2.348782539367676,1.8783082962036133,-0.04367637634277344,0.007456779479980469,0.010652542114257812,0.1685333251953125,-0.6734867095947266,-0.37992382049560547,-0.6112527847290039
242,85990688.0,9.320911407470703,-2.3320226669311523,1.884293556213379,-0.010652542114257812,-0.0063915252685546875,0.012783050537109375,0.1685333251953125,-0.6734867095947266,-0.37992382049560547,-0.6112527847290039
243,85990712.0,9.373584747314453,-2.2314634323120117,1.9202079772949219,0.020239830017089844,-0.009587287902832031,0.013848304748535156,0.1685333251953125,-0.6734867095947266,-0.37992382049560547,-0.6112527847290039
244,85990728.0,9.271828651428223,-2.2613916397094727,1.9321794509887695,-0.019174575805664062,0.0010652542114257812,0.019174575805664062,0.1685333251953125,-0.6734867095947266,-0.37992382049560547,-0.6112527847290039
245,85990752.0,9.219154357910156,-2.3308258056640625,1.9249963760375977,-0.054329872131347656,0.010652542114257812,0.014913558959960938,0.1685333251953125,-0.6734867095947266,-0.37992382049560547,-0.6112527847290039
246,85990768.0,9.281405448913574,-2.3619518280029297,1.915419578552246,-0.030893325805664062,0.0010652542114257812,0.0170440673828125,0.1685333251953125,-0.6734867095947266,-0.37992382049560547,-0.6112527847290039
247,85990792.0,9.338868141174316,-2.2733631134033203,1.9261932373046875,0.0,-0.0031957626342773438,0.0170440673828125,0.1685333251953125,-0.6734867095947266,-0.37992382049560547,-0.6112527847290039
248,85990808.0,9.243097305297852,-2.2326602935791016,1.9381647109985352,-0.00852203369140625,-0.0031957626342773438,0.024501800537109375,0.1685333251953125,-0.6734867095947266,-0.37992382049560547,-0.6112527847290039
249,85990832.0,9.131763458251953,-2.2973060607910156,1.9381647109985352,-0.02982807159423828,0.014913558959960938,0.0170440673828125,0.1685333251953125,-0.6734867095947266,-0.37992382049560547,-0.6112527847290039
250,85990848.0,9.204788208007812,-2.3236427307128906,1.9106311798095703,-0.02982807159423828,0.014913558959960938,0.0170440673828125,0.1685333251953125,-0.6734867095947266,-0.37992382049560547,-0.6112527847290039
251,85990872.0,9.349641799926758,-2.2949113845825195,1.9106311798095703,-0.02982807159423828,0.014913558959960938,0.0170440673828125,0.1685333251953125,-0.6734867095947266,-0.37992382049560547,-0.6112527847290039
252,85990888.0,9.288588523864746,-2.3643455505371094,1.8747167587280273,-0.02982807159423828,0.014913558959960938,0.0170440673828125,0.1685333251953125,-0.6734867095947266,-0.37992382049560547,-0.6112527847290039
253,85990912.0,9.282602310180664,-2.3044891357421875,1.8759136199951172,-0.02982807159423828,0.014913558959960938,0.0170440673828125,0.1685333251953125,-0.6734867095947266,-0.37992382049560547,-0.6112527847290039
254,85990928.0,9.299362182617188,-2.2721662521362305,1.8938703536987305,-0.02982807159423828,0.014913558959960938,0.0170440673828125,0.1685333251953125,-0.6734867095947266,-0.37992382049560547,-0.6112527847290039
255,85990952.0,9.241899490356445,-2.3008975982666016,1.8435907363891602,-0.02982807159423828,0.014913558959960938,0.0170440673828125,0.1685333251953125,-0.6734867095947266,-0.37992382049560547,-0.6112527847290039
256,85990968.0,9.23471736907959,-2.29251766204834,1.890279769897461,-0.02982807159423828,0.014913558959960938,0.0170440673828125,0.1685333251953125,-0.6734867095947266,-0.37992382049560547,-0.6112527847290039
257,85990992.0,9.250279426574707,-2.357163429260254,1.9046449661254883,-0.02982807159423828,0.014913558959960938,0.0170440673828125,0.1685333251953125,-0.6734867095947266,-0.37992382049560547,-0.6112527847290039
258,85991008.0,9.269433975219727,-2.346388816833496,1.9010534286499023,-0.02982807159423828,0.014913558959960938,0.0170440673828125,0.1685333251953125,-0.6734867095947266,-0.37992382049560547,-0.6112527847290039
259,85991024.0,9.280208587646484,-2.354768753051758,1.8783082962036133,-0.02982807159423828,0.014913558959960938,0.0170440673828125,0.1685333251953125,-0.6734867095947266,-0.37992382049560547,-0.6112527847290039
260,85991048.0,9.189226150512695,-2.4325828552246094,1.919011116027832,-0.03515434265136719,0.00852203369140625,-0.012783050537109375,0.1685333251953125,-0.6734867095947266,-0.37992382049560547,-0.6112527847290039
261,85991072.0,9.223942756652832,-2.379908561706543,1.9297847747802734,-0.023435592651367188,-0.0063915252685546875,-0.013848304748535156,0.16438961029052734,-0.6744365692138672,-0.3775062561035156,-0.6128063201904297
262,85991088.0,9.33527660369873,-2.3667402267456055,1.9285879135131836,-0.013848304748535156,-0.0021305084228515625,-0.004261016845703125,0.16430377960205078,-0.6745223999023438,-0.3773336410522461,-0.6128921508789062
263,85991112.0,9.320911407470703,-2.353571891784668,1.9202079772949219,-0.025567054748535156,0.00852203369140625,-0.0063915252685546875,0.1642169952392578,-0.674565315246582,-0.37720489501953125,-0.6129789352416992
264,85991128.0,9.209577560424805,-2.381105422973633,1.9034481048583984,-0.03621959686279297,0.013848304748535156,-0.0063915252685546875,0.16400146484375,-0.674652099609375,-0.3770322799682617,-0.6130218505859375
265,85991248.0,9.311333656311035,-2.3679370880126953,1.8926734924316406,0.007456779479980469,-0.0063915252685546875,0.0063915252685546875,0.1637420654296875,-0.6747817993164062,-0.3768157958984375,-0.6131076812744141
266,85991264.0,9.299362182617188,-2.288926124572754,1.8962650299072266,0.0031957626342773438,0.0031957626342773438,0.009587287902832031,0.1637420654296875,-0.6747817993164062,-0.3768157958984375,-0.6131076812744141
267,85991288.0,9.19640827178955,-2.321249008178711,1.9046449661254883,-0.025567054748535156,0.011717796325683594,0.007456779479980469,0.1637420654296875,-0.6747817993164062,-0.3768157958984375,-0.6131076812744141
268,85991304.0,9.23591423034668,-2.41103458404541,1.9226016998291016,-0.013848304748535156,-0.0063915252685546875,0.0063915252685546875,0.1637420654296875,-0.6747817993164062,-0.3768157958984375,-0.6131076812744141
269,85991328.0,9.340065002441406,-2.3092775344848633,1.9142217636108398,0.010652542114257812,-0.0063915252685546875,0.011717796325683594,0.1637420654296875,-0.6747817993164062,-0.3768157958984375,-0.6131076812744141
270,85991344.0,9.312531471252441,-2.2829408645629883,1.8926734924316406,0.010652542114257812,-0.0063915252685546875,0.011717796325683594,0.1637420654296875,-0.6747817993164062,-0.3768157958984375,-0.6131076812744141
271,85991360.0,9.245491027832031,-2.312869071960449,1.9178133010864258,0.010652542114257812,-0.0063915252685546875,0.011717796325683594,0.1637420654296875,-0.6747817993164062,-0.3768157958984375,-0.6131076812744141
272,85991368.0,9.203591346740723,-2.3631486892700195,1.8914766311645508,0.010652542114257812,-0.0063915252685546875,0.011717796325683594,0.1637420654296875,-0.6747817993164062,-0.3768157958984375,-0.6131076812744141
273,85991376.0,9.19640827178955,-2.401456832885742,1.8627452850341797,0.010652542114257812,-0.0063915252685546875,0.011717796325683594,0.1637420654296875,-0.6747817993164062,-0.3768157958984375,-0.6131076812744141
274,85991392.0,9.250279426574707,-2.3356142044067383,1.9010534286499023,0.010652542114257812,-0.0063915252685546875,0.011717796325683594,0.1637420654296875,-0.6747817993164062,-0.3768157958984375,-0.6131076812744141
275,85991400.0,9.30654525756836,-2.310474395751953,1.8914766311645508,0.010652542114257812,-0.0063915252685546875,0.011717796325683594,0.1637420654296875,-0.6747817993164062,-0.3768157958984375,-0.6131076812744141
276,85991408.0,9.330488204956055,-2.2937145233154297,1.8998565673828125,0.010652542114257812,-0.0063915252685546875,0.011717796325683594,0.1637420654296875,-0.6747817993164062,-0.3768157958984375,-0.6131076812744141
277,85991416.0,9.340065002441406,-2.322445869445801,1.91302490234375,0.010652542114257812,-0.0063915252685546875,0.011717796325683594,0.1637420654296875,-0.6747817993164062,-0.3768157958984375,-0.6131076812744141
278,85991424.0,9.300559997558594,-2.3416004180908203,1.8938703536987305,0.010652542114257812,-0.0063915252685546875,0.011717796325683594,0.1637420654296875,-0.6747817993164062,-0.3768157958984375,-0.6131076812744141
279,85991440.0,9.257462501525879,-2.321249008178711,1.8986597061157227,0.010652542114257812,-0.0063915252685546875,0.011717796325683594,0.1637420654296875,-0.6747817993164062,-0.3768157958984375,-0.6131076812744141
280,85991456.0,9.194014549255371,-2.3236427307128906,1.9178133010864258,0.010652542114257812,-0.0063915252685546875,0.011717796325683594,0.1637420654296875,-0.6747817993164062,-0.3768157958984375,-0.6131076812744141
281,85991480.0,9.249082565307617,-2.3739233016967773,1.8854904174804688,0.010652542114257812,-0.0063915252685546875,0.011717796325683594,0.1637420654296875,-0.6747817993164062,-0.3768157958984375,-0.6131076812744141
282,85991496.0,9.28380012512207,-2.419414520263672,1.9118280410766602,0.010652542114257812,-0.0063915252685546875,0.011717796325683594,0.1637420654296875,-0.6747817993164062,-0.3768157958984375,-0.6131076812744141
283,85991520.0,9.313728332519531,-2.3332204818725586,1.9142217636108398,0.010652542114257812,-0.0063915252685546875,0.011717796325683594,0.1637420654296875,-0.6747817993164062,-0.3768157958984375,-0.6131076812744141
284,85991536.0,9.256265640258789,-2.3332204818725586,1.9297847747802734,-0.023435592651367188,-0.0021305084228515625,0.031958580017089844,0.1637420654296875,-0.6747817993164062,-0.3768157958984375,-0.6131076812744141
285,85991560.0,9.259857177734375,-2.4146251678466797,1.9070396423339844,-0.033023834228515625,-0.0021305084228515625,0.033023834228515625,0.1637420654296875,-0.6747817993164062,-0.3768157958984375,-0.6131076812744141
286,85991576.0,9.276617050170898,-2.3978652954101562,1.8747167587280273,-0.0063915252685546875,-0.005326271057128906,0.0287628173828125,0.1637420654296875,-0.6747817993164062,-0.3768157958984375,-0.6131076812744141
287,85991600.0,9.261054039001465,-2.3607540130615234,1.890279769897461,0.0031957626342773438,-0.0021305084228515625,0.02769756317138672,0.1637420654296875,-0.6747817993164062,-0.3768157958984375,-0.6131076812744141
288,85991616.0,9.210774421691895,-2.3966684341430664,1.8328170776367188,-0.004261016845703125,-0.005326271057128906,0.0287628173828125,0.1637420654296875,-0.6747817993164062,-0.3768157958984375,-0.6131076812744141
289,85991736.0,9.28380012512207,-2.4146251678466797,1.8639421463012695,0.011717796325683594,-0.0170440673828125,0.052199363708496094,0.1637420654296875,-0.6747817993164062,-0.3768157958984375,-0.6131076812744141
290,85991736.0,9.28380012512207,-2.4146251678466797,1.8639421463012695,0.011717796325683594,-0.0170440673828125,0.052199363708496094,0.1637420654296875,-0.6747817993164062,-0.3768157958984375,-0.6131076812744141
291,85991736.0,9.28380012512207,-2.4146251678466797,1.8639421463012695,0.011717796325683594,-0.0170440673828125,0.052199363708496094,0.1637420654296875,-0.6747817993164062,-0.3768157958984375,-0.6131076812744141
292,85991760.0,9.268237113952637,-2.4122314453125,1.8818998336791992,0.00852203369140625,-0.013848304748535156,0.05539512634277344,0.1637420654296875,-0.6747817993164062,-0.3768157958984375,-0.6131076812744141
293,85991760.0,9.268237113952637,-2.4122314453125,1.8818998336791992,0.00852203369140625,-0.013848304748535156,0.05539512634277344,0.1637420654296875,-0.6747817993164062,-0.3768157958984375,-0.6131076812744141
294,85991760.0,9.268237113952637,-2.4122314453125,1.8818998336791992,0.00852203369140625,-0.013848304748535156,0.05539512634277344,0.1637420654296875,-0.6747817993164062,-0.3768157958984375,-0.6131076812744141
295,85991776.0,9.319713592529297,-2.41342830657959,1.9345731735229492,0.0010652542114257812,-0.01597881317138672,0.05859088897705078,0.1637420654296875,-0.6747817993164062,-0.3768157958984375,-0.6131076812744141
296,85991776.0,9.319713592529297,-2.41342830657959,1.9345731735229492,0.0010652542114257812,-0.01597881317138672,0.05859088897705078,0.1637420654296875,-0.6747817993164062,-0.3768157958984375,-0.6131076812744141
297,85991776.0,9.319713592529297,-2.41342830657959,1.9345731735229492,0.0010652542114257812,-0.01597881317138672,0.05859088897705078,0.1637420654296875,-0.6747817993164062,-0.3768157958984375,-0.6131076812744141
298,85991792.0,9.33647346496582,-2.408639907836914,1.9645023345947266,0.004261016845703125,-0.004261016845703125,0.054329872131347656,0.1637420654296875,-0.6747817993164062,-0.3768157958984375,-0.6131076812744141
299,85991792.0,9.33647346496582,-2.408639907836914,1.9645023345947266,0.004261016845703125,-0.004261016845703125,0.054329872131347656,0.1637420654296875,-0.6747817993164062,-0.3768157958984375,-0.6131076812744141
300,85991792.0,9.33647346496582,-2.408639907836914,1.9645023345947266,0.004261016845703125,-0.004261016845703125,0.054329872131347656,0.1637420654296875,-0.6747817993164062,-0.3768157958984375,-0.6131076812744141
301,85991816.0,9.298165321350098,-2.3416004180908203,1.8962650299072266,-0.030893325805664062,0.0010652542114257812,0.057525634765625,0.1637420654296875,-0.6747817993164062,-0.3768157958984375,-0.6131076812744141
302,85991816.0,9.298165321350098,-2.3416004180908203,1.8962650299072266,-0.030893325805664062,0.0010652542114257812,0.057525634765625,0.1637420654296875,-0.6747817993164062,-0.3768157958984375,-0.6131076812744141
303,85991816.0,9.298165321350098,-2.3416004180908203,1.8962650299072266,-0.030893325805664062,0.0010652542114257812,0.057525634765625,0.1637420654296875,-0.6747817993164062,-0.3768157958984375,-0.6131076812744141
304,85991936.0,9.258659362792969,-2.442159652709961,1.8364086151123047,-0.030893325805664062,0.0010652542114257812,0.057525634765625,0.1637420654296875,-0.6747817993164062,-0.3768157958984375,-0.6131076812744141
305,85991952.0,9.392739295959473,-2.4828624725341797,1.8064794540405273,-0.030893325805664062,0.0010652542114257812,0.057525634765625,0.1534709930419922,-0.6709403991699219,-0.38117504119873047,-0.6172513961791992
306,85991976.0,9.529212951660156,-2.406245231628418,1.8124656677246094,-0.030893325805664062,0.0010652542114257812,0.057525634765625,0.1526508331298828,-0.6706380844116211,-0.38147735595703125,-0.6176395416259766
307,85991992.0,9.387950897216797,-2.316460609436035,1.8435907363891602,-0.030893325805664062,0.0010652542114257812,0.057525634765625,0.15148544311523438,-0.6704225540161133,-0.38134765625,-0.6182012557983398
308,85992016.0,9.391542434692383,-2.2422380447387695,1.9010534286499023,-0.030893325805664062,0.0010652542114257812,0.057525634765625,0.1491546630859375,-0.670379638671875,-0.3803548812866211,-0.6194095611572266
309,85992032.0,9.59744930267334,-2.755809783935547,2.0578784942626953,-0.7414464950561523,-0.1661853790283203,0.2141246795654297,0.14492511749267578,-0.6702070236206055,-0.3777656555175781,-0.6221714019775391
310,85992056.0,9.450201988220215,-3.6979570388793945,2.0614700317382812,-0.6445045471191406,-0.2769765853881836,0.2471485137939453,0.14492511749267578,-0.6702070236206055,-0.3777656555175781,-0.6221714019775391
311,85992080.0,9.553155899047852,-3.9768896102905273,2.405048370361328,-0.41120433807373047,-0.4911012649536133,0.31532764434814453,0.14492511749267578,-0.6702070236206055,-0.3777656555175781,-0.6221714019775391
312,85992096.0,10.47854232788086,-4.300116539001465,2.6037731170654297,-0.28017234802246094,-0.774470329284668,0.4218568801879883,0.14492511749267578,-0.6702070236206055,-0.3777656555175781,-0.6221714019775391
313,85992112.0,11.618217468261719,-5.807312965393066,2.0506954193115234,-0.07989692687988281,-0.9853992462158203,0.6413078308105469,0.14492511749267578,-0.6702070236206055,-0.3777656555175781,-0.6221714019775391
314,85992136.0,12.174886703491211,-7.377957344055176,1.517970085144043,-0.07989692687988281,-0.9853992462158203,0.6413078308105469,0.14492511749267578,-0.6702070236206055,-0.3777656555175781,-0.6221714019775391
315,85992160.0,12.769864082336426,-7.922654151916504,1.0690431594848633,-0.07989692687988281,-0.9853992462158203,0.6413078308105469,0.14492511749267578,-0.6702070236206055,-0.3777656555175781,-0.6221714019775391
316,85992176.0,14.154952049255371,-7.2331037521362305,1.0522832870483398,-0.07989692687988281,-0.9853992462158203,0.6413078308105469,0.14492511749267578,-0.6702070236206055,-0.3777656555175781,-0.6221714019775391
317,85992192.0,16.070371627807617,-8.590657234191895,2.4840593338012695,-0.07989692687988281,-0.9853992462158203,0.6413078308105469,0.14492511749267578,-0.6702070236206055,-0.3777656555175781,-0.6221714019775391
318,85992216.0,17.571582794189453,-10.676070213317871,2.433779716491699,-0.07989692687988281,-0.9853992462158203,0.6413078308105469,0.14492511749267578,-0.6702070236206055,-0.3777656555175781,-0.6221714019775391
319,85992368.0,13.652153968811035,-26.225688934326172,-13.26667594909668,2.420353889465332,-2.0879812240600586,8.49148178100586,0.14492511749267578,-0.6702070236206055,-0.3777656555175781,-0.6221714019775391
320,85992384.0,16.061992645263672,-17.886428833007812,-17.629043579101562,2.420353889465332,-2.0879812240600586,8.49148178100586,-0.10336494445800781,-0.17151165008544922,-0.6594600677490234,-0.7245864868164062
321,85992400.0,16.865270614624023,-7.860403060913086,-20.131061553955078,2.420353889465332,-2.0879812240600586,8.49148178100586,-0.15200424194335938,-0.09494876861572266,-0.7245426177978516,-0.6655025482177734
322,85992424.0,17.242368698120117,-3.149667739868164,-16.855693817138672,2.420353889465332,-2.0879812240600586,8.49148178100586,-0.20206832885742188,-0.017608642578125,-0.7846193313598633,-0.5859184265136719
323,85992448.0,18.286273956298828,-6.852414131164551,-11.734339714050293,2.420353889465332,-2.0879812240600586,8.49148178100586,-0.2517862319946289,0.055846214294433594,-0.8335609436035156,-0.4885530471801758
324,85992456.0,18.85012435913086,-8.581080436706543,-12.62620735168457,9.925371170043945,-0.7201404571533203,10.976819038391113,-0.2517862319946289,0.055846214294433594,-0.8335609436035156,-0.4885530471801758
325,85992464.0,20.10232925415039,-7.201977729797363,-14.590709686279297,9.925371170043945,-0.7201404571533203,10.976819038391113,-0.2517862319946289,0.055846214294433594,-0.8335609436035156,-0.4885530471801758
326,85992472.0,21.244400024414062,-3.148470878601074,-16.573169708251953,10.977884292602539,-0.45807743072509766,10.872420310974121,-0.2517862319946289,0.055846214294433594,-0.8335609436035156,-0.4885530471801758
327,85992480.0,21.476642608642578,1.332413673400879,-17.514118194580078,10.977884292602539,-0.45807743072509766,10.872420310974121,-0.2517862319946289,0.055846214294433594,-0.8335609436035156,-0.4885530471801758
328,85992496.0,20.696109771728516,4.836434364318848,-17.223215103149414,10.434582710266113,0.8021678924560547,10.217262268066406,-0.2517862319946289,0.055846214294433594,-0.8335609436035156,-0.4885530471801758
329,85992504.0,18.999767303466797,7.652101516723633,-16.096708297729492,10.434582710266113,0.8021678924560547,10.217262268066406,-0.2517862319946289,0.055846214294433594,-0.8335609436035156,-0.4885530471801758
330,85992512.0,16.98139190673828,9.671671867370605,-14.358465194702148,8.130345344543457,1.8280487060546875,9.342653274536133,-0.2517862319946289,0.055846214294433594,-0.8335609436035156,-0.4885530471801758
331,85992520.0,15.110267639160156,11.47815227508545,-12.948237419128418,8.130345344543457,1.8280487060546875,9.342653274536133,-0.2517862319946289,0.055846214294433594,-0.8335609436035156,-0.4885530471801758
332,85992664.0,8.448197364807129,20.0855712890625,1.952530860900879,0.7233362197875977,-1.7982206344604492,-3.126646041870117,-0.2517862319946289,0.055846214294433594,-0.8335609436035156,-0.4885530471801758
333,85992664.0,8.448197364807129,20.0855712890625,1.952530860900879,0.7233362197875977,-1.7982206344604492,-3.126646041870117,-0.2517862319946289,0.055846214294433594,-0.8335609436035156,-0.4885530471801758
334,85992688.0,10.447417259216309,18.753154754638672,-2.935379981994629,0.7233362197875977,-1.7982206344604492,-3.126646041870117,-0.4681396484375,0.3463888168334961,-0.774693489074707,0.24639034271240234
335,85992688.0,10.447417259216309,18.753154754638672,-2.935379981994629,0.7233362197875977,-1.7982206344604492,-3.126646041870117,-0.4681396484375,0.3463888168334961,-0.774693489074707,0.24639034271240234
336,85992704.0,16.721614837646484,16.55042266845703,-7.025999069213867,0.7233362197875977,-1.7982206344604492,-3.126646041870117,-0.45890331268310547,0.2917928695678711,-0.816340446472168,0.19451427459716797
337,85992704.0,16.721614837646484,16.55042266845703,-7.025999069213867,0.7233362197875977,-1.7982206344604492,-3.126646041870117,-0.45890331268310547,0.2917928695678711,-0.816340446472168,0.19451427459716797
338,85992720.0,26.541732788085938,13.237944602966309,-8.384749412536621,0.7233362197875977,-1.7982206344604492,-3.126646041870117,-0.43758296966552734,0.22744369506835938,-0.8642034530639648,0.09947967529296875
339,85992720.0,26.541732788085938,13.237944602966309,-8.384749412536621,0.7233362197875977,-1.7982206344604492,-3.126646041870117,-0.43758296966552734,0.22744369506835938,-0.8642034530639648,0.09947967529296875
340,85992744.0,33.711387634277344,7.655693054199219,-11.652934074401855,0.7233362197875977,-1.7982206344604492,-3.126646041870117,-0.4138460159301758,0.15679359436035156,-0.895838737487793,-0.04035377502441406
341,85992744.0,33.711387634277344,7.655693054199219,-11.652934074401855,0.7233362197875977,-1.7982206344604492,-3.126646041870117,-0.4138460159301758,0.15679359436035156,-0.895838737487793,-0.04035377502441406
342,85992864.0,39.226600646972656,-13.970592498779297,-38.31557846069336,-10.851114273071289,2.1838579177856445,-19.126340866088867,-0.39912891387939453,0.0810079574584961,-0.8899688720703125,-0.20517539978027344
343,85992880.0,38.79682922363281,-39.226600646972656,-0.6129341125488281,-10.851114273071289,2.1838579177856445,-19.126340866088867,-0.39912891387939453,0.0810079574584961,-0.8899688720703125,-0.20517539978027344
344,85992904.0,-3.678802490234375,-20.626676559448242,-39.226600646972656,-10.851114273071289,2.1838579177856445,-19.126340866088867,-0.39912891387939453,0.0810079574584961,-0.8899688720703125,-0.20517539978027344
345,85992920.0,29.177827835083008,39.009918212890625,15.056396484375,-10.851114273071289,2.1838579177856445,-19.126340866088867,-0.39912891387939453,0.0810079574584961,-0.8899688720703125,-0.20517539978027344
346,85992944.0,23.708106994628906,2.251814842224121,-3.7015485763549805,-10.851114273071289,2.1838579177856445,-19.126340866088867,-0.39912891387939453,0.0810079574584961,-0.8899688720703125,-0.20517539978027344
347,85992960.0,-7.319296836853027,-39.226600646972656,-31.094444274902344,-10.851114273071289,2.1838579177856445,-19.126340866088867,-0.39912891387939453,0.0810079574584961,-0.8899688720703125,-0.20517539978027344
348,85992984.0,8.369186401367188,-28.109981536865234,4.077449798583984,-8.937840461730957,-4.180224418640137,-1.4317588806152344,-0.39912891387939453,0.0810079574584961,-0.8899688720703125,-0.20517539978027344
349,85993000.0,15.386805534362793,-6.800936698913574,0.11372756958007812,5.698272705078125,-3.8148279190063477,1.3284244537353516,-0.39912891387939453,0.0810079574584961,-0.8899688720703125,-0.20517539978027344
350,85993024.0,16.756332397460938,0.1843585968017578,1.818450927734375,5.805868148803711,-3.207608222961426,0.7947111129760742,-0.39912891387939453,0.0810079574584961,-0.8899688720703125,-0.20517539978027344
351,85993040.0,10.853246688842773,-0.9816522598266602,4.725100517272949,2.420353889465332,-0.9331998825073242,0.005326271057128906,-0.39912891387939453,0.0810079574584961,-0.8899688720703125,-0.20517539978027344
352,85993064.0,8.601431846618652,-4.82206916809082,2.0758352279663086,-0.2652587890625,-0.6349163055419922,-0.08735370635986328,-0.39912891387939453,0.0810079574584961,-0.8899688720703125,-0.20517539978027344
353,85993064.0,8.601431846618652,-4.82206916809082,2.0758352279663086,-0.2652587890625,-0.6349163055419922,-0.08735370635986328,-0.39912891387939453,0.0810079574584961,-0.8899688720703125,-0.20517539978027344
354,85993080.0,8.561925888061523,-5.9569549560546875,0.09936237335205078,-0.2652587890625,-0.6349163055419922,-0.08735370635986328,-0.39912891387939453,0.0810079574584961,-0.8899688720703125,-0.20517539978027344
355,85993080.0,8.561925888061523,-5.9569549560546875,0.09936237335205078,-0.2652587890625,-0.6349163055419922,-0.08735370635986328,-0.39912891387939453,0.0810079574584961,-0.8899688720703125,-0.20517539978027344
356,85993104.0,9.180846214294434,-3.618946075439453,0.17957019805908203,-0.2652587890625,-0.6349163055419922,-0.08735370635986328,-0.39912891387939453,0.0810079574584961,-0.8899688720703125,-0.20517539978027344
357,85993104.0,9.180846214294434,-3.618946075439453,0.17957019805908203,-0.2652587890625,-0.6349163055419922,-0.08735370635986328,-0.39912891387939453,0.0810079574584961,-0.8899688720703125,-0.20517539978027344
358,85993120.0,9.505270004272461,-1.5718412399291992,1.6293039321899414,-0.2652587890625,-0.6349163055419922,-0.08735370635986328,-0.39912891387939453,0.0810079574584961,-0.8899688720703125,-0.20517539978027344
359,85993120.0,9.505270004272461,-1.5718412399291992,1.6293039321899414,-0.2652587890625,-0.6349163055419922,-0.08735370635986328,-0.39912891387939453,0.0810079574584961,-0.8899688720703125,-0.20517539978027344
360,85993144.0,8.851633071899414,-1.116929054260254,2.3320226669311523,-0.2652587890625,-0.6349163055419922,-0.08735370635986328,-0.39912891387939453,0.0810079574584961,-0.8899688720703125,-0.20517539978027344
361,85993144.0,8.851633071899414,-1.116929054260254,2.3320226669311523,-0.2652587890625,-0.6349163055419922,-0.08735370635986328,-0.39912891387939453,0.0810079574584961,-0.8899688720703125,-0.20517539978027344
362,85993264.0,9.239505767822266,-2.266180992126465,0.9217948913574219,0.7094869613647461,0.03941535949707031,0.32598018646240234,-0.39912891387939453,0.0810079574584961,-0.8899688720703125,-0.20517539978027344
363,85993280.0,8.652908325195312,-2.226675033569336,1.022355079650879,0.7233362197875977,0.0063915252685546875,0.26845455169677734,0.05403423309326172,-0.6740045547485352,-0.24466514587402344,-0.6949367523193359
364,85993296.0,9.155706405639648,-1.9465446472167969,1.0953798294067383,0.599761962890625,-0.19707965850830078,0.26845455169677734,0.05679607391357422,-0.6719331741333008,-0.25070762634277344,-0.6945915222167969
365,85993320.0,9.16408634185791,-2.266180992126465,1.0163688659667969,0.4623384475708008,-0.21199321746826172,0.28017234802246094,0.05882453918457031,-0.6693000793457031,-0.2558431625366211,-0.6950654983520508
366,85993344.0,8.722342491149902,-2.5271568298339844,1.0881977081298828,0.33663368225097656,-0.10226821899414062,0.33237171173095703,0.059299468994140625,-0.6673154830932617,-0.2604179382324219,-0.695195198059082
367,85993360.0,8.8767728805542,-2.6708126068115234,1.4293813705444336,0.2588663101196289,-0.12570476531982422,0.3643312454223633,0.058997154235839844,-0.6654157638549805,-0.2646474838256836,-0.6954975128173828
368,85993384.0,9.4537935256958,-2.594196319580078,1.0498886108398438,0.2588663101196289,-0.12570476531982422,0.3643312454223633,0.058997154235839844,-0.6654157638549805,-0.2646474838256836,-0.6954975128173828
369,85993400.0,10.02482795715332,-2.175198554992676,0.6021595001220703,0.2588663101196289,-0.12570476531982422,0.3643312454223633,0.058997154235839844,-0.6654157638549805,-0.2646474838256836,-0.6954975128173828
370,85993424.0,9.757865905761719,-2.6468706130981445,0.3411836624145508,0.2588663101196289,-0.12570476531982422,0.3643312454223633,0.058997154235839844,-0.6654157638549805,-0.2646474838256836,-0.6954975128173828
371,85993440.0,9.049160957336426,-3.5638771057128906,0.1891469955444336,0.2588663101196289,-0.12570476531982422,0.3643312454223633,0.058997154235839844,-0.6654157638549805,-0.2646474838256836,-0.6954975128173828
372,85993464.0,8.881561279296875,-3.8811187744140625,0.3603382110595703,0.2588663101196289,-0.12570476531982422,0.3643312454223633,0.058997154235839844,-0.6654157638549805,-0.2646474838256836,-0.6954975128173828
373,85993480.0,9.201197624206543,-3.3591670989990234,0.2130899429321289,0.2588663101196289,-0.12570476531982422,0.3643312454223633,0.058997154235839844,-0.6654157638549805,-0.2646474838256836,-0.6954975128173828
374,85993504.0,9.261054039001465,-2.8910865783691406,0.1316843032836914,0.2588663101196289,-0.12570476531982422,0.3643312454223633,0.058997154235839844,-0.6654157638549805,-0.2646474838256836,-0.6954975128173828
375,85993520.0,9.148523330688477,-3.181990623474121,0.2525959014892578,0.2588663101196289,-0.12570476531982422,0.3643312454223633,0.058997154235839844,-0.6654157638549805,-0.2646474838256836,-0.6954975128173828
376,85993536.0,9.584280967712402,-3.5135974884033203,0.1711902618408203,0.2588663101196289,-0.12570476531982422,0.3643312454223633,0.058997154235839844,-0.6654157638549805,-0.2646474838256836,-0.6954975128173828
377,85993560.0,9.743500709533691,-3.255016326904297,0.022745132446289062,0.2588663101196289,-0.12570476531982422,0.3643312454223633,0.058997154235839844,-0.6654157638549805,-0.2646474838256836,-0.6954975128173828
378,85993584.0,9.338868141174316,-3.0443201065063477,0.1316843032836914,0.09481048583984375,-0.11398601531982422,0.31958866119384766,0.022269248962402344,-0.6484975814819336,-0.27880382537841797,-0.7079706192016602
379,85993600.0,9.280208587646484,-3.307689666748047,0.5183601379394531,0.05646038055419922,-0.1320962905883789,0.3057394027709961,0.020888328552246094,-0.646728515625,-0.2812633514404297,-0.7086610794067383
380,85993616.0,9.457385063171387,-3.34360408782959,0.39864635467529297,0.054329872131347656,-0.18216514587402344,0.2993478775024414,0.019550323486328125,-0.6446571350097656,-0.2835073471069336,-0.7097396850585938
381,85993640.0,9.724346160888672,-3.1376962661743164,0.4046316146850586,0.10865974426269531,-0.19814491271972656,0.27271556854248047,0.01873016357421875,-0.6424131393432617,-0.2860107421875,-0.7107324600219727
382,85993664.0,9.347248077392578,-3.3579702377319336,0.42737770080566406,0.04900360107421875,-0.12570476531982422,0.2141246795654297,0.018039703369140625,-0.6406431198120117,-0.28795337677001953,-0.7115955352783203
383,85993680.0,9.16648006439209,-3.7530250549316406,0.5291337966918945,0.04900360107421875,-0.12570476531982422,0.2141246795654297,0.018039703369140625,-0.6406431198120117,-0.28795337677001953,-0.7115955352783203
384,85993696.0,9.147326469421387,-3.593806266784668,0.36273193359375,0.04900360107421875,-0.12570476531982422,0.2141246795654297,0.018039703369140625,-0.6406431198120117,-0.28795337677001953,-0.7115955352783203
385,85993720.0,8.893532752990723,-3.3448009490966797,0.2502012252807617,0.04900360107421875,-0.12570476531982422,0.2141246795654297,0.018039703369140625,-0.6406431198120117,-0.28795337677001953,-0.7115955352783203
386,85993744.0,8.625373840332031,-3.5495119094848633,0.23224449157714844,0.04900360107421875,-0.12570476531982422,0.2141246795654297,0.018039703369140625,-0.6406431198120117,-0.28795337677001953,-0.7115955352783203
387,85993856.0,9.228731155395508,-3.675210952758789,-0.0395050048828125,0.14168357849121094,0.07030868530273438,-0.15659809112548828,0.018039703369140625,-0.6406431198120117,-0.28795337677001953,-0.7115955352783203
388,85993856.0,9.228731155395508,-3.675210952758789,-0.0395050048828125,0.14168357849121094,0.07030868530273438,-0.15659809112548828,0.018039703369140625,-0.6406431198120117,-0.28795337677001953,-0.7115955352783203
389,85993880.0,9.082680702209473,-3.846402168273926,0.12330436706542969,0.14168357849121094,0.07030868530273438,-0.15659809112548828,0.018039703369140625,-0.6406431198120117,-0.28795337677001953,-0.7115955352783203
390,85993880.0,9.082680702209473,-3.846402168273926,0.12330436706542969,0.14168357849121094,0.07030868530273438,-0.15659809112548828,0.018039703369140625,-0.6406431198120117,-0.28795337677001953,-0.7115955352783203
391,85993896.0,9.168874740600586,-3.605776786804199,0.09098243713378906,0.14168357849121094,0.07030868530273438,-0.15659809112548828,0.018039703369140625,-0.6406431198120117,-0.28795337677001953,-0.7115955352783203
392,85993896.0,9.168874740600586,-3.605776786804199,0.09098243713378906,0.14168357849121094,0.07030868530273438,-0.15659809112548828,0.018039703369140625,-0.6406431198120117,-0.28795337677001953,-0.7115955352783203
393,85993920.0,9.211971282958984,-3.5818347930908203,0.1053476333618164,0.14168357849121094,0.07030868530273438,-0.15659809112548828,0.018039703369140625,-0.6406431198120117,-0.28795337677001953,-0.7115955352783203
394,85993920.0,9.211971282958984,-3.5818347930908203,0.1053476333618164,0.14168357849121094,0.07030868530273438,-0.15659809112548828,0.018039703369140625,-0.6406431198120117,-0.28795337677001953,-0.7115955352783203
395,85993936.0,9.079089164733887,-3.9062585830688477,0.09696769714355469,0.14168357849121094,0.07030868530273438,-0.15659809112548828,0.018039703369140625,-0.6406431198120117,-0.28795337677001953,-0.7115955352783203
396,85993936.0,9.079089164733887,-3.9062585830688477,0.09696769714355469,0.14168357849121094,0.07030868530273438,-0.15659809112548828,0.018039703369140625,-0.6406431198120117,-0.28795337677001953,-0.7115955352783203
397,85993960.0,9.004866600036621,-4.023578643798828,0.2262582778930664,0.14168357849121094,0.07030868530273438,-0.15659809112548828,0.018039703369140625,-0.6406431198120117,-0.28795337677001953,-0.7115955352783203
398,85993976.0,9.015641212463379,-3.700350761413574,0.31724071502685547,0.11292076110839844,0.009587287902832031,-0.0809621810913086,0.018039703369140625,-0.6406431198120117,-0.28795337677001953,-0.7115955352783203
399,85994000.0,8.972543716430664,-3.550708770751953,0.32202911376953125,0.10865974426269531,0.0,-0.05646038055419922,0.018039703369140625,-0.6406431198120117,-0.28795337677001953,-0.7115955352783203
400,85994016.0,8.880364418029785,-3.77217960357666,0.31963539123535156,0.004261016845703125,0.005326271057128906,-0.0287628173828125,0.018039703369140625,-0.6406431198120117,-0.28795337677001953,-0.7115955352783203
401,85994040.0,8.869589805603027,-3.9697065353393555,0.3208322525024414,-0.024501800537109375,-0.011717796325683594,-0.01810932159423828,0.018039703369140625,-0.6406431198120117,-0.28795337677001953,-0.7115955352783203
402,85994056.0,9.123383522033691,-3.8523874282836914,0.39266014099121094,0.07563591003417969,-0.0287628173828125,-0.0170440673828125,0.018039703369140625,-0.6406431198120117,-0.28795337677001953,-0.7115955352783203
403,85994080.0,9.09465217590332,-3.715913772583008,0.5135717391967773,0.14274978637695312,-0.04687213897705078,-0.01810932159423828,0.018039703369140625,-0.6406431198120117,-0.28795337677001953,-0.7115955352783203
404,85994096.0,8.832478523254395,-3.72189998626709,0.5818080902099609,0.10652923583984375,0.024501800537109375,-0.022370338439941406,0.018039703369140625,-0.6406431198120117,-0.28795337677001953,-0.7115955352783203
405,85994120.0,8.930644035339355,-3.8009109497070312,0.4884319305419922,0.03728485107421875,-0.005326271057128906,-0.020239830017089844,0.018039703369140625,-0.6406431198120117,-0.28795337677001953,-0.7115955352783203
406,85994136.0,9.04556941986084,-3.769784927368164,0.44054603576660156,0.025567054748535156,-0.0063915252685546875,-0.01597881317138672,0.018039703369140625,-0.6406431198120117,-0.28795337677001953,-0.7115955352783203
407,85994160.0,8.952192306518555,-3.648874282836914,0.39505481719970703,0.05646038055419922,0.040480613708496094,-0.01810932159423828,0.018039703369140625,-0.6406431198120117,-0.28795337677001953,-0.7115955352783203
408,85994176.0,8.952192306518555,-3.6297197341918945,0.4178009033203125,0.05646038055419922,0.040480613708496094,-0.01810932159423828,0.038626670837402344,-0.6532449722290039,-0.29874229431152344,-0.6946344375610352
409,85994200.0,8.956981658935547,-3.6596479415893555,0.3782949447631836,0.05646038055419922,0.040480613708496094,-0.01810932159423828,0.038971900939941406,-0.6536769866943359,-0.29874229431152344,-0.6942024230957031
410,85994216.0,9.009654998779297,-3.5459203720092773,0.3735065460205078,0.05646038055419922,0.040480613708496094,-0.01810932159423828,0.039618492126464844,-0.654022216796875,-0.29891490936279297,-0.6938142776489258
411,85994240.0,9.02641487121582,-3.390292167663574,0.2106952667236328,0.05646038055419922,0.040480613708496094,-0.01810932159423828,0.04043865203857422,-0.6544103622436523,-0.2991313934326172,-0.6932535171508789
412,85994360.0,8.947403907775879,-3.6261281967163086,0.46329212188720703,-0.042611122131347656,0.0063915252685546875,-0.057525634765625,0.04087066650390625,-0.6547555923461914,-0.2990446090698242,-0.6929941177368164
413,85994360.0,8.947403907775879,-3.6261281967163086,0.46329212188720703,-0.042611122131347656,0.0063915252685546875,-0.057525634765625,0.04087066650390625,-0.6547555923461914,-0.2990446090698242,-0.6929941177368164
414,85994376.0,9.030006408691406,-3.590214729309082,0.4776573181152344,-0.042611122131347656,0.0063915252685546875,-0.057525634765625,0.04087066650390625,-0.6547555923461914,-0.2990446090698242,-0.6929941177368164
415,85994376.0,9.030006408691406,-3.590214729309082,0.4776573181152344,-0.042611122131347656,0.0063915252685546875,-0.057525634765625,0.04087066650390625,-0.6547555923461914,-0.2990446090698242,-0.6929941177368164
416,85994400.0,9.103032112121582,-3.3340272903442383,0.5434999465942383,-0.042611122131347656,0.0063915252685546875,-0.057525634765625,0.04087066650390625,-0.6547555923461914,-0.2990446090698242,-0.6929941177368164
417,85994400.0,9.103032112121582,-3.3340272903442383,0.5434999465942383,-0.042611122131347656,0.0063915252685546875,-0.057525634765625,0.04087066650390625,-0.6547555923461914,-0.2990446090698242,-0.6929941177368164
418,85994416.0,9.028809547424316,-3.3663501739501953,0.5231485366821289,-0.042611122131347656,0.0063915252685546875,-0.057525634765625,0.04087066650390625,-0.6547555923461914,-0.2990446090698242,-0.6929941177368164
419,85994416.0,9.028809547424316,-3.3663501739501953,0.5231485366821289,-0.042611122131347656,0.0063915252685546875,-0.057525634765625,0.04087066650390625,-0.6547555923461914,-0.2990446090698242,-0.6929941177368164
420,85994440.0,8.991698265075684,-3.4824724197387695,0.4752626419067383,-0.042611122131347656,0.0063915252685546875,-0.057525634765625,0.04087066650390625,-0.6547555923461914,-0.2990446090698242,-0.6929941177368164
421,85994440.0,8.991698265075684,-3.4824724197387695,0.4752626419067383,-0.042611122131347656,0.0063915252685546875,-0.057525634765625,0.04087066650390625,-0.6547555923461914,-0.2990446090698242,-0.6929941177368164
422,85994456.0,9.150917053222656,-3.4154319763183594,0.4501228332519531,-0.042611122131347656,0.0063915252685546875,-0.057525634765625,0.04087066650390625,-0.6547555923461914,-0.2990446090698242,-0.6929941177368164
423,85994480.0,9.369993209838867,-3.3148727416992188,0.42977142333984375,0.18855667114257812,-0.07776641845703125,-0.019174575805664062,0.04087066650390625,-0.6547555923461914,-0.2990446090698242,-0.6929941177368164
424,85994496.0,9.304150581359863,-3.2610015869140625,0.3387889862060547,0.1789693832397461,-0.04900360107421875,-0.03515434265136719,0.04087066650390625,-0.6547555923461914,-0.2990446090698242,-0.6929941177368164
425,85994520.0,9.107820510864258,-3.2861413955688477,0.3782949447631836,0.1608591079711914,-0.0170440673828125,-0.0692434310913086,0.04087066650390625,-0.6547555923461914,-0.2990446090698242,-0.6929941177368164
426,85994536.0,9.245491027832031,-3.192765235900879,0.36153507232666016,0.12783527374267578,-0.02982807159423828,-0.07137489318847656,0.04087066650390625,-0.6547555923461914,-0.2990446090698242,-0.6929941177368164
427,85994560.0,9.42625904083252,-3.1400909423828125,0.24900436401367188,0.0745706558227539,-0.054329872131347656,-0.06391716003417969,0.04087066650390625,-0.6547555923461914,-0.2990446090698242,-0.6929941177368164
428,85994576.0,9.112608909606934,-3.258607864379883,0.27773571014404297,0.0745706558227539,-0.054329872131347656,-0.06391716003417969,0.04087066650390625,-0.6547555923461914,-0.2990446090698242,-0.6929941177368164
429,85994600.0,9.027612686157227,-3.474092483520508,0.3711118698120117,0.0745706558227539,-0.054329872131347656,-0.06391716003417969,0.04087066650390625,-0.6547555923461914,-0.2990446090698242,-0.6929941177368164
430,85994616.0,9.367599487304688,-3.27297306060791,0.3148469924926758,0.0745706558227539,-0.054329872131347656,-0.06391716003417969,0.04087066650390625,-0.6547555923461914,-0.2990446090698242,-0.6929941177368164
431,85994640.0,9.312531471252441,-3.1688222885131836,0.2813272476196289,0.0745706558227539,-0.054329872131347656,-0.06391716003417969,0.04087066650390625,-0.6547555923461914,-0.2990446090698242,-0.6929941177368164
432,85994656.0,9.02641487121582,-3.247833251953125,0.3411836624145508,0.0745706558227539,-0.054329872131347656,-0.06391716003417969,0.04087066650390625,-0.6547555923461914,-0.2990446090698242,-0.6929941177368164
433,85994680.0,9.161691665649414,-3.3783206939697266,0.32442378997802734,-0.05113410949707031,-0.0287628173828125,-0.024501800537109375,0.04087066650390625,-0.6547555923461914,-0.2990446090698242,-0.6929941177368164
434,85994696.0,9.38675308227539,-3.3783206939697266,0.3447751998901367,-0.020239830017089844,-0.06817817687988281,-0.014913558959960938,0.04087066650390625,-0.6547555923461914,-0.2990446090698242,-0.6929941177368164
435,85994720.0,9.28380012512207,-3.247833251953125,0.40343475341796875,0.02982807159423828,-0.042611122131347656,-0.0170440673828125,0.04087066650390625,-0.6547555923461914,-0.2990446090698242,-0.6929941177368164
436,85994736.0,9.11739730834961,-3.184385299682617,0.3699150085449219,-0.0021305084228515625,-0.01810932159423828,-0.009587287902832031,0.04087066650390625,-0.6547555923461914,-0.2990446090698242,-0.6929941177368164
437,85994760.0,9.089863777160645,-3.363955497741699,0.36632347106933594,-0.0809621810913086,-0.025567054748535156,-0.004261016845703125,0.04087066650390625,-0.6547555923461914,-0.2990446090698242,-0.6929941177368164
438,85994776.0,9.219154357910156,-3.5303573608398438,0.3938579559326172,-0.07989692687988281,-0.04793834686279297,0.0031957626342773438,0.04087066650390625,-0.6547555923461914,-0.2990446090698242,-0.6929941177368164
439,85994800.0,9.294573783874512,-3.3878984451293945,0.3938579559326172,0.012783050537109375,-0.061786651611328125,-0.00852203369140625,0.04087066650390625,-0.6547555923461914,-0.2990446090698242,-0.6929941177368164
440,85994816.0,9.190423011779785,-3.1999473571777344,0.4812488555908203,0.07989692687988281,-0.03941535949707031,-0.011717796325683594,0.04087066650390625,-0.6547555923461914,-0.2990446090698242,-0.6929941177368164
441,85994832.0,9.106623649597168,-3.2621984481811523,0.37230968475341797,0.01810932159423828,-0.02982807159423828,-0.0021305084228515625,0.04087066650390625,-0.6547555923461914,-0.2990446090698242,-0.6929941177368164
442,85994856.0,9.16648006439209,-3.374730110168457,0.4094209671020508,-0.0287628173828125,-0.04367637634277344,0.0,0.04087066650390625,-0.6547555923461914,-0.2990446090698242,-0.6929941177368164
443,85994880.0,9.113805770874023,-3.3555755615234375,0.41899776458740234,-0.0287628173828125,-0.04367637634277344,0.0,0.04087066650390625,-0.6547555923461914,-0.2990446090698242,-0.6929941177368164
444,85994896.0,9.110215187072754,-3.283747673034668,0.36632347106933594,-0.0287628173828125,-0.04367637634277344,0.0,0.04087066650390625,-0.6547555923461914,-0.2990446090698242,-0.6929941177368164
445,85994912.0,9.191619873046875,-3.183187484741211,0.3519582748413086,-0.0287628173828125,-0.04367637634277344,0.0,0.04087066650390625,-0.6547555923461914,-0.2990446090698242,-0.6929941177368164
446,85994936.0,9.190423011779785,-3.244241714477539,0.31963539123535156,-0.0287628173828125,-0.04367637634277344,0.0,0.04087066650390625,-0.6547555923461914,-0.2990446090698242,-0.6929941177368164
447,85994960.0,9.211971282958984,-3.340012550354004,0.3759002685546875,-0.0287628173828125,-0.04367637634277344,0.0,0.04087066650390625,-0.6547555923461914,-0.2990446090698242,-0.6929941177368164
448,85994976.0,9.23591423034668,-3.2717761993408203,0.3316068649291992,0.0287628173828125,-0.00852203369140625,-0.031958580017089844,0.04087066650390625,-0.6547555923461914,-0.2990446090698242,-0.6929941177368164
449,85994992.0,9.229928970336914,-3.216707229614258,0.3052692413330078,0.019174575805664062,-0.011717796325683594,-0.020239830017089844,0.04087066650390625,-0.6547555923461914,-0.2990446090698242,-0.6929941177368164
450,85995016.0,9.183239936828613,-3.2981128692626953,0.27414417266845703,-0.019174575805664062,-0.0031957626342773438,-0.007456779479980469,0.04087066650390625,-0.6547555923461914,-0.2990446090698242,-0.6929941177368164
451,85995032.0,9.2550687789917,-3.372335433959961,0.3076639175415039,-0.010652542114257812,-0.023435592651367188,-0.009587287902832031,0.04087066650390625,-0.6547555923461914,-0.2990446090698242,-0.6929941177368164
452,85995056.0,9.28499698638916,-3.216707229614258,0.3830833435058594,0.05965614318847656,-0.030893325805664062,-0.023435592651367188,0.04087066650390625,-0.6547555923461914,-0.2990446090698242,-0.6929941177368164
453,85995072.0,9.33407974243164,-3.0431222915649414,0.27414417266845703,0.0916147232055664,-0.026632308959960938,-0.024501800537109375,0.04087066650390625,-0.6547555923461914,-0.2990446090698242,-0.6929941177368164
454,85995096.0,9.423864364624023,-3.069459915161133,0.3124523162841797,0.009587287902832031,-0.03835010528564453,-0.01597881317138672,0.04087066650390625,-0.6547555923461914,-0.2990446090698242,-0.6929941177368164
455,85995112.0,9.398724555969238,-3.2394533157348633,0.23822975158691406,-0.05859088897705078,-0.040480613708496094,-0.025567054748535156,0.04087066650390625,-0.6547555923461914,-0.2990446090698242,-0.6929941177368164
456,85995136.0,9.251477241516113,-3.2574100494384766,0.3148469924926758,0.0063915252685546875,-0.042611122131347656,-0.03621959686279297,0.04087066650390625,-0.6547555923461914,-0.2990446090698242,-0.6929941177368164
457,85995152.0,9.138946533203125,-3.061079978942871,0.28731250762939453,0.1384878158569336,-0.04687213897705078,-0.05965614318847656,0.04087066650390625,-0.6547555923461914,-0.2990446090698242,-0.6929941177368164
458,85995176.0,9.089863777160645,-2.8934803009033203,0.2944955825805664,0.1384878158569336,-0.04687213897705078,-0.05965614318847656,0.04087066650390625,-0.6547555923461914,-0.2990446090698242,-0.6929941177368164
459,85995192.0,9.098243713378906,-3.03354549407959,0.40343475341796875,0.1384878158569336,-0.04687213897705078,-0.05965614318847656,0.04087066650390625,-0.6547555923461914,-0.2990446090698242,-0.6929941177368164
460,85995216.0,9.077892303466797,-3.1939620971679688,0.36153507232666016,0.1384878158569336,-0.04687213897705078,-0.05965614318847656,0.04087066650390625,-0.6547555923461914,-0.2990446090698242,-0.6929941177368164
461,85995232.0,9.191619873046875,-3.120936393737793,0.31963539123535156,0.1384878158569336,-0.04687213897705078,-0.05965614318847656,0.04087066650390625,-0.6547555923461914,-0.2990446090698242,-0.6929941177368164
462,85995352.0,9.21675968170166,-3.34360408782959,0.3759002685546875,-0.022370338439941406,-0.0031957626342773438,-0.057525634765625,0.07643318176269531,-0.6510009765625,-0.29874229431152344,-0.693598747253418
463,85995376.0,9.274222373962402,-3.430994987487793,0.37949180603027344,-0.022370338439941406,-0.0031957626342773438,-0.057525634765625,0.07643318176269531,-0.6510009765625,-0.29874229431152344,-0.693598747253418
464,85995392.0,9.360416412353516,-3.2298765182495117,0.3914632797241211,-0.022370338439941406,-0.0031957626342773438,-0.057525634765625,0.07643318176269531,-0.6510009765625,-0.29874229431152344,-0.693598747253418
465,85995416.0,9.343656539916992,-3.1149511337280273,0.3699150085449219,-0.022370338439941406,-0.0031957626342773438,-0.057525634765625,0.07643318176269531,-0.6510009765625,-0.29874229431152344,-0.693598747253418
466,85995432.0,9.19640827178955,-3.2502269744873047,0.3423805236816406,-0.022370338439941406,-0.0031957626342773438,-0.057525634765625,0.07643318176269531,-0.6510009765625,-0.29874229431152344,-0.693598747253418
467,85995456.0,9.188028335571289,-3.3184642791748047,0.3148469924926758,-0.022370338439941406,-0.0031957626342773438,-0.057525634765625,0.07643318176269531,-0.6510009765625,-0.29874229431152344,-0.693598747253418
468,85995456.0,9.188028335571289,-3.3184642791748047,0.3148469924926758,-0.022370338439941406,-0.0031957626342773438,-0.057525634765625,0.07643318176269531,-0.6510009765625,-0.29874229431152344,-0.693598747253418
469,85995472.0,9.299362182617188,-3.184385299682617,0.29569244384765625,0.031958580017089844,-0.009587287902832031,0.026632308959960938,0.07643318176269531,-0.6510009765625,-0.29874229431152344,-0.693598747253418
470,85995472.0,9.299362182617188,-3.184385299682617,0.29569244384765625,0.031958580017089844,-0.009587287902832031,0.026632308959960938,0.07643318176269531,-0.6510009765625,-0.29874229431152344,-0.693598747253418
471,85995496.0,9.347248077392578,-3.0718536376953125,0.3208322525024414,0.0862884521484375,-0.019174575805664062,0.031958580017089844,0.07643318176269531,-0.6510009765625,-0.29874229431152344,-0.693598747253418
472,85995496.0,9.347248077392578,-3.0718536376953125,0.3208322525024414,0.0862884521484375,-0.019174575805664062,0.031958580017089844,0.07643318176269531,-0.6510009765625,-0.29874229431152344,-0.693598747253418
473,85995512.0,9.275420188903809,-3.039531707763672,0.2837209701538086,0.07776641845703125,-0.0031957626342773438,0.02982807159423828,0.07643318176269531,-0.6510009765625,-0.29874229431152344,-0.693598747253418
474,85995512.0,9.275420188903809,-3.039531707763672,0.2837209701538086,0.07776641845703125,-0.0031957626342773438,0.02982807159423828,0.07643318176269531,-0.6510009765625,-0.29874229431152344,-0.693598747253418
475,85995536.0,9.23711109161377,-2.9856605529785156,0.2705526351928711,0.04474163055419922,0.0,0.026632308959960938,0.07643318176269531,-0.6510009765625,-0.29874229431152344,-0.693598747253418
476,85995536.0,9.23711109161377,-2.9856605529785156,0.2705526351928711,0.04474163055419922,0.0,0.026632308959960938,0.07643318176269531,-0.6510009765625,-0.29874229431152344,-0.693598747253418
477,85995656.0,9.294573783874512,-2.998828887939453,0.22027301788330078,-0.00852203369140625,-0.0021305084228515625,0.021305084228515625,0.07643318176269531,-0.6510009765625,-0.29874229431152344,-0.693598747253418
478,85995672.0,9.23591423034668,-3.007208824157715,0.21668148040771484,-0.014913558959960938,-0.0010652542114257812,0.024501800537109375,0.07643318176269531,-0.6510009765625,-0.29874229431152344,-0.693598747253418
479,85995696.0,9.113805770874023,-3.131711006164551,0.31125545501708984,-0.040480613708496094,0.0031957626342773438,0.030893325805664062,0.07643318176269531,-0.6510009765625,-0.29874229431152344,-0.693598747253418
480,85995712.0,9.136551856994629,-3.1448793411254883,0.27414417266845703,0.0,-0.005326271057128906,0.01810932159423828,0.07643318176269531,-0.6510009765625,-0.29874229431152344,-0.693598747253418
481,85995736.0,9.23711109161377,-3.0239686965942383,0.3076639175415039,0.045806884765625,-0.025567054748535156,0.014913558959960938,0.07643318176269531,-0.6510009765625,-0.29874229431152344,-0.693598747253418
482,85995752.0,9.30654525756836,-3.002420425415039,0.25618648529052734,0.033023834228515625,-0.021305084228515625,0.021305084228515625,0.07643318176269531,-0.6510009765625,-0.29874229431152344,-0.693598747253418
483,85995776.0,9.289785385131836,-3.058685302734375,0.29569244384765625,0.033023834228515625,-0.021305084228515625,0.021305084228515625,0.07643318176269531,-0.6510009765625,-0.29874229431152344,-0.693598747253418
484,85995792.0,9.246688842773438,-3.1257247924804688,0.3340005874633789,0.033023834228515625,-0.021305084228515625,0.021305084228515625,0.07643318176269531,-0.6510009765625,-0.29874229431152344,-0.693598747253418
485,85995808.0,9.244294166564941,-3.146076202392578,0.33280372619628906,0.033023834228515625,-0.021305084228515625,0.021305084228515625,0.07643318176269531,-0.6510009765625,-0.29874229431152344,-0.693598747253418
486,85995832.0,9.378373146057129,-3.0155887603759766,0.33519840240478516,0.033023834228515625,-0.021305084228515625,0.021305084228515625,0.07643318176269531,-0.6510009765625,-0.29874229431152344,-0.693598747253418
487,85995856.0,9.324501991271973,-3.0778398513793945,0.35315513610839844,0.033023834228515625,-0.021305084228515625,0.021305084228515625,0.07643318176269531,-0.6510009765625,-0.29874229431152344,-0.693598747253418
488,85995872.0,9.210774421691895,-3.2574100494384766,0.3387889862060547,-0.04687213897705078,0.026632308959960938,-0.012783050537109375,0.07643318176269531,-0.6510009765625,-0.29874229431152344,-0.693598747253418
489,85995888.0,9.221549034118652,-3.27297306060791,0.3387889862060547,-0.01810932159423828,0.01597881317138672,-0.014913558959960938,0.07643318176269531,-0.6510009765625,-0.29874229431152344,-0.693598747253418
490,85995912.0,9.26584243774414,-3.2238903045654297,0.33519840240478516,0.031958580017089844,0.0031957626342773438,-0.009587287902832031,0.07643318176269531,-0.6510009765625,-0.29874229431152344,-0.693598747253418
491,85995928.0,9.253870964050293,-3.1700191497802734,0.39266014099121094,0.02982807159423828,0.00852203369140625,-0.0063915252685546875,0.07643318176269531,-0.6510009765625,-0.29874229431152344,-0.693598747253418
492,85995952.0,9.21675968170166,-3.15325927734375,0.3435783386230469,0.0031957626342773438,0.013848304748535156,0.005326271057128906,0.07643318176269531,-0.6510009765625,-0.29874229431152344,-0.693598747253418
493,85995968.0,9.199999809265137,-3.2538185119628906,0.2897071838378906,-0.01810932159423828,0.014913558959960938,0.00852203369140625,0.07643318176269531,-0.6510009765625,-0.29874229431152344,-0.693598747253418
494,85995992.0,9.170071601867676,-3.247833251953125,0.3232269287109375,0.0063915252685546875,0.024501800537109375,0.010652542114257812,0.07643318176269531,-0.6510009765625,-0.29874229431152344,-0.693598747253418
495,85996008.0,9.244294166564941,-3.117344856262207,0.28491783142089844,0.04367637634277344,0.012783050537109375,0.01597881317138672,0.07643318176269531,-0.6510009765625,-0.29874229431152344,-0.693598747253418
496,85996032.0,9.259857177734375,-3.128119468688965,0.2837209701538086,0.01597881317138672,0.012783050537109375,0.019174575805664062,0.07643318176269531,-0.6510009765625,-0.29874229431152344,-0.693598747253418
497,85996056.0,9.210774421691895,-3.1999473571777344,0.2729473114013672,-0.0170440673828125,0.020239830017089844,0.01597881317138672,0.07643318176269531,-0.6510009765625,-0.29874229431152344,-0.693598747253418
498,85996072.0,9.23591423034668,-3.1592445373535156,0.26935577392578125,-0.0170440673828125,0.020239830017089844,0.01597881317138672,0.07643318176269531,-0.6510009765625,-0.29874229431152344,-0.693598747253418
499,85996096.0,9.279010772705078,-3.1388940811157227,0.2106952667236328,-0.0170440673828125,0.020239830017089844,0.01597881317138672,0.07643318176269531,-0.6510009765625,-0.29874229431152344,-0.693598747253418
500,85996112.0,9.244294166564941,-3.160442352294922,0.2573843002319336,-0.0170440673828125,0.020239830017089844,0.01597881317138672,0.07643318176269531,-0.6510009765625,-0.29874229431152344,-0.693598747253418
501,85996128.0,9.192817687988281,-3.1125564575195312,0.2837209701538086,-0.0170440673828125,0.020239830017089844,0.01597881317138672,0.07643318176269531,-0.6510009765625,-0.29874229431152344,-0.693598747253418
502,85996152.0,9.192817687988281,-3.1592445373535156,0.25858116149902344,-0.0170440673828125,0.020239830017089844,0.01597881317138672,0.07643318176269531,-0.6510009765625,-0.29874229431152344,-0.693598747253418
503,85996168.0,9.271828651428223,-3.1436824798583984,0.2861156463623047,0.0,-0.01810932159423828,0.026632308959960938,0.07643318176269531,-0.6510009765625,-0.29874229431152344,-0.693598747253418
504,85996192.0,9.261054039001465,-3.0191802978515625,0.33519840240478516,0.0170440673828125,-0.010652542114257812,0.033023834228515625,0.07643318176269531,-0.6510009765625,-0.29874229431152344,-0.693598747253418
505,85996208.0,9.194014549255371,-3.055093765258789,0.3435783386230469,-0.026632308959960938,0.0031957626342773438,0.03728485107421875,0.07643318176269531,-0.6510009765625,-0.29874229431152344,-0.693598747253418
506,85996232.0,9.129368782043457,-3.1915674209594727,0.3411836624145508,-0.06604766845703125,0.0031957626342773438,0.0287628173828125,0.07643318176269531,-0.6510009765625,-0.29874229431152344,-0.693598747253418
507,85996256.0,9.232322692871094,-3.15325927734375,0.33519840240478516,-0.019174575805664062,-0.012783050537109375,0.01810932159423828,0.07643318176269531,-0.6510009765625,-0.29874229431152344,-0.693598747253418
508,85996256.0,9.232322692871094,-3.15325927734375,0.33519840240478516,-0.019174575805664062,-0.012783050537109375,0.01810932159423828,0.07643318176269531,-0.6510009765625,-0.29874229431152344,-0.693598747253418
509,85996272.0,9.312531471252441,-3.0670652389526367,0.31364917755126953,-0.019174575805664062,-0.012783050537109375,0.01810932159423828,0.07643318176269531,-0.6510009765625,-0.29874229431152344,-0.693598747253418
510,85996272.0,9.312531471252441,-3.0670652389526367,0.31364917755126953,-0.019174575805664062,-0.012783050537109375,0.01810932159423828,0.07643318176269531,-0.6510009765625,-0.29874229431152344,-0.693598747253418
511,85996288.0,9.239505767822266,-3.059882164001465,0.3567466735839844,-0.019174575805664062,-0.012783050537109375,0.01810932159423828,0.07643318176269531,-0.6510009765625,-0.29874229431152344,-0.693598747253418
512,85996288.0,9.239505767822266,-3.059882164001465,0.3567466735839844,-0.019174575805664062,-0.012783050537109375,0.01810932159423828,0.07643318176269531,-0.6510009765625,-0.29874229431152344,-0.693598747253418
513,85996312.0,9.165283203125,-3.120936393737793,0.3759002685546875,-0.019174575805664062,-0.012783050537109375,0.01810932159423828,0.07643318176269531,-0.6510009765625,-0.29874229431152344,-0.693598747253418
514,85996312.0,9.165283203125,-3.120936393737793,0.3759002685546875,-0.019174575805664062,-0.012783050537109375,0.01810932159423828,0.07643318176269531,-0.6510009765625,-0.29874229431152344,-0.693598747253418
515,85996328.0,9.232322692871094,-3.1951589584350586,0.3184385299682617,-0.019174575805664062,-0.012783050537109375,0.01810932159423828,0.07643318176269531,-0.6510009765625,-0.29874229431152344,-0.693598747253418
516,85996328.0,9.232322692871094,-3.1951589584350586,0.3184385299682617,-0.019174575805664062,-0.012783050537109375,0.01810932159423828,0.07643318176269531,-0.6510009765625,-0.29874229431152344,-0.693598747253418
517,85996448.0,9.245491027832031,-3.1125564575195312,0.33519840240478516,0.013848304748535156,-0.013848304748535156,-0.0031957626342773438,0.07643318176269531,-0.6510009765625,-0.29874229431152344,-0.693598747253418
518,85996472.0,9.153311729431152,-3.2071304321289062,0.2861156463623047,0.013848304748535156,-0.013848304748535156,-0.0031957626342773438,0.07474994659423828,-0.6492748260498047,-0.30573463439941406,-0.6923465728759766
519,85996488.0,9.2550687789917,-3.1688222885131836,0.32202911376953125,0.013848304748535156,-0.013848304748535156,-0.0031957626342773438,0.07453441619873047,-0.649317741394043,-0.30551815032958984,-0.6924762725830078
520,85996512.0,9.28619384765625,-3.208327293395996,0.3567466735839844,0.013848304748535156,-0.013848304748535156,-0.0031957626342773438,0.0744476318359375,-0.6492748260498047,-0.305389404296875,-0.6925630569458008
521,85996528.0,9.240702629089355,-3.244241714477539,0.2597780227661133,0.013848304748535156,-0.013848304748535156,-0.0031957626342773438,0.0744476318359375,-0.649317741394043,-0.30525970458984375,-0.6925630569458008
522,85996552.0,9.262250900268555,-3.1412878036499023,0.32681846618652344,0.013848304748535156,-0.013848304748535156,-0.0031957626342773438,0.07466316223144531,-0.649317741394043,-0.3053455352783203,-0.6925191879272461
523,85996552.0,9.262250900268555,-3.1412878036499023,0.32681846618652344,0.013848304748535156,-0.013848304748535156,-0.0031957626342773438,0.07466316223144531,-0.649317741394043,-0.3053455352783203,-0.6925191879272461
524,85996568.0,9.219154357910156,-3.1736106872558594,0.3256206512451172,-0.014913558959960938,0.0063915252685546875,0.0,0.07466316223144531,-0.649317741394043,-0.3053455352783203,-0.6925191879272461
525,85996568.0,9.219154357910156,-3.1736106872558594,0.3256206512451172,-0.014913558959960938,0.0063915252685546875,0.0,0.07466316223144531,-0.649317741394043,-0.3053455352783203,-0.6925191879272461
526,85996592.0,9.174860000610352,-3.295718193054199,0.3160438537597656,-0.045806884765625,0.005326271057128906,0.0031957626342773438,0.07466316223144531,-0.649317741394043,-0.3053455352783203,-0.6925191879272461
527,85996592.0,9.174860000610352,-3.295718193054199,0.3160438537597656,-0.045806884765625,0.005326271057128906,0.0031957626342773438,0.07466316223144531,-0.649317741394043,-0.3053455352783203,-0.6925191879272461
528,85996608.0,9.250279426574707,-3.189173698425293,0.30407238006591797,-0.010652542114257812,-0.005326271057128906,0.010652542114257812,0.07466316223144531,-0.649317741394043,-0.3053455352783203,-0.6925191879272461
529,85996608.0,9.250279426574707,-3.189173698425293,0.30407238006591797,-0.010652542114257812,-0.005326271057128906,0.010652542114257812,0.07466316223144531,-0.649317741394043,-0.3053455352783203,-0.6925191879272461
530,85996632.0,9.203591346740723,-3.1341047286987305,0.3292121887207031,0.012783050537109375,-0.0010652542114257812,0.010652542114257812,0.07466316223144531,-0.649317741394043,-0.3053455352783203,-0.6925191879272461
531,85996632.0,9.203591346740723,-3.1341047286987305,0.3292121887207031,0.012783050537109375,-0.0010652542114257812,0.010652542114257812,0.07466316223144531,-0.649317741394043,-0.3053455352783203,-0.6925191879272461
532,85996752.0,9.226337432861328,-3.149667739868164,0.2525959014892578,-0.02982807159423828,0.0010652542114257812,0.012783050537109375,0.07466316223144531,-0.649317741394043,-0.3053455352783203,-0.6925191879272461
533,85996768.0,9.221549034118652,-3.1125564575195312,0.3160438537597656,-0.02982807159423828,0.0010652542114257812,0.012783050537109375,0.07466316223144531,-0.649317741394043,-0.3053455352783203,-0.6925191879272461
534,85996784.0,9.249082565307617,-3.164033889770508,0.2861156463623047,-0.02982807159423828,0.0010652542114257812,0.012783050537109375,0.07466316223144531,-0.649317741394043,-0.3053455352783203,-0.6925191879272461
535,85996808.0,9.21556282043457,-3.149667739868164,0.30646705627441406,-0.02982807159423828,0.0010652542114257812,0.012783050537109375,0.07466316223144531,-0.649317741394043,-0.3053455352783203,-0.6925191879272461
536,85996832.0,9.202394485473633,-3.0850229263305664,0.2968893051147461,-0.02982807159423828,0.0010652542114257812,0.012783050537109375,0.07466316223144531,-0.649317741394043,-0.3053455352783203,-0.6925191879272461
537,85996848.0,9.219154357910156,-3.1388940811157227,0.30886077880859375,-0.02982807159423828,0.0010652542114257812,0.012783050537109375,0.07466316223144531,-0.649317741394043,-0.3053455352783203,-0.6925191879272461
538,85996872.0,9.246688842773438,-3.1915674209594727,0.28252410888671875,-0.03515434265136719,0.0,-0.0063915252685546875,0.07466316223144531,-0.649317741394043,-0.3053455352783203,-0.6925191879272461
539,85996888.0,9.2550687789917,-3.1101627349853516,0.28491783142089844,-0.0021305084228515625,-0.0021305084228515625,-0.0063915252685546875,0.07466316223144531,-0.649317741394043,-0.3053455352783203,-0.6925191879272461
540,85996912.0,9.217957496643066,-3.095796585083008,0.268157958984375,-0.012783050537109375,-0.0021305084228515625,-0.011717796325683594,0.07466316223144531,-0.649317741394043,-0.3053455352783203,-0.6925191879272461
541,85996928.0,9.280208587646484,-3.1664276123046875,0.22386455535888672,-0.042611122131347656,-0.014913558959960938,-0.005326271057128906,0.07466316223144531,-0.649317741394043,-0.3053455352783203,-0.6925191879272461
542,85996944.0,9.45499038696289,-3.2717761993408203,0.34836673736572266,-0.04687213897705078,-0.024501800537109375,0.0,0.07466316223144531,-0.649317741394043,-0.3053455352783203,-0.6925191879272461
543,85996968.0,9.846454620361328,-3.615354537963867,0.6033563613891602,-0.03941535949707031,-0.052199363708496094,0.012783050537109375,0.07466316223144531,-0.649317741394043,-0.3053455352783203,-0.6925191879272461
544,85996984.0,9.987716674804688,-3.7195053100585938,0.4130115509033203,-0.020239830017089844,-0.09694194793701172,0.05006885528564453,0.07466316223144531,-0.649317741394043,-0.3053455352783203,-0.6925191879272461
545,85997008.0,10.362420082092285,-4.2725830078125,0.36871814727783203,-0.02769756317138672,-0.13422679901123047,0.11185550689697266,0.07466316223144531,-0.649317741394043,-0.3053455352783203,-0.6925191879272461
546,85997024.0,11.188445091247559,-5.506831169128418,0.2729473114013672,-0.03941535949707031,-0.2780418395996094,0.21732044219970703,0.07466316223144531,-0.649317741394043,-0.3053455352783203,-0.6925191879272461
547,85997048.0,11.71638298034668,-6.63333797454834,-0.34836673736572266,0.31426239013671875,-0.4080085754394531,0.3238496780395508,0.07466316223144531,-0.649317741394043,-0.3053455352783203,-0.6925191879272461
548,85997072.0,12.047989845275879,-7.562315940856934,-0.10295295715332031,0.678593635559082,-0.6626138687133789,0.5901737213134766,0.07466316223144531,-0.649317741394043,-0.3053455352783203,-0.6925191879272461
549,85997088.0,12.609447479248047,-9.004866600036621,-0.25858116149902344,0.9672889709472656,-1.1675653457641602,0.8905878067016602,0.07466316223144531,-0.649317741394043,-0.3053455352783203,-0.6925191879272461
550,85997104.0,13.622225761413574,-11.341678619384766,1.7358484268188477,1.3710365295410156,-1.6629276275634766,1.3412084579467773,0.07466316223144531,-0.649317741394043,-0.3053455352783203,-0.6925191879272461
551,85997128.0,15.22878360748291,-13.982563972473145,2.226675033569336,1.5500068664550781,-2.176401138305664,2.005953788757324,0.07466316223144531,-0.649317741394043,-0.3053455352783203,-0.6925191879272461
552,85997152.0,17.44348907470703,-15.218009948730469,-1.207911491394043,1.1601076126098633,-2.734617233276367,2.873105049133301,0.07466316223144531,-0.649317741394043,-0.3053455352783203,-0.6925191879272461
553,85997152.0,17.44348907470703,-15.218009948730469,-1.207911491394043,1.1601076126098633,-2.734617233276367,2.873105049133301,0.07466316223144531,-0.649317741394043,-0.3053455352783203,-0.6925191879272461
554,85997168.0,19.818607330322266,-17.771503448486328,-3.700350761413574,1.1601076126098633,-2.734617233276367,2.873105049133301,0.07466316223144531,-0.649317741394043,-0.3053455352783203,-0.6925191879272461
555,85997168.0,19.818607330322266,-17.771503448486328,-3.700350761413574,1.1601076126098633,-2.734617233276367,2.873105049133301,0.07466316223144531,-0.649317741394043,-0.3053455352783203,-0.6925191879272461
556,85997184.0,20.848146438598633,-26.617151260375977,-4.109771728515625,1.1601076126098633,-2.734617233276367,2.873105049133301,0.07466316223144531,-0.649317741394043,-0.3053455352783203,-0.6925191879272461
557,85997184.0,20.848146438598633,-26.617151260375977,-4.109771728515625,1.1601076126098633,-2.734617233276367,2.873105049133301,0.07466316223144531,-0.649317741394043,-0.3053455352783203,-0.6925191879272461
558,85997208.0,19.737201690673828,-31.25965118408203,-7.922654151916504,1.1601076126098633,-2.734617233276367,2.873105049133301,0.07466316223144531,-0.649317741394043,-0.3053455352783203,-0.6925191879272461
559,85997208.0,19.737201690673828,-31.25965118408203,-7.922654151916504,1.1601076126098633,-2.734617233276367,2.873105049133301,0.07466316223144531,-0.649317741394043,-0.3053455352783203,-0.6925191879272461
560,85997224.0,19.48580551147461,-29.2879638671875,-11.819336891174316,1.1601076126098633,-2.734617233276367,2.873105049133301,0.07466316223144531,-0.649317741394043,-0.3053455352783203,-0.6925191879272461
561,85997224.0,19.48580551147461,-29.2879638671875,-11.819336891174316,1.1601076126098633,-2.734617233276367,2.873105049133301,0.07466316223144531,-0.649317741394043,-0.3053455352783203,-0.6925191879272461
562,85997448.0,5.915055274963379,13.330123901367188,-8.609811782836914,8.772719383239746,-1.715127944946289,13.085041999816895,-0.5302009582519531,0.3659391403198242,-0.7621335983276367,0.06452083587646484
563,85997464.0,5.649291038513184,7.0080413818359375,-5.116564750671387,-1.7641315460205078,-0.43464088439941406,4.2622528076171875,-0.5302009582519531,0.3659391403198242,-0.7621335983276367,0.06452083587646484
564,85997488.0,8.407495498657227,14.363253593444824,-1.6017694473266602,-0.31958866119384766,-2.2104902267456055,1.4562606811523438,-0.5302009582519531,0.3659391403198242,-0.7621335983276367,0.06452083587646484
