,timestamp,accel_x,accel_y,accel_z,gyro_x,gyro_y,gyro_z,ori_scalar,ori_x,ori_y,ori_z
0,84473848.0,9.183239937,-2.554690361,1.569446564,0.152337074,-0.104398727,0.265258789,-0.4099617,0.428519249,0.628773689,0.502923965
1,84473872.0,9.210774422,-2.467299461,1.613740921,0.152337074,-0.104398727,0.265258789,-0.4099617,0.428519249,0.628773689,0.502923965
2,84473888.0,9.148523331,-2.403851509,1.511983871,0.152337074,-0.104398727,0.265258789,-0.4099617,0.428519249,0.628773689,0.502923965
3,84473888.0,9.148523331,-2.403851509,1.511983871,0.152337074,-0.104398727,0.265258789,-0.4099617,0.428519249,0.628773689,0.502923965
4,84473912.0,9.056344032,-2.442159653,1.454521179,0.152337074,-0.104398727,0.265258789,-0.4099617,0.428519249,0.628773689,0.502923965
5,84473912.0,9.056344032,-2.442159653,1.454521179,0.152337074,-0.104398727,0.265258789,-0.4099617,0.428519249,0.628773689,0.502923965
6,84473928.0,9.142537117,-2.505607605,1.702328682,0.152337074,-0.104398727,0.265258789,-0.4099617,0.428519249,0.628773689,0.502923965
7,84473928.0,9.142537117,-2.505607605,1.702328682,0.152337074,-0.104398727,0.265258789,-0.4099617,0.428519249,0.628773689,0.502923965
8,84473952.0,9.176057816,-2.42539978,1.563461304,0.152337074,-0.104398727,0.265258789,-0.4099617,0.428519249,0.628773689,0.502923965
9,84473968.0,9.058737755,-2.38469696,1.47606945,0.192818642,-0.096941948,0.236495018,-0.4099617,0.428519249,0.628773689,0.502923965
10,84473992.0,8.98451519,-2.292517662,1.596981049,0.141683578,-0.101202965,0.218385696,-0.4099617,0.428519249,0.628773689,0.502923965
11,84474008.0,9.120988846,-2.589407921,1.590994835,0.039415359,-0.141683578,0.162989616,-0.4099617,0.428519249,0.628773689,0.502923965
12,84474152.0,9.328093529,-2.475679398,1.59817791,0.7797966,-0.334503174,-0.086288452,-0.420146942,0.420707703,0.631406784,0.49774456
13,84474168.0,9.225139618,-2.490045547,1.213896751,0.789384842,-0.340894699,-0.036219597,-0.420146942,0.420707703,0.631406784,0.49774456
14,84474192.0,9.257462502,-2.087806702,1.237839699,0.673267365,-0.367527008,-0.018109322,-0.420146942,0.420707703,0.631406784,0.49774456
15,84474208.0,9.368796349,-2.328432083,1.313259125,0.430379868,-0.362200737,-0.054329872,-0.420146942,0.420707703,0.631406784,0.49774456
16,84474224.0,9.198802948,-3.306492805,0.91461277,0.1587286,-0.411204338,0.076701164,-0.420146942,0.420707703,0.631406784,0.49774456
17,84474352.0,9.134157181,-2.130904198,1.399453163,0.110790253,-0.305739403,0.221581459,-0.468182564,0.368442535,0.646382332,0.476640701
18,84474368.0,9.439427376,-2.45173645,1.526350021,-0.30254364,-0.273780823,0.206666946,-0.468182564,0.368442535,0.646382332,0.476640701
19,84474392.0,9.480130196,-2.899466515,1.186362267,-0.46553421,-0.216255188,0.218385696,-0.468182564,0.368442535,0.646382332,0.476640701
20,84474408.0,9.168874741,-2.515185356,1.370721817,-0.430379868,-0.047938347,0.200275421,-0.468182564,0.368442535,0.646382332,0.476640701
21,84474432.0,9.150917053,-2.44575119,1.446141243,-0.445293427,0.02023983,0.161924362,-0.468182564,0.368442535,0.646382332,0.476640701
22,84474448.0,9.238308907,-2.935379982,1.25340271,-0.445293427,0.02023983,0.161924362,-0.458126068,0.368572235,0.635290146,0.50067997
23,84474472.0,9.100637436,-3.172413826,1.255796432,-0.445293427,0.02023983,0.161924362,-0.454113007,0.371636391,0.63248539,0.505556107
24,84474488.0,9.063526154,-3.318464279,1.46409893,-0.445293427,0.02023983,0.161924362,-0.450659752,0.374441147,0.63037014,0.509267807
25,84474512.0,9.184437752,-3.037137032,1.119322777,-0.445293427,0.02023983,0.161924362,-0.447725296,0.377031326,0.628816605,0.511857986
26,84474528.0,9.083877563,-2.837215424,0.908626556,-0.445293427,0.02023983,0.161924362,-0.44466114,0.379878998,0.627522469,0.513972282
27,84474648.0,9.058737755,-3.126922607,0.604554176,-0.300413132,0.205601692,-0.087353706,-0.429469109,0.395588875,0.620875359,0.523036003
28,84474672.0,8.970149994,-3.166427612,0.629693985,-0.220516205,0.176838875,-0.122509003,-0.429469109,0.395588875,0.620875359,0.523036003
29,84474688.0,9.008458138,-3.028757095,0.720676422,-0.113986015,0.155532837,-0.154467583,-0.429469109,0.395588875,0.620875359,0.523036003
30,84474704.0,9.147326469,-2.952139854,0.883486748,-0.038350105,0.11931324,-0.184295654,-0.429469109,0.395588875,0.620875359,0.523036003
31,84474728.0,9.192817688,-2.988054276,0.592582703,-0.073505402,0.109724998,-0.205601692,-0.429469109,0.395588875,0.620875359,0.523036003
32,84474848.0,9.463370323,-3.039531708,1.191151619,-0.073505402,0.109724998,-0.205601692,-0.426879883,0.418592453,0.611769676,0.517943382
33,84474864.0,9.584280968,-2.976082802,1.104957581,-0.073505402,0.109724998,-0.205601692,-0.426879883,0.418592453,0.611769676,0.517943382
34,84474888.0,9.488510132,-3.304099083,0.877501488,-0.073505402,0.109724998,-0.205601692,-0.426879883,0.418592453,0.611769676,0.517943382
35,84474912.0,9.402316093,-3.501626015,1.000806808,-0.073505402,0.109724998,-0.205601692,-0.426879883,0.418592453,0.611769676,0.517943382
36,84474928.0,9.344853401,-3.229876518,1.201925278,-0.073505402,0.109724998,-0.205601692,-0.426879883,0.418592453,0.611769676,0.517943382
37,84475048.0,9.508861542,-2.643279076,1.041508675,0.040480614,-0.044741631,0.100137711,-0.427958488,0.417427063,0.610086441,0.519971848
38,84475064.0,9.313728333,-2.680390358,1.086999893,-0.023435593,0.02023983,0.103333473,-0.427958488,0.417427063,0.610086441,0.519971848
39,84475088.0,9.24189949,-2.901860237,1.100169182,-0.095876694,0.017044067,0.11931324,-0.427958488,0.417427063,0.610086441,0.519971848
40,84475104.0,9.306545258,-2.794117928,1.098971367,-0.043676376,0.015978813,0.123574257,-0.427958488,0.417427063,0.610086441,0.519971848
41,84475128.0,9.164086342,-2.668418884,1.090591431,0.037284851,0.029828072,0.117181778,-0.427958488,0.417427063,0.610086441,0.519971848
42,84475248.0,9.20957756,-2.990448952,1.055874825,0.037284851,0.029828072,0.117181778,-0.422175407,0.415096283,0.612848282,0.523337364
43,84475264.0,9.439427376,-3.043122292,1.054677963,0.037284851,0.029828072,0.117181778,-0.422175407,0.415096283,0.612848282,0.523337364
44,84475288.0,9.474144936,-2.87193203,0.978060722,0.037284851,0.029828072,0.117181778,-0.422175407,0.415096283,0.612848282,0.523337364
45,84475304.0,9.205986023,-2.885100365,1.069043159,0.037284851,0.029828072,0.117181778,-0.422175407,0.415096283,0.612848282,0.523337364
46,84475328.0,9.119791985,-3.029953957,1.148054123,0.037284851,0.029828072,0.117181778,-0.422175407,0.415096283,0.612848282,0.523337364
47,84475344.0,9.174860001,-2.970097542,1.154040337,0.037284851,0.029828072,0.117181778,-0.422175407,0.415096283,0.612848282,0.523337364
48,84475440.0,9.258659363,-2.734261513,1.065451622,0.050068855,0.0,-0.025567055,-0.421182632,0.416650772,0.612330437,0.523553848
49,84475456.0,9.174860001,-2.75820446,0.982849121,0.013848305,0.015978813,-0.051134109,-0.421312332,0.417124748,0.612200737,0.523164749
50,84475472.0,9.104228973,-2.944957733,0.972075462,-0.026632309,0.03195858,-0.060721397,-0.421312332,0.417729378,0.611942291,0.522992134
51,84475496.0,9.226337433,-3.006011009,0.957709312,-0.015978813,0.019174576,-0.070308685,-0.421527863,0.418247223,0.611682892,0.522690773
52,84475520.0,9.318516731,-2.984462738,0.96130085,0.030893326,0.008522034,-0.074570656,-0.421959877,0.418462753,0.611725807,0.522172928
53,84475536.0,9.273025513,-2.869537354,0.877501488,0.067112923,0.014913559,-0.062851906,-0.422390938,0.418549538,0.611898422,0.521482468
54,84475664.0,9.380767822,-2.818060875,0.913414955,0.06391716,0.008522034,-0.047938347,-0.422390938,0.418549538,0.611898422,0.521482468
55,84475664.0,9.380767822,-2.818060875,0.913414955,0.06391716,0.008522034,-0.047938347,-0.422390938,0.418549538,0.611898422,0.521482468
56,84475688.0,9.531606674,-2.80489254,0.96130085,-0.034089088,-0.040480614,0.007456779,-0.422390938,0.418549538,0.611898422,0.521482468
57,84475688.0,9.531606674,-2.80489254,0.96130085,-0.034089088,-0.040480614,0.007456779,-0.422390938,0.418549538,0.611898422,0.521482468
58,84475704.0,9.398724556,-2.837215424,1.082211494,-0.067112923,-0.013848305,0.003195763,-0.422390938,0.418549538,0.611898422,0.521482468
59,84475704.0,9.398724556,-2.837215424,1.082211494,-0.067112923,-0.013848305,0.003195763,-0.422390938,0.418549538,0.611898422,0.521482468
60,84475728.0,9.247885704,-2.858763695,1.119322777,-0.093745232,0.003195763,-0.006391525,-0.422390938,0.418549538,0.611898422,0.521482468
61,84475728.0,9.247885704,-2.858763695,1.119322777,-0.093745232,0.003195763,-0.006391525,-0.422390938,0.418549538,0.611898422,0.521482468
62,84475744.0,9.28260231,-2.978477478,1.083408356,-0.095876694,-0.013848305,0.007456779,-0.422390938,0.418549538,0.611898422,0.521482468
63,84475744.0,9.28260231,-2.978477478,1.083408356,-0.095876694,-0.013848305,0.007456779,-0.422390938,0.418549538,0.611898422,0.521482468
64,84475760.0,9.269433975,-2.962914467,1.140871048,-0.053264618,-0.012783051,0.010652542,-0.422390938,0.418549538,0.611898422,0.521482468
65,84475760.0,9.269433975,-2.962914467,1.140871048,-0.053264618,-0.012783051,0.010652542,-0.422390938,0.418549538,0.611898422,0.521482468
66,84475784.0,9.24189949,-2.830032349,1.13129425,0.022370338,-0.008522034,0.012783051,-0.422390938,0.418549538,0.611898422,0.521482468
67,84475784.0,9.24189949,-2.830032349,1.13129425,0.022370338,-0.008522034,0.012783051,-0.422390938,0.418549538,0.611898422,0.521482468
68,84475808.0,9.156903267,-2.8108778,1.182771683,0.03195858,-0.009587288,0.014913559,-0.422390938,0.418549538,0.611898422,0.521482468
69,84475808.0,9.156903267,-2.8108778,1.182771683,0.03195858,-0.009587288,0.014913559,-0.422390938,0.418549538,0.611898422,0.521482468
70,84475824.0,9.123383522,-2.948549271,1.126505852,0.010652542,-0.008522034,0.006391525,-0.422390938,0.418549538,0.611898422,0.521482468
71,84475824.0,9.123383522,-2.948549271,1.126505852,0.010652542,-0.008522034,0.006391525,-0.422390938,0.418549538,0.611898422,0.521482468
72,84475840.0,9.237111092,-2.868340492,1.211502075,0.055395126,-0.011717796,-0.005326271,-0.422390938,0.418549538,0.611898422,0.521482468
73,84475840.0,9.237111092,-2.868340492,1.211502075,0.055395126,-0.011717796,-0.005326271,-0.422390938,0.418549538,0.611898422,0.521482468
74,84476064.0,9.269433975,-2.955731392,1.091789246,-0.008522034,-0.013848305,0.023435593,-0.424246788,0.419671059,0.611294746,0.519885063
75,84476080.0,9.421470642,-2.909043312,1.108549118,-0.008522034,-0.013848305,0.023435593,-0.424246788,0.419671059,0.611294746,0.519885063
76,84476104.0,9.465764999,-2.776161194,1.12530899,-0.008522034,-0.013848305,0.023435593,-0.424246788,0.419671059,0.611294746,0.519885063
77,84476120.0,9.399922371,-2.897071838,1.121717453,-0.008522034,-0.013848305,0.023435593,-0.424246788,0.419671059,0.611294746,0.519885063
78,84476144.0,9.367599487,-3.014390945,1.078619957,-0.008522034,-0.013848305,0.023435593,-0.424246788,0.419671059,0.611294746,0.519885063
79,84476160.0,9.547169685,-3.10896492,1.230656624,-0.008522034,-0.013848305,0.023435593,-0.424246788,0.419671059,0.611294746,0.519885063
80,84476160.0,9.547169685,-3.10896492,1.230656624,-0.008522034,-0.013848305,0.023435593,-0.424246788,0.419671059,0.611294746,0.519885063
81,84476184.0,9.779414177,-3.155653954,1.288119316,-0.008522034,-0.013848305,0.023435593,-0.424246788,0.419671059,0.611294746,0.519885063
82,84476184.0,9.779414177,-3.155653954,1.288119316,-0.008522034,-0.013848305,0.023435593,-0.424246788,0.419671059,0.611294746,0.519885063
83,84476200.0,9.471750259,-2.994040489,1.283330917,-0.008522034,-0.013848305,0.023435593,-0.424246788,0.419671059,0.611294746,0.519885063
84,84476200.0,9.471750259,-2.994040489,1.283330917,-0.008522034,-0.013848305,0.023435593,-0.424246788,0.419671059,0.611294746,0.519885063
85,84476224.0,9.474144936,-2.897071838,1.336005211,-0.008522034,-0.013848305,0.023435593,-0.424246788,0.419671059,0.611294746,0.519885063
86,84476224.0,9.474144936,-2.897071838,1.336005211,-0.008522034,-0.013848305,0.023435593,-0.424246788,0.419671059,0.611294746,0.519885063
87,84476240.0,9.675263405,-3.173610687,1.357553482,-0.008522034,-0.013848305,0.023435593,-0.424246788,0.419671059,0.611294746,0.519885063
88,84476240.0,9.675263405,-3.173610687,1.357553482,-0.008522034,-0.013848305,0.023435593,-0.424246788,0.419671059,0.611294746,0.519885063
89,84476360.0,9.174860001,-3.155653954,1.278542519,0.108659744,0.050068855,0.201340675,-0.414406776,0.408234596,0.624284744,0.521438599
90,84476384.0,9.136551857,-2.783344269,1.155237198,0.108659744,0.050068855,0.201340675,-0.414406776,0.408234596,0.624284744,0.521438599
91,84476400.0,8.393129349,-2.54750824,1.234248161,0.108659744,0.050068855,0.201340675,-0.414406776,0.408234596,0.624284744,0.521438599
92,84476424.0,8.443408966,-2.762992859,1.261782646,0.108659744,0.050068855,0.201340675,-0.414406776,0.408234596,0.624284744,0.521438599
93,84476440.0,8.692414284,-3.057488441,0.993623734,0.108659744,0.050068855,0.201340675,-0.414406776,0.408234596,0.624284744,0.521438599
94,84476464.0,8.9174757,-2.988054276,0.899049759,0.108659744,0.050068855,0.201340675,-0.414406776,0.408234596,0.624284744,0.521438599
95,84476480.0,9.038386345,-2.861157417,0.969680786,0.136357307,0.101202965,-0.073505402,-0.414406776,0.408234596,0.624284744,0.521438599
96,84476504.0,9.166480064,-3.002420425,1.034326553,0.092679977,0.098007202,-0.12677002,-0.414406776,0.408234596,0.624284744,0.521438599
97,84476520.0,9.246688843,-3.034742355,0.938554764,0.055395126,0.061786652,-0.147010803,-0.414406776,0.408234596,0.624284744,0.521438599
98,84476544.0,9.033597946,-2.889888763,0.990032196,0.074570656,0.079896927,-0.137422562,-0.414406776,0.408234596,0.624284744,0.521438599
99,84476560.0,9.118595123,-2.99523735,1.106154442,0.006391525,0.042611122,-0.110790253,-0.414105415,0.409356117,0.633607864,0.509397507
100,84476584.0,9.335276604,-3.141287804,1.17798233,-0.073505402,0.007456779,-0.089484215,-0.41427803,0.410133362,0.63283062,0.509570122
101,84476600.0,9.375979424,-3.070656776,1.211502075,-0.066047668,0.003195763,-0.071374893,-0.414363861,0.410823822,0.63222599,0.509742737
102,84476624.0,9.120988846,-3.003617287,1.21269989,-0.058590889,0.033023834,-0.043676376,-0.413975716,0.411514282,0.63188076,0.509872437
103,84476640.0,9.021626472,-3.055093765,1.254599571,-0.102268219,0.030893326,-0.019174576,-0.41345787,0.412118912,0.631362915,0.510477066
104,84476864.0,9.183239937,-3.013194084,1.092986107,-0.007456779,-0.030893326,0.066047668,-0.411212921,0.411039352,0.630284309,0.514533043
105,84476880.0,9.094652176,-2.994040489,1.143265724,-0.006391525,-0.034089088,-0.005326271,-0.411212921,0.411039352,0.630284309,0.514533043
106,84476896.0,9.062329292,-3.087416649,1.106154442,0.02023983,-0.051134109,-0.019174576,-0.411212921,0.411039352,0.630284309,0.514533043
107,84476920.0,9.009654999,-2.997631073,1.130097389,0.036219597,-0.059656143,-0.019174576,-0.411212921,0.411039352,0.630284309,0.514533043
108,84476944.0,9.104228973,-3.013194084,1.132491112,0.010652542,-0.070308685,-0.011717796,-0.411212921,0.411039352,0.630284309,0.514533043
109,84476960.0,9.460975647,-3.174807549,1.1456604,-0.067112923,-0.089484215,-0.009587288,-0.411212921,0.411039352,0.630284309,0.514533043
110,84476976.0,9.469355583,-3.241847038,1.1456604,-0.067112923,-0.089484215,-0.009587288,-0.411212921,0.411039352,0.630284309,0.514533043
111,84477000.0,9.162888527,-3.126922607,1.229459763,-0.067112923,-0.089484215,-0.009587288,-0.411212921,0.411039352,0.630284309,0.514533043
112,84477016.0,9.28260231,-3.055093765,1.286922455,-0.067112923,-0.089484215,-0.009587288,-0.411212921,0.411039352,0.630284309,0.514533043
113,84477040.0,9.572309494,-3.171216011,1.236642838,-0.067112923,-0.089484215,-0.009587288,-0.411212921,0.411039352,0.630284309,0.514533043
114,84477056.0,9.234717369,-3.187975883,1.325230598,-0.067112923,-0.089484215,-0.009587288,-0.411212921,0.411039352,0.630284309,0.514533043
115,84477080.0,9.079089165,-3.241847038,1.345582008,-0.067112923,-0.089484215,-0.009587288,-0.411212921,0.411039352,0.630284309,0.514533043
116,84477096.0,9.281405449,-3.250226974,1.363538742,-0.067112923,-0.089484215,-0.009587288,-0.411212921,0.411039352,0.630284309,0.514533043
117,84477120.0,9.319713593,-3.039531708,1.389876366,-0.067112923,-0.089484215,-0.009587288,-0.411212921,0.411039352,0.630284309,0.514533043
118,84477136.0,9.216759682,-2.91862011,1.412621498,-0.067112923,-0.089484215,-0.009587288,-0.411212921,0.411039352,0.630284309,0.514533043
119,84477160.0,9.166480064,-2.996434212,1.370721817,-0.067112923,-0.089484215,-0.009587288,-0.411212921,0.411039352,0.630284309,0.514533043
120,84477184.0,9.204788208,-3.165230751,1.312062263,-0.093745232,-0.007456779,0.029828072,-0.411212921,0.411039352,0.630284309,0.514533043
121,84477200.0,9.273025513,-3.130514145,1.295302391,-0.046872139,-0.004261017,0.010652542,-0.411212921,0.411039352,0.630284309,0.514533043
122,84477216.0,9.279010773,-2.978477478,1.242628098,0.004261017,0.008522034,0.007456779,-0.411212921,0.411039352,0.630284309,0.514533043
123,84477240.0,9.237111092,-3.039531708,1.188756943,-0.027697563,0.011717796,0.010652542,-0.411212921,0.411039352,0.630284309,0.514533043
124,84477360.0,9.237111092,-3.111359596,1.15164566,-0.041545868,0.003195763,0.013848305,-0.411212921,0.411039352,0.630284309,0.514533043
125,84477360.0,9.237111092,-3.111359596,1.15164566,-0.041545868,0.003195763,0.013848305,-0.411212921,0.411039352,0.630284309,0.514533043
126,84477376.0,9.237111092,-3.093402863,1.119322777,-0.03195858,-0.008522034,0.012783051,-0.411212921,0.411039352,0.630284309,0.514533043
127,84477376.0,9.237111092,-3.093402863,1.119322777,-0.03195858,-0.008522034,0.012783051,-0.411212921,0.411039352,0.630284309,0.514533043
128,84477400.0,9.216759682,-3.134104729,1.15164566,0.003195763,-0.008522034,0.005326271,-0.411212921,0.411039352,0.630284309,0.514533043
129,84477400.0,9.216759682,-3.134104729,1.15164566,0.003195763,-0.008522034,0.005326271,-0.411212921,0.411039352,0.630284309,0.514533043
130,84477416.0,9.166480064,-3.06227684,1.224671364,0.025567055,-0.008522034,-0.001065254,-0.411212921,0.411039352,0.630284309,0.514533043
131,84477416.0,9.166480064,-3.06227684,1.224671364,0.025567055,-0.008522034,-0.001065254,-0.411212921,0.411039352,0.630284309,0.514533043
132,84477440.0,9.176057816,-3.052700043,1.221079826,0.034089088,-0.017044067,-0.010652542,-0.411212921,0.411039352,0.630284309,0.514533043
133,84477440.0,9.176057816,-3.052700043,1.221079826,0.034089088,-0.017044067,-0.010652542,-0.411212921,0.411039352,0.630284309,0.514533043
134,84477456.0,9.232322693,-3.087416649,1.241431236,0.017044067,-0.022370338,-0.014913559,-0.411212921,0.411039352,0.630284309,0.514533043
135,84477480.0,9.203591347,-3.189173698,1.271359444,0.017044067,-0.022370338,-0.014913559,-0.411212921,0.411039352,0.630284309,0.514533043
136,84477496.0,9.185634613,-3.178399086,1.256993294,0.017044067,-0.022370338,-0.014913559,-0.411212921,0.411039352,0.630284309,0.514533043
137,84477520.0,9.184437752,-3.156850815,1.303682327,0.017044067,-0.022370338,-0.014913559,-0.411212921,0.411039352,0.630284309,0.514533043
138,84477536.0,9.177254677,-3.150864601,1.266571045,0.017044067,-0.022370338,-0.014913559,-0.411212921,0.411039352,0.630284309,0.514533043
139,84477656.0,9.219154358,-3.14368248,1.175588608,0.022370338,0.028762817,-0.002130508,-0.411472321,0.408752441,0.625494003,0.521870613
140,84477680.0,9.144931793,-3.061079979,1.13129425,0.022370338,0.028762817,-0.002130508,-0.411472321,0.408752441,0.625494003,0.521870613
141,84477696.0,9.160494804,-3.0682621,1.124111176,0.022370338,0.028762817,-0.002130508,-0.411472321,0.408752441,0.625494003,0.521870613
142,84477720.0,9.228731155,-3.166427612,1.092986107,0.022370338,0.028762817,-0.002130508,-0.411472321,0.408752441,0.625494003,0.521870613
143,84477736.0,9.203591347,-3.138894081,1.148054123,0.022370338,0.028762817,-0.002130508,-0.411472321,0.408752441,0.625494003,0.521870613
144,84477760.0,9.100637436,-3.047911644,1.114534378,0.022370338,0.028762817,-0.002130508,-0.411472321,0.408752441,0.625494003,0.521870613
145,84477760.0,9.100637436,-3.047911644,1.114534378,0.022370338,0.028762817,-0.002130508,-0.411472321,0.408752441,0.625494003,0.521870613
146,84477776.0,9.062329292,-3.03594017,1.101366043,0.022370338,0.028762817,-0.002130508,-0.411472321,0.408752441,0.625494003,0.521870613
147,84477776.0,9.062329292,-3.03594017,1.101366043,0.022370338,0.028762817,-0.002130508,-0.411472321,0.408752441,0.625494003,0.521870613
148,84477800.0,9.155706406,-3.125724792,1.034326553,0.022370338,0.028762817,-0.002130508,-0.411472321,0.408752441,0.625494003,0.521870613
149,84477800.0,9.155706406,-3.125724792,1.034326553,0.022370338,0.028762817,-0.002130508,-0.411472321,0.408752441,0.625494003,0.521870613
150,84477816.0,9.27661705,-3.080233574,1.090591431,0.022370338,0.028762817,-0.002130508,-0.411472321,0.408752441,0.625494003,0.521870613
151,84477816.0,9.27661705,-3.080233574,1.090591431,0.022370338,0.028762817,-0.002130508,-0.411472321,0.408752441,0.625494003,0.521870613
152,84477840.0,9.167676926,-3.033545494,1.128899574,0.022370338,0.028762817,-0.002130508,-0.411472321,0.408752441,0.625494003,0.521870613
153,84477840.0,9.167676926,-3.033545494,1.128899574,0.022370338,0.028762817,-0.002130508,-0.411472321,0.408752441,0.625494003,0.521870613
154,84477952.0,9.171268463,-3.187975883,1.17199707,-0.030893326,-0.012783051,-0.02023983,-0.411472321,0.408752441,0.625494003,0.521870613
155,84477952.0,9.171268463,-3.187975883,1.17199707,-0.030893326,-0.012783051,-0.02023983,-0.411472321,0.408752441,0.625494003,0.521870613
156,84477952.0,9.171268463,-3.187975883,1.17199707,-0.030893326,-0.012783051,-0.02023983,-0.411472321,0.408752441,0.625494003,0.521870613
157,84477976.0,9.128171921,-3.152062416,1.194742203,-0.030893326,-0.012783051,-0.02023983,-0.411472321,0.408752441,0.625494003,0.521870613
158,84477976.0,9.128171921,-3.152062416,1.194742203,-0.030893326,-0.012783051,-0.02023983,-0.411472321,0.408752441,0.625494003,0.521870613
159,84477976.0,9.128171921,-3.152062416,1.194742203,-0.030893326,-0.012783051,-0.02023983,-0.411472321,0.408752441,0.625494003,0.521870613
160,84478000.0,9.179648399,-3.075445175,1.256993294,-0.030893326,-0.012783051,-0.02023983,-0.411472321,0.408752441,0.625494003,0.521870613
161,84478000.0,9.179648399,-3.075445175,1.256993294,-0.030893326,-0.012783051,-0.02023983,-0.411472321,0.408752441,0.625494003,0.521870613
162,84478000.0,9.179648399,-3.075445175,1.256993294,-0.030893326,-0.012783051,-0.02023983,-0.411472321,0.408752441,0.625494003,0.521870613
163,84478016.0,9.263448715,-3.055093765,1.205516815,-0.030893326,-0.012783051,-0.02023983,-0.411472321,0.408752441,0.625494003,0.521870613
164,84478016.0,9.263448715,-3.055093765,1.205516815,-0.030893326,-0.012783051,-0.02023983,-0.411472321,0.408752441,0.625494003,0.521870613
165,84478016.0,9.263448715,-3.055093765,1.205516815,-0.030893326,-0.012783051,-0.02023983,-0.411472321,0.408752441,0.625494003,0.521870613
166,84478032.0,9.203591347,-3.150864601,1.240233421,-0.030893326,-0.012783051,-0.02023983,-0.411472321,0.408752441,0.625494003,0.521870613
167,84478032.0,9.203591347,-3.150864601,1.240233421,-0.030893326,-0.012783051,-0.02023983,-0.411472321,0.408752441,0.625494003,0.521870613
168,84478032.0,9.203591347,-3.150864601,1.240233421,-0.030893326,-0.012783051,-0.02023983,-0.411472321,0.408752441,0.625494003,0.521870613
169,84478160.0,9.21556282,-3.131711006,1.216291428,-0.029828072,0.007456779,0.007456779,-0.411472321,0.408752441,0.625494003,0.521870613
170,84478176.0,9.23591423,-3.058685303,1.222276688,-0.029828072,0.007456779,0.007456779,-0.411472321,0.408752441,0.625494003,0.521870613
171,84478192.0,9.225139618,-2.948549271,1.143265724,-0.029828072,0.007456779,0.007456779,-0.411472321,0.408752441,0.625494003,0.521870613
172,84478216.0,9.152114868,-3.026362419,1.15164566,-0.029828072,0.007456779,0.007456779,-0.411472321,0.408752441,0.625494003,0.521870613
173,84478232.0,9.201197624,-3.128119469,1.128899574,-0.029828072,0.007456779,0.007456779,-0.411472321,0.408752441,0.625494003,0.521870613
174,84478256.0,9.219154358,-3.063473701,1.140871048,-0.029828072,0.007456779,0.007456779,-0.411472321,0.408752441,0.625494003,0.521870613
175,84478256.0,9.219154358,-3.063473701,1.140871048,-0.029828072,0.007456779,0.007456779,-0.411472321,0.408752441,0.625494003,0.521870613
176,84478256.0,9.219154358,-3.063473701,1.140871048,-0.029828072,0.007456779,0.007456779,-0.411472321,0.408752441,0.625494003,0.521870613
177,84478272.0,9.179648399,-2.950942993,1.17798233,0.012783051,0.007456779,-0.008522034,-0.411472321,0.408752441,0.625494003,0.521870613
178,84478272.0,9.179648399,-2.950942993,1.17798233,0.012783051,0.007456779,-0.008522034,-0.411472321,0.408752441,0.625494003,0.521870613
179,84478272.0,9.179648399,-2.950942993,1.17798233,0.012783051,0.007456779,-0.008522034,-0.411472321,0.408752441,0.625494003,0.521870613
180,84478296.0,9.165283203,-2.948549271,1.142068863,-0.022370338,0.007456779,-0.011717796,-0.411472321,0.408752441,0.625494003,0.521870613
181,84478296.0,9.165283203,-2.948549271,1.142068863,-0.022370338,0.007456779,-0.011717796,-0.411472321,0.408752441,0.625494003,0.521870613
182,84478296.0,9.165283203,-2.948549271,1.142068863,-0.022370338,0.007456779,-0.011717796,-0.411472321,0.408752441,0.625494003,0.521870613
183,84478312.0,9.152114868,-3.010800362,1.110942841,-0.074570656,0.006391525,-0.011717796,-0.411472321,0.408752441,0.625494003,0.521870613
184,84478312.0,9.152114868,-3.010800362,1.110942841,-0.074570656,0.006391525,-0.011717796,-0.411472321,0.408752441,0.625494003,0.521870613
185,84478312.0,9.152114868,-3.010800362,1.110942841,-0.074570656,0.006391525,-0.011717796,-0.411472321,0.408752441,0.625494003,0.521870613
186,84478336.0,9.199999809,-3.131711006,1.096577644,-0.102268219,0.005326271,-0.015978813,-0.411472321,0.408752441,0.625494003,0.521870613
187,84478336.0,9.199999809,-3.131711006,1.096577644,-0.102268219,0.005326271,-0.015978813,-0.411472321,0.408752441,0.625494003,0.521870613
188,84478336.0,9.199999809,-3.131711006,1.096577644,-0.102268219,0.005326271,-0.015978813,-0.411472321,0.408752441,0.625494003,0.521870613
189,84478456.0,9.252674103,-3.069459915,1.175588608,-0.074570656,-0.006391525,-0.013848305,-0.411472321,0.408752441,0.625494003,0.521870613
190,84478472.0,9.123383522,-3.158047676,1.158828735,-0.044741631,-0.002130508,-0.014913559,-0.411472321,0.408752441,0.625494003,0.521870613
191,84478496.0,9.100637436,-3.113753319,1.193545341,-0.014913559,0.001065254,-0.017044067,-0.411472321,0.408752441,0.625494003,0.521870613
192,84478512.0,9.325699806,-3.050305367,1.167208672,-0.004261017,-0.022370338,-0.005326271,-0.411472321,0.408752441,0.625494003,0.521870613
193,84478536.0,9.356824875,-3.08262825,1.21269989,-0.017044067,-0.014913559,-0.002130508,-0.411472321,0.408752441,0.625494003,0.521870613
194,84478552.0,9.118595123,-3.034742355,1.201925278,-0.010652542,0.018109322,-0.012783051,-0.411472321,0.408752441,0.625494003,0.521870613
195,84478576.0,9.171268463,-3.008405685,1.163617134,-0.012783051,0.006391525,-0.017044067,-0.411472321,0.408752441,0.625494003,0.521870613
196,84478592.0,9.264645576,-3.122134209,1.17199707,-0.039415359,-0.004261017,-0.019174576,-0.411472321,0.408752441,0.625494003,0.521870613
197,84478616.0,9.219154358,-3.091008186,1.168405533,-0.027697563,0.003195763,-0.011717796,-0.411472321,0.408752441,0.625494003,0.521870613
198,84478632.0,9.165283203,-3.027560234,1.167208672,-0.011717796,0.003195763,-0.009587288,-0.411472321,0.408752441,0.625494003,0.521870613
199,84478656.0,9.161691666,-3.092205048,1.156434059,-0.026632309,-0.003195763,-0.009587288,-0.411472321,0.408752441,0.625494003,0.521870613
200,84478656.0,9.161691666,-3.092205048,1.156434059,-0.026632309,-0.003195763,-0.009587288,-0.411472321,0.408752441,0.625494003,0.521870613
201,84478672.0,9.203591347,-3.14966774,1.101366043,-0.026632309,-0.003195763,-0.009587288,-0.411472321,0.408752441,0.625494003,0.521870613
202,84478672.0,9.203591347,-3.14966774,1.101366043,-0.026632309,-0.003195763,-0.009587288,-0.411472321,0.408752441,0.625494003,0.521870613
203,84478696.0,9.245491028,-3.007208824,1.199531555,-0.026632309,-0.003195763,-0.009587288,-0.411472321,0.408752441,0.625494003,0.521870613
204,84478696.0,9.245491028,-3.007208824,1.199531555,-0.026632309,-0.003195763,-0.009587288,-0.411472321,0.408752441,0.625494003,0.521870613
205,84478712.0,9.172466278,-2.943759918,1.130097389,-0.026632309,-0.003195763,-0.009587288,-0.411472321,0.408752441,0.625494003,0.521870613
206,84478712.0,9.172466278,-2.943759918,1.130097389,-0.026632309,-0.003195763,-0.009587288,-0.411472321,0.408752441,0.625494003,0.521870613
207,84478736.0,9.205986023,-3.118542671,1.098971367,-0.026632309,-0.003195763,-0.009587288,-0.411472321,0.408752441,0.625494003,0.521870613
208,84478736.0,9.205986023,-3.118542671,1.098971367,-0.026632309,-0.003195763,-0.009587288,-0.411472321,0.408752441,0.625494003,0.521870613
209,84478856.0,9.222745895,-3.104176521,1.089394569,-0.023435593,-0.008522034,0.001065254,-0.410522461,0.414017677,0.621005058,0.523769379
210,84478872.0,9.205986023,-3.107768059,1.086999893,-0.023435593,-0.008522034,0.001065254,-0.41056633,0.414017677,0.621005058,0.523812294
211,84478896.0,9.234717369,-3.051502228,1.095379829,-0.023435593,-0.008522034,0.001065254,-0.410609245,0.413974762,0.620962143,0.523856163
212,84478912.0,9.243097305,-3.055093765,1.120519638,-0.023435593,-0.008522034,0.001065254,-0.410652161,0.413930893,0.620832443,0.523984909
213,84478936.0,9.243097305,-3.16403389,1.066648483,-0.023435593,-0.008522034,0.001065254,-0.410652161,0.413887978,0.620702744,0.524244308
214,84478952.0,9.232322693,-3.131711006,1.088197708,-0.023435593,-0.008522034,0.001065254,-0.410652161,0.413887978,0.620702744,0.524244308
215,84478952.0,9.232322693,-3.131711006,1.088197708,-0.023435593,-0.008522034,0.001065254,-0.410652161,0.413887978,0.620702744,0.524244308
216,84478976.0,9.194014549,-3.085022926,1.139674187,0.035154343,-0.006391525,0.004261017,-0.410652161,0.413887978,0.620702744,0.524244308
217,84478976.0,9.194014549,-3.085022926,1.139674187,0.035154343,-0.006391525,0.004261017,-0.410652161,0.413887978,0.620702744,0.524244308
218,84478992.0,9.183239937,-3.099388123,1.161222458,0.040480614,-0.014913559,0.005326271,-0.410652161,0.413887978,0.620702744,0.524244308
219,84478992.0,9.183239937,-3.099388123,1.161222458,0.040480614,-0.014913559,0.005326271,-0.410652161,0.413887978,0.620702744,0.524244308
220,84479008.0,9.226337433,-3.050305367,1.128899574,0.026632309,-0.024501801,0.013848305,-0.410652161,0.413887978,0.620702744,0.524244308
221,84479008.0,9.226337433,-3.050305367,1.128899574,0.026632309,-0.024501801,0.013848305,-0.410652161,0.413887978,0.620702744,0.524244308
222,84479032.0,9.214365959,-3.037137032,1.114534378,0.001065254,-0.018109322,0.019174576,-0.410652161,0.413887978,0.620702744,0.524244308
223,84479032.0,9.214365959,-3.037137032,1.114534378,0.001065254,-0.018109322,0.019174576,-0.410652161,0.413887978,0.620702744,0.524244308
224,84479152.0,9.238308907,-3.366350174,1.1456604,-0.02023983,-0.005326271,0.026632309,-0.41160202,0.411557198,0.621825218,0.523984909
225,84479176.0,9.259857178,-4.103786469,1.631697655,-0.02023983,-0.005326271,0.026632309,-0.41160202,0.411557198,0.621825218,0.523984909
226,84479192.0,9.24189949,-5.213532448,1.749016762,-0.02023983,-0.005326271,0.026632309,-0.41160202,0.411557198,0.621825218,0.523984909
227,84479216.0,9.784203529,-7.000858307,2.311672211,-0.02023983,-0.005326271,0.026632309,-0.41160202,0.411557198,0.621825218,0.523984909
228,84479232.0,10.55635643,-9.243097305,4.076251984,-0.02023983,-0.005326271,0.026632309,-0.41160202,0.411557198,0.621825218,0.523984909
229,84479248.0,11.19083977,-11.66490555,6.039557457,-0.02023983,-0.005326271,0.026632309,-0.41160202,0.411557198,0.621825218,0.523984909
230,84479272.0,11.74032593,-11.16450214,4.583838463,1.464782715,-0.267389297,1.248527527,-0.41160202,0.411557198,0.621825218,0.523984909
231,84479288.0,14.08072948,-12.05277824,4.703552246,1.253853798,-0.319588661,1.955884933,-0.41160202,0.411557198,0.621825218,0.523984909
232,84479312.0,15.43349457,-16.82815933,5.066285133,-0.133161545,-0.078831673,3.208673477,-0.41160202,0.411557198,0.621825218,0.523984909
233,84479328.0,16.59591484,-21.33059311,3.97090435,-1.394473076,0.190688133,4.451875687,-0.41160202,0.411557198,0.621825218,0.523984909
234,84479352.0,18.50774384,-24.71729469,2.505607605,-1.613924026,0.210927963,5.777104378,-0.41160202,0.411557198,0.621825218,0.523984909
235,84479368.0,20.71167374,-28.59841347,-2.412231445,-1.613924026,0.210927963,5.777104378,-0.41160202,0.411557198,0.621825218,0.523984909
236,84479392.0,22.3002739,-32.06412506,-6.838047981,-1.613924026,0.210927963,5.777104378,-0.41160202,0.411557198,0.621825218,0.523984909
237,84479408.0,24.15344238,-33.30316162,-6.31370163,-1.613924026,0.210927963,5.777104378,-0.41160202,0.411557198,0.621825218,0.523984909
238,84479432.0,25.9802742,-26.42321396,-6.468132973,-1.613924026,0.210927963,5.777104378,-0.41160202,0.411557198,0.621825218,0.523984909
239,84479448.0,25.79352188,-19.97543335,-7.585062027,-1.613924026,0.210927963,5.777104378,-0.41160202,0.411557198,0.621825218,0.523984909
240,84479472.0,23.08918762,-12.58670139,-9.021626472,4.148265839,0.188556671,12.2945919,-0.41160202,0.411557198,0.621825218,0.523984909
241,84479488.0,20.13704681,-5.782173157,-10.03560162,3.575136185,0.206666946,12.61631107,-0.41160202,0.411557198,0.621825218,0.523984909
242,84479512.0,18.38683319,-1.981262207,-6.378347397,3.222522736,0.050068855,12.9156599,-0.41160202,0.411557198,0.621825218,0.523984909
243,84479528.0,18.80223846,-1.614937782,-2.930591583,3.126646042,-0.089484215,12.32655048,-0.41160202,0.411557198,0.621825218,0.523984909
244,84479648.0,4.009212494,13.18287563,-2.024358749,0.624263763,-0.43357563,4.836447716,-0.41160202,0.411557198,0.621825218,0.523984909
245,84479648.0,4.009212494,13.18287563,-2.024358749,0.624263763,-0.43357563,4.836447716,-0.41160202,0.411557198,0.621825218,0.523984909
246,84479648.0,4.009212494,13.18287563,-2.024358749,0.624263763,-0.43357563,4.836447716,-0.41160202,0.411557198,0.621825218,0.523984909
247,84479672.0,3.460923195,11.13936234,-1.425789833,-0.544365883,-0.820278168,3.263004303,-0.41160202,0.411557198,0.621825218,0.523984909
248,84479672.0,3.460923195,11.13936234,-1.425789833,-0.544365883,-0.820278168,3.263004303,-0.41160202,0.411557198,0.621825218,0.523984909
249,84479672.0,3.460923195,11.13936234,-1.425789833,-0.544365883,-0.820278168,3.263004303,-0.41160202,0.411557198,0.621825218,0.523984909
250,84479688.0,4.205543518,10.67247868,0.843981743,-0.594434738,-1.212306976,1.387016296,-0.41160202,0.411557198,0.621825218,0.523984909
251,84479688.0,4.205543518,10.67247868,0.843981743,-0.594434738,-1.212306976,1.387016296,-0.41160202,0.411557198,0.621825218,0.523984909
252,84479688.0,4.205543518,10.67247868,0.843981743,-0.594434738,-1.212306976,1.387016296,-0.41160202,0.411557198,0.621825218,0.523984909
253,84479712.0,4.808899879,12.86563492,2.642081261,0.043676376,-1.029076576,-0.651961327,-0.41160202,0.411557198,0.621825218,0.523984909
254,84479712.0,4.808899879,12.86563492,2.642081261,0.043676376,-1.029076576,-0.651961327,-0.41160202,0.411557198,0.621825218,0.523984909
255,84479712.0,4.808899879,12.86563492,2.642081261,0.043676376,-1.029076576,-0.651961327,-0.41160202,0.411557198,0.621825218,0.523984909
256,84479728.0,4.709537506,13.12421608,2.59419632,0.317458153,-0.614675522,-2.473619461,-0.41160202,0.411557198,0.621825218,0.523984909
257,84479728.0,4.709537506,13.12421608,2.59419632,0.317458153,-0.614675522,-2.473619461,-0.41160202,0.411557198,0.621825218,0.523984909
258,84479728.0,4.709537506,13.12421608,2.59419632,0.317458153,-0.614675522,-2.473619461,-0.41160202,0.411557198,0.621825218,0.523984909
259,84479936.0,28.97192001,2.67679882,-3.737462044,-3.064858437,0.911893845,-7.767079353,0.132754326,-0.085886002,0.76778698,0.620875359
260,84479960.0,38.50711823,5.898295403,-5.005230904,-3.064858437,0.911893845,-7.767079353,0.132754326,-0.085886002,0.76778698,0.620875359
261,84479976.0,39.22660065,1.398256302,-17.17173767,-3.064858437,0.911893845,-7.767079353,0.132754326,-0.085886002,0.76778698,0.620875359
262,84480000.0,39.22660065,-39.22660065,20.44710541,-3.064858437,0.911893845,-7.767079353,0.132754326,-0.085886002,0.76778698,0.620875359
263,84480016.0,6.1652565,-39.21582413,-39.22660065,-3.064858437,0.911893845,-7.767079353,0.132754326,-0.085886002,0.76778698,0.620875359
264,84480040.0,-25.04531097,39.00033951,39.06857681,-3.064858437,0.911893845,-7.767079353,0.132754326,-0.085886002,0.76778698,0.620875359
265,84480056.0,16.83414459,-31.97314453,-22.86173248,-13.44830799,-6.249031067,-2.9093256,0.132754326,-0.085886002,0.76778698,0.620875359
266,84480056.0,16.83414459,-31.97314453,-22.86173248,-13.44830799,-6.249031067,-2.9093256,0.132754326,-0.085886002,0.76778698,0.620875359
267,84480080.0,14.36445045,-38.95963669,-4.789746284,-16.6260891,-1.901554108,7.927939415,0.132754326,-0.085886002,0.76778698,0.620875359
268,84480080.0,14.36445045,-38.95963669,-4.789746284,-16.6260891,-1.901554108,7.927939415,0.132754326,-0.085886002,0.76778698,0.620875359
269,84480096.0,14.85767078,-10.90232944,3.541131973,7.083158493,-2.210490227,-4.413524628,0.132754326,-0.085886002,0.76778698,0.620875359
270,84480096.0,14.85767078,-10.90232944,3.541131973,7.083158493,-2.210490227,-4.413524628,0.132754326,-0.085886002,0.76778698,0.620875359
271,84480120.0,15.86326694,11.67328548,4.659257889,10.42819118,-2.557777405,-0.972615242,0.132754326,-0.085886002,0.76778698,0.620875359
272,84480120.0,15.86326694,11.67328548,4.659257889,10.42819118,-2.557777405,-0.972615242,0.132754326,-0.085886002,0.76778698,0.620875359
273,84480136.0,14.23755455,-1.231853485,1.328822136,-0.100137711,-0.526256561,-2.029390335,0.132754326,-0.085886002,0.76778698,0.620875359
274,84480136.0,14.23755455,-1.231853485,1.328822136,-0.100137711,-0.526256561,-2.029390335,0.132754326,-0.085886002,0.76778698,0.620875359
275,84480256.0,8.840858459,-1.004397392,0.639270782,0.893783569,0.454881668,0.486840248,0.132754326,-0.085886002,0.76778698,0.620875359
276,84480280.0,10.85085297,-2.43138504,-0.353155136,0.893783569,0.454881668,0.486840248,0.132754326,-0.085886002,0.76778698,0.620875359
277,84480296.0,10.58269405,-2.666024208,-0.180767059,0.893783569,0.454881668,0.486840248,0.132754326,-0.085886002,0.76778698,0.620875359
278,84480320.0,9.905114174,-2.402654648,0.35076046,0.893783569,0.454881668,0.486840248,0.132754326,-0.085886002,0.76778698,0.620875359
279,84480336.0,9.730332375,-1.616134644,0.687156677,0.893783569,0.454881668,0.486840248,0.132754326,-0.085886002,0.76778698,0.620875359
280,84480360.0,9.219154358,-1.533532143,0.732647896,0.533713341,0.069243431,0.632785797,0.132754326,-0.085886002,0.76778698,0.620875359
281,84480360.0,9.219154358,-1.533532143,0.732647896,0.533713341,0.069243431,0.632785797,0.132754326,-0.085886002,0.76778698,0.620875359
282,84480376.0,8.879167557,-1.895068169,0.736239433,0.70416069,0.07563591,0.504950523,0.132754326,-0.085886002,0.76778698,0.620875359
283,84480376.0,8.879167557,-1.895068169,0.736239433,0.70416069,0.07563591,0.504950523,0.132754326,-0.085886002,0.76778698,0.620875359
284,84480400.0,8.883955956,-1.534729958,0.606947899,0.760621071,0.027697563,0.356874466,0.132754326,-0.085886002,0.76778698,0.620875359
285,84480400.0,8.883955956,-1.534729958,0.606947899,0.760621071,0.027697563,0.356874466,0.132754326,-0.085886002,0.76778698,0.620875359
286,84480416.0,8.976135254,-1.488040924,0.761379242,0.665810585,0.038350105,0.25886631,0.132754326,-0.085886002,0.76778698,0.620875359
287,84480416.0,8.976135254,-1.488040924,0.761379242,0.665810585,0.038350105,0.25886631,0.132754326,-0.085886002,0.76778698,0.620875359
288,84480440.0,9.332881927,-1.641274452,1.139674187,0.328110695,-0.002130508,0.280172348,0.132754326,-0.085886002,0.76778698,0.620875359
289,84480440.0,9.332881927,-1.641274452,1.139674187,0.328110695,-0.002130508,0.280172348,0.132754326,-0.085886002,0.76778698,0.620875359
290,84480456.0,9.741106033,-1.745426178,1.055874825,0.021305084,-0.067112923,0.285499573,0.132754326,-0.085886002,0.76778698,0.620875359
291,84480480.0,9.559141159,-2.16801548,0.5147686,-0.129965782,-0.057525635,0.274846077,0.132754326,-0.085886002,0.76778698,0.620875359
292,84480496.0,9.277813911,-2.509199142,0.314846992,-0.219450951,-0.015978813,0.253540039,0.132754326,-0.085886002,0.76778698,0.620875359
293,84480520.0,9.203591347,-2.343994141,0.523148537,-0.190688133,0.012783051,0.211993217,0.132754326,-0.085886002,0.76778698,0.620875359
294,84480536.0,9.217957497,-2.25540638,0.468080521,-0.168316841,0.018109322,0.209862709,0.132754326,-0.085886002,0.76778698,0.620875359
295,84480656.0,9.301756859,-2.640884399,0.452517509,-0.11931324,-0.034089088,0.085223198,-0.369263649,0.488034248,0.534645081,0.582810402
296,84480672.0,9.245491028,-3.160442352,0.417800903,-0.291891098,-0.017044067,0.06391716,-0.369263649,0.488034248,0.534645081,0.582810402
297,84480696.0,9.192817688,-3.250226974,0.523148537,-0.279107094,-0.027697563,0.045806885,-0.369263649,0.488034248,0.534645081,0.582810402
298,84480720.0,9.12697506,-3.137696266,0.434560776,-0.122509003,-0.029828072,0.012783051,-0.369263649,0.488034248,0.534645081,0.582810402
299,84480736.0,9.099440575,-3.234664917,0.339986801,-0.08309269,-0.027697563,-0.002130508,-0.369263649,0.488034248,0.534645081,0.582810402
300,84480752.0,9.165283203,-3.452543259,0.408223152,-0.08309269,-0.027697563,-0.002130508,-0.369263649,0.488034248,0.534645081,0.582810402
301,84480776.0,9.274222374,-3.438178062,0.52075386,-0.08309269,-0.027697563,-0.002130508,-0.369263649,0.488034248,0.534645081,0.582810402
302,84480800.0,9.217957497,-3.199947357,0.490825653,-0.08309269,-0.027697563,-0.002130508,-0.369263649,0.488034248,0.534645081,0.582810402
303,84480816.0,9.152114868,-3.241847038,0.416603088,-0.08309269,-0.027697563,-0.002130508,-0.369263649,0.488034248,0.534645081,0.582810402
304,84480832.0,9.170071602,-3.466909409,0.436954498,-0.08309269,-0.027697563,-0.002130508,-0.369263649,0.488034248,0.534645081,0.582810402
305,84480856.0,9.284996986,-3.549511909,0.390266418,-0.08309269,-0.027697563,-0.002130508,-0.369263649,0.488034248,0.534645081,0.582810402
306,84480872.0,9.257462502,-3.484866142,0.396251678,-0.08309269,-0.027697563,-0.002130508,-0.369263649,0.488034248,0.534645081,0.582810402
307,84480896.0,9.124580383,-3.322055817,0.42618084,-0.08309269,-0.027697563,-0.002130508,-0.369263649,0.488034248,0.534645081,0.582810402
308,84480912.0,9.197606087,-3.316069603,0.660819054,-0.08309269,-0.027697563,-0.002130508,-0.369263649,0.488034248,0.534645081,0.582810402
309,84480936.0,9.439427376,-3.299309731,0.415406227,-0.08309269,-0.027697563,-0.002130508,-0.369263649,0.488034248,0.534645081,0.582810402
310,84480960.0,9.257462502,-3.223890305,0.415406227,0.024501801,-0.055395126,0.012783051,-0.359897614,0.478280067,0.536803246,0.594678879
311,84480976.0,9.058737755,-3.292127609,0.509980202,-0.051134109,0.001065254,0.011717796,-0.359336853,0.478021622,0.536975861,0.59498024
312,84480992.0,9.101835251,-3.39508152,0.593779564,-0.099072456,-0.015978813,0.007456779,-0.358689308,0.478194237,0.53663063,0.595541954
313,84481016.0,9.22992897,-3.392686844,0.460897446,-0.066047668,-0.029828072,0.019174576,-0.358344078,0.478194237,0.536198616,0.596232414
314,84481040.0,9.25626564,-3.37473011,0.38547802,-0.010652542,-0.03195858,0.010652542,-0.357610703,0.477676392,0.536543846,0.596707344
315,84481056.0,9.20957756,-3.259804726,0.548288345,-0.010652542,-0.03195858,0.010652542,-0.357610703,0.477676392,0.536543846,0.596707344
316,84481072.0,9.196408272,-3.296916008,0.463292122,-0.010652542,-0.03195858,0.010652542,-0.357610703,0.477676392,0.536543846,0.596707344
317,84481096.0,9.28260231,-3.222693443,0.37111187,-0.010652542,-0.03195858,0.010652542,-0.357610703,0.477676392,0.536543846,0.596707344
318,84481112.0,9.2622509,-3.226284981,0.403434753,-0.010652542,-0.03195858,0.010652542,-0.357610703,0.477676392,0.536543846,0.596707344
319,84481136.0,9.213168144,-3.343604088,0.37111187,-0.010652542,-0.03195858,0.010652542,-0.357610703,0.477676392,0.536543846,0.596707344
320,84481152.0,9.252674103,-3.294521332,0.414209366,-0.010652542,-0.03195858,0.010652542,-0.357610703,0.477676392,0.536543846,0.596707344
321,84481176.0,9.322108269,-3.086219788,0.349563599,-0.010652542,-0.03195858,0.010652542,-0.357610703,0.477676392,0.536543846,0.596707344
322,84481192.0,9.326896667,-3.135302544,0.32442379,-0.010652542,-0.03195858,0.010652542,-0.357610703,0.477676392,0.536543846,0.596707344
323,84481216.0,9.237111092,-3.316069603,0.322029114,-0.010652542,-0.03195858,0.010652542,-0.357610703,0.477676392,0.536543846,0.596707344
324,84481232.0,9.182043076,-3.347195625,0.38547802,-0.010652542,-0.03195858,0.010652542,-0.357610703,0.477676392,0.536543846,0.596707344
325,84481256.0,9.223942757,-3.204735756,0.387871742,-0.006391525,0.009587288,-0.014913559,-0.357610703,0.477676392,0.536543846,0.596707344
326,84481272.0,9.211971283,-3.137696266,0.354351997,0.029828072,0.006391525,-0.005326271,-0.357610703,0.477676392,0.536543846,0.596707344
327,84481296.0,9.164086342,-3.17001915,0.363929749,-0.010652542,0.009587288,0.001065254,-0.357610703,0.477676392,0.536543846,0.596707344
328,84481312.0,9.153311729,-3.302901268,0.399843216,-0.049003601,0.019174576,-0.004261017,-0.357610703,0.477676392,0.536543846,0.596707344
329,84481336.0,9.199999809,-3.227481842,0.401040077,-0.011717796,0.018109322,-0.003195763,-0.357610703,0.477676392,0.536543846,0.596707344
330,84481352.0,9.316122055,-3.044320107,0.361535072,-0.011717796,0.018109322,-0.003195763,-0.351740837,0.477503777,0.538356781,0.59869194
331,84481376.0,9.298165321,-3.147274017,0.317240715,-0.011717796,0.018109322,-0.003195763,-0.351612091,0.477589607,0.538356781,0.598735809
332,84481392.0,9.125777245,-3.341209412,0.366323471,-0.011717796,0.018109322,-0.003195763,-0.351093292,0.478021622,0.538011551,0.598994255
333,84481416.0,9.196408272,-3.275367737,0.3447752,-0.011717796,0.018109322,-0.003195763,-0.350877762,0.478237152,0.537968636,0.59895134
334,84481432.0,9.295770645,-3.074248314,0.329212189,-0.011717796,0.018109322,-0.003195763,-0.351137161,0.478194237,0.53827095,0.59860611
335,84481456.0,9.269433975,-3.187975883,0.32442379,-0.012783051,0.024501801,-0.029828072,-0.351137161,0.478194237,0.53827095,0.59860611
336,84481472.0,9.177254677,-3.357970238,0.357943535,-0.072440147,0.030893326,-0.019174576,-0.351137161,0.478194237,0.53827095,0.59860611
337,84481496.0,9.143734932,-3.391489983,0.359140396,-0.023435593,0.018109322,-0.026632309,-0.351137161,0.478194237,0.53827095,0.59860611
338,84481512.0,9.250279427,-3.275367737,0.363929749,0.057525635,-0.008522034,-0.033023834,-0.351137161,0.478194237,0.53827095,0.59860611
339,84481536.0,9.231125832,-3.161639214,0.39146328,0.088418961,-0.008522034,-0.023435593,-0.351137161,0.478194237,0.53827095,0.59860611
340,84481552.0,9.159296989,-3.219101906,0.373506546,0.038350105,0.001065254,-0.003195763,-0.351137161,0.478194237,0.53827095,0.59860611
341,84481576.0,9.225139618,-3.392686844,0.367520332,-0.013848305,-0.004261017,-0.001065254,-0.351137161,0.478194237,0.53827095,0.59860611
342,84481592.0,9.274222374,-3.305295944,0.402237892,0.051134109,-0.002130508,-0.004261017,-0.351137161,0.478194237,0.53827095,0.59860611
343,84481616.0,9.299362183,-3.061079979,0.416603088,0.086288452,-0.006391525,0.0,-0.351137161,0.478194237,0.53827095,0.59860611
344,84481632.0,9.185634613,-3.23107338,0.404631615,-0.018109322,0.003195763,0.013848305,-0.351137161,0.478194237,0.53827095,0.59860611
345,84481656.0,9.117397308,-3.42141819,0.354351997,-0.069243431,0.001065254,0.015978813,-0.351137161,0.478194237,0.53827095,0.59860611
346,84481672.0,9.244294167,-3.312479019,0.373506546,-0.069243431,0.001065254,0.015978813,-0.351137161,0.478194237,0.53827095,0.59860611
347,84481672.0,9.244294167,-3.312479019,0.373506546,-0.069243431,0.001065254,0.015978813,-0.351137161,0.478194237,0.53827095,0.59860611
348,84481696.0,9.289785385,-3.178399086,0.429771423,-0.069243431,0.001065254,0.015978813,-0.351137161,0.478194237,0.53827095,0.59860611
349,84481696.0,9.289785385,-3.178399086,0.429771423,-0.069243431,0.001065254,0.015978813,-0.351137161,0.478194237,0.53827095,0.59860611
350,84481712.0,9.208379745,-3.269381523,0.363929749,-0.069243431,0.001065254,0.015978813,-0.351137161,0.478194237,0.53827095,0.59860611
351,84481712.0,9.208379745,-3.269381523,0.363929749,-0.069243431,0.001065254,0.015978813,-0.351137161,0.478194237,0.53827095,0.59860611
352,84481728.0,9.223942757,-3.34001255,0.40582943,-0.069243431,0.001065254,0.015978813,-0.351137161,0.478194237,0.53827095,0.59860611
353,84481728.0,9.223942757,-3.34001255,0.40582943,-0.069243431,0.001065254,0.015978813,-0.351137161,0.478194237,0.53827095,0.59860611
354,84481752.0,9.24189949,-3.222693443,0.42618084,0.049003601,-0.012783051,0.02023983,-0.351137161,0.478194237,0.53827095,0.59860611
355,84481776.0,9.294573784,-3.141287804,0.384280205,0.045806885,-0.017044067,0.021305084,-0.351137161,0.478194237,0.53827095,0.59860611
356,84481792.0,9.27661705,-3.228678703,0.356746674,-0.02023983,-0.007456779,0.027697563,-0.351137161,0.478194237,0.53827095,0.59860611
357,84481808.0,9.166480064,-3.336421013,0.396251678,-0.050068855,0.009587288,0.033023834,-0.351137161,0.478194237,0.53827095,0.59860611
358,84481832.0,9.119791985,-3.290929794,0.381886482,0.009587288,0.005326271,0.02023983,-0.351137161,0.478194237,0.53827095,0.59860611
359,84481856.0,9.226337433,-3.183187485,0.398646355,0.052199364,-0.009587288,0.009587288,-0.351137161,0.478194237,0.53827095,0.59860611
360,84481976.0,9.21556282,-3.3543787,0.372309685,0.052199364,-0.009587288,0.009587288,-0.350317001,0.473749161,0.543751717,0.597613335
361,84481976.0,9.21556282,-3.3543787,0.372309685,0.052199364,-0.009587288,0.009587288,-0.350317001,0.473749161,0.543751717,0.597613335
362,84481992.0,9.184437752,-3.228678703,0.450122833,0.052199364,-0.009587288,0.009587288,-0.350317001,0.473749161,0.543751717,0.597613335
363,84481992.0,9.184437752,-3.228678703,0.450122833,0.052199364,-0.009587288,0.009587288,-0.350317001,0.473749161,0.543751717,0.597613335
364,84482016.0,9.176057816,-3.003617287,0.403434753,0.052199364,-0.009587288,0.009587288,-0.350317001,0.473749161,0.543751717,0.597613335
365,84482016.0,9.176057816,-3.003617287,0.403434753,0.052199364,-0.009587288,0.009587288,-0.350317001,0.473749161,0.543751717,0.597613335
366,84482032.0,9.299362183,-3.058685303,0.375900269,0.052199364,-0.009587288,0.009587288,-0.350317001,0.473749161,0.543751717,0.597613335
367,84482032.0,9.299362183,-3.058685303,0.375900269,0.052199364,-0.009587288,0.009587288,-0.350317001,0.473749161,0.543751717,0.597613335
368,84482048.0,9.338868141,-3.160442352,0.417800903,0.052199364,-0.009587288,0.009587288,-0.350317001,0.473749161,0.543751717,0.597613335
369,84482048.0,9.338868141,-3.160442352,0.417800903,0.052199364,-0.009587288,0.009587288,-0.350317001,0.473749161,0.543751717,0.597613335
370,84482072.0,9.207182884,-3.122134209,0.453714371,0.052199364,-0.009587288,0.009587288,-0.350317001,0.473749161,0.543751717,0.597613335
371,84482096.0,9.216759682,-3.114951134,0.454912186,0.052199364,-0.009587288,0.009587288,-0.350317001,0.473749161,0.543751717,0.597613335
372,84482112.0,9.245491028,-3.137696266,0.429771423,0.052199364,-0.009587288,0.009587288,-0.350317001,0.473749161,0.543751717,0.597613335
373,84482128.0,9.192817688,-3.136499405,0.446531296,0.052199364,-0.009587288,0.009587288,-0.350317001,0.473749161,0.543751717,0.597613335
374,84482152.0,9.189226151,-3.251424789,0.545894623,0.052199364,-0.009587288,0.009587288,-0.350317001,0.473749161,0.543751717,0.597613335
375,84482168.0,9.253870964,-3.247833252,0.560259819,0.028762817,-0.007456779,-0.050068855,-0.350317001,0.473749161,0.543751717,0.597613335
376,84482192.0,9.29696846,-3.217905045,0.451320648,0.025567055,-0.009587288,-0.033023834,-0.350317001,0.473749161,0.543751717,0.597613335
377,84482208.0,9.174860001,-3.246636391,0.500403404,-0.009587288,0.003195763,-0.015978813,-0.350317001,0.473749161,0.543751717,0.597613335
378,84482232.0,9.101835251,-3.290929794,0.549485207,-0.017044067,0.029828072,-0.015978813,-0.350317001,0.473749161,0.543751717,0.597613335
379,84482248.0,9.245491028,-3.269381523,0.465685844,0.004261017,0.002130508,-0.02023983,-0.350317001,0.473749161,0.543751717,0.597613335
380,84482272.0,9.340065002,-3.269381523,0.428574562,0.010652542,-0.002130508,-0.017044067,-0.350317001,0.473749161,0.543751717,0.597613335
381,84482288.0,9.250279427,-3.245438576,0.427377701,0.015978813,0.017044067,-0.005326271,-0.350317001,0.473749161,0.543751717,0.597613335
382,84482312.0,9.217957497,-3.261001587,0.442940712,0.009587288,0.015978813,0.005326271,-0.350317001,0.473749161,0.543751717,0.597613335
383,84482328.0,9.217957497,-3.271776199,0.484840393,0.017044067,0.011717796,0.003195763,-0.350317001,0.473749161,0.543751717,0.597613335
384,84482352.0,9.325699806,-3.0682621,0.448925972,0.046872139,0.001065254,0.012783051,-0.350317001,0.473749161,0.543751717,0.597613335
385,84482368.0,9.234717369,-3.032348633,0.454912186,-0.006391525,0.005326271,0.024501801,-0.350317001,0.473749161,0.543751717,0.597613335
386,84482392.0,9.107820511,-3.227481842,0.420194626,-0.092679977,0.026632309,0.033023834,-0.350317001,0.473749161,0.543751717,0.597613335
387,84482408.0,9.228731155,-3.284944534,0.334000587,-0.061786652,0.011717796,0.015978813,-0.350317001,0.473749161,0.543751717,0.597613335
388,84482432.0,9.313728333,-3.142484665,0.420194626,0.029828072,0.003195763,-0.003195763,-0.350317001,0.473749161,0.543751717,0.597613335
389,84482448.0,9.226337433,-3.111359596,0.454912186,0.027697563,0.009587288,0.006391525,-0.350317001,0.473749161,0.543751717,0.597613335
390,84482472.0,9.10662365,-3.205933571,0.339986801,-0.006391525,0.006391525,0.011717796,-0.350317001,0.473749161,0.543751717,0.597613335
391,84482488.0,9.192817688,-3.176005363,0.43815136,0.024501801,-0.008522034,0.004261017,-0.350317001,0.473749161,0.543751717,0.597613335
392,84482512.0,9.324501991,-3.020377159,0.420194626,0.058590889,-0.014913559,-0.010652542,-0.350317001,0.473749161,0.543751717,0.597613335
393,84482528.0,9.274222374,-3.02157402,0.410617828,0.011717796,-0.006391525,-0.002130508,-0.350317001,0.473749161,0.543751717,0.597613335
394,84482552.0,9.161691666,-3.197553635,0.423786163,-0.049003601,0.011717796,-0.003195763,-0.350317001,0.473749161,0.543751717,0.597613335
395,84482568.0,9.141340256,-3.247833252,0.383083344,-0.024501801,-0.003195763,-0.007456779,-0.350317001,0.473749161,0.543751717,0.597613335
396,84482592.0,9.2622509,-3.106571198,0.446531296,0.064982414,-0.017044067,-0.024501801,-0.350317001,0.473749161,0.543751717,0.597613335
397,84482608.0,9.330488205,-3.00122261,0.469277382,0.078831673,-0.025567055,-0.02023983,-0.350317001,0.473749161,0.543751717,0.597613335
398,84482632.0,9.305348396,-3.14368248,0.383083344,0.003195763,-0.015978813,-0.006391525,-0.350317001,0.473749161,0.543751717,0.597613335
399,84482648.0,9.245491028,-3.271776199,0.442940712,-0.003195763,-0.007456779,-0.014913559,-0.350317001,0.473749161,0.543751717,0.597613335
400,84482672.0,9.186831474,-3.106571198,0.526740074,-0.003195763,-0.007456779,-0.014913559,-0.350317001,0.473749161,0.543751717,0.597613335
401,84482672.0,9.186831474,-3.106571198,0.526740074,-0.003195763,-0.007456779,-0.014913559,-0.350317001,0.473749161,0.543751717,0.597613335
402,84482688.0,9.222745895,-3.037137032,0.477657318,-0.003195763,-0.007456779,-0.014913559,-0.350317001,0.473749161,0.543751717,0.597613335
403,84482688.0,9.222745895,-3.037137032,0.477657318,-0.003195763,-0.007456779,-0.014913559,-0.350317001,0.473749161,0.543751717,0.597613335
404,84482712.0,9.3496418,-3.137696266,0.469277382,-0.003195763,-0.007456779,-0.014913559,-0.350317001,0.473749161,0.543751717,0.597613335
405,84482712.0,9.3496418,-3.137696266,0.469277382,-0.003195763,-0.007456779,-0.014913559,-0.350317001,0.473749161,0.543751717,0.597613335
406,84482728.0,9.287390709,-3.174807549,0.494417191,-0.003195763,-0.007456779,-0.014913559,-0.350317001,0.473749161,0.543751717,0.597613335
407,84482728.0,9.287390709,-3.174807549,0.494417191,-0.003195763,-0.007456779,-0.014913559,-0.350317001,0.473749161,0.543751717,0.597613335
408,84482752.0,9.182043076,-3.192765236,0.445334435,-0.003195763,-0.007456779,-0.014913559,-0.350317001,0.473749161,0.543751717,0.597613335
409,84482752.0,9.182043076,-3.192765236,0.445334435,-0.003195763,-0.007456779,-0.014913559,-0.350317001,0.473749161,0.543751717,0.597613335
410,84482768.0,9.267040253,-3.179595947,0.486037254,0.047938347,-0.009587288,-0.036219597,-0.350317001,0.473749161,0.543751717,0.597613335
411,84482792.0,9.330488205,-3.118542671,0.446531296,0.053264618,-0.007456779,-0.034089088,-0.350317001,0.473749161,0.543751717,0.597613335
412,84482808.0,9.228731155,-3.202342033,0.457305908,0.012783051,0.006391525,-0.021305084,-0.350317001,0.473749161,0.543751717,0.597613335
413,84482832.0,9.162888527,-3.289732933,0.450122833,0.001065254,0.002130508,-0.017044067,-0.350317001,0.473749161,0.543751717,0.597613335
414,84482848.0,9.211971283,-3.197553635,0.471672058,0.057525635,-0.012783051,-0.011717796,-0.350317001,0.473749161,0.543751717,0.597613335
415,84482872.0,9.318516731,-3.032348633,0.480051994,0.057525635,-0.012783051,-0.011717796,-0.350317001,0.473749161,0.543751717,0.597613335
416,84482888.0,9.286193848,-3.087416649,0.472868919,0.057525635,-0.012783051,-0.011717796,-0.350317001,0.473749161,0.543751717,0.597613335
417,84482912.0,9.190423012,-3.180793762,0.427377701,0.057525635,-0.012783051,-0.011717796,-0.350317001,0.473749161,0.543751717,0.597613335
418,84482928.0,9.250279427,-3.173610687,0.429771423,0.057525635,-0.012783051,-0.011717796,-0.350317001,0.473749161,0.543751717,0.597613335
419,84482944.0,9.30295372,-3.052700043,0.434560776,0.057525635,-0.012783051,-0.011717796,-0.350317001,0.473749161,0.543751717,0.597613335
420,84482968.0,9.307742119,-3.092205048,0.386674881,-0.002130508,-0.004261017,0.001065254,-0.350317001,0.473749161,0.543751717,0.597613335
421,84482992.0,9.23591423,-3.181990623,0.418997765,-0.038350105,0.0,0.010652542,-0.350317001,0.473749161,0.543751717,0.597613335
422,84483008.0,9.170071602,-3.144879341,0.404631615,-0.002130508,0.0,0.004261017,-0.350317001,0.473749161,0.543751717,0.597613335
423,84483024.0,9.211971283,-3.093402863,0.440546036,0.035154343,-0.010652542,-0.006391525,-0.350317001,0.473749161,0.543751717,0.597613335
424,84483048.0,9.27661705,-3.025165558,0.445334435,0.036219597,-0.011717796,-0.005326271,-0.350317001,0.473749161,0.543751717,0.597613335
425,84483264.0,9.216759682,-3.173610687,0.446531296,-0.028762817,-0.001065254,0.02023983,-0.357481003,0.469648361,0.549146652,0.591657639
426,84483264.0,9.216759682,-3.173610687,0.446531296,-0.028762817,-0.001065254,0.02023983,-0.357481003,0.469648361,0.549146652,0.591657639
427,84483288.0,9.186831474,-3.144879341,0.451320648,-0.012783051,-0.001065254,0.012783051,-0.357481003,0.469648361,0.549146652,0.591657639
428,84483288.0,9.186831474,-3.144879341,0.451320648,-0.012783051,-0.001065254,0.012783051,-0.357481003,0.469648361,0.549146652,0.591657639
429,84483304.0,9.299362183,-3.091008186,0.448925972,0.015978813,-0.012783051,0.012783051,-0.357481003,0.469648361,0.549146652,0.591657639
430,84483304.0,9.299362183,-3.091008186,0.448925972,0.015978813,-0.012783051,0.012783051,-0.357481003,0.469648361,0.549146652,0.591657639
431,84483328.0,9.308939934,-3.045516968,0.459700584,-0.007456779,-0.004261017,0.010652542,-0.357481003,0.469648361,0.549146652,0.591657639
432,84483328.0,9.308939934,-3.045516968,0.459700584,-0.007456779,-0.004261017,0.010652542,-0.357481003,0.469648361,0.549146652,0.591657639
433,84483344.0,9.185634613,-3.19037056,0.408223152,-0.038350105,0.007456779,0.004261017,-0.357481003,0.469648361,0.549146652,0.591657639
434,84483344.0,9.185634613,-3.19037056,0.408223152,-0.038350105,0.007456779,0.004261017,-0.357481003,0.469648361,0.549146652,0.591657639
435,84483368.0,9.182043076,-3.148470879,0.459700584,-0.015978813,0.008522034,0.0,-0.357481003,0.469648361,0.549146652,0.591657639
436,84483384.0,9.341261864,-3.014390945,0.409420967,0.030893326,-0.007456779,-0.003195763,-0.357481003,0.469648361,0.549146652,0.591657639
437,84483408.0,9.311333656,-3.069459915,0.42618084,-0.013848305,0.0,-0.003195763,-0.357481003,0.469648361,0.549146652,0.591657639
438,84483424.0,9.188028336,-3.244241714,0.373506546,-0.035154343,0.022370338,-0.014913559,-0.357481003,0.469648361,0.549146652,0.591657639
439,84483448.0,9.253870964,-3.122134209,0.459700584,0.024501801,0.001065254,-0.019174576,-0.357481003,0.469648361,0.549146652,0.591657639
440,84483464.0,9.299362183,-3.033545494,0.38547802,0.024501801,0.001065254,-0.019174576,-0.357481003,0.469648361,0.549146652,0.591657639
441,84483488.0,9.312531471,-3.193962097,0.384280205,0.024501801,0.001065254,-0.019174576,-0.357481003,0.469648361,0.549146652,0.591657639
442,84483504.0,9.219154358,-3.263396263,0.403434753,0.024501801,0.001065254,-0.019174576,-0.357481003,0.469648361,0.549146652,0.591657639
443,84483528.0,9.141340256,-3.148470879,0.459700584,0.024501801,0.001065254,-0.019174576,-0.357481003,0.469648361,0.549146652,0.591657639
444,84483544.0,9.214365959,-3.166427612,0.468080521,0.024501801,0.001065254,-0.019174576,-0.357481003,0.469648361,0.549146652,0.591657639
445,84483568.0,9.318516731,-3.12931633,0.414209366,0.003195763,-0.011717796,0.001065254,-0.357481003,0.469648361,0.549146652,0.591657639
446,84483584.0,9.289785385,-3.089811325,0.435757637,-0.014913559,-0.003195763,0.015978813,-0.357481003,0.469648361,0.549146652,0.591657639
447,84483608.0,9.166480064,-3.240650177,0.439349174,-0.046872139,0.012783051,0.015978813,-0.357481003,0.469648361,0.549146652,0.591657639
448,84483624.0,9.247885704,-3.189173698,0.40582943,-0.005326271,-0.004261017,0.001065254,-0.357481003,0.469648361,0.549146652,0.591657639
449,84483648.0,9.338868141,-3.031151772,0.441742897,0.054329872,-0.013848305,-0.007456779,-0.357481003,0.469648361,0.549146652,0.591657639
450,84483664.0,9.308939934,-3.033545494,0.444137573,0.004261017,-0.001065254,0.001065254,-0.357481003,0.469648361,0.549146652,0.591657639
451,84483688.0,9.213168144,-3.198750496,0.397449493,-0.066047668,0.008522034,0.017044067,-0.357481003,0.469648361,0.549146652,0.591657639
452,84483704.0,9.164086342,-3.203538895,0.387871742,-0.047938347,0.007456779,0.013848305,-0.357481003,0.469648361,0.549146652,0.591657639
453,84483728.0,9.22992897,-3.117344856,0.395054817,0.021305084,-0.004261017,0.003195763,-0.357481003,0.469648361,0.549146652,0.591657639
454,84483744.0,9.331685066,-3.011997223,0.442940712,0.029828072,-0.012783051,0.0,-0.357481003,0.469648361,0.549146652,0.591657639
455,84483768.0,9.29696846,-3.104176521,0.423786163,0.029828072,-0.012783051,0.0,-0.357481003,0.469648361,0.549146652,0.591657639
456,84483784.0,9.239505768,-3.124527931,0.398646355,0.029828072,-0.012783051,0.0,-0.357481003,0.469648361,0.549146652,0.591657639
457,84483808.0,9.244294167,-3.181990623,0.387871742,0.029828072,-0.012783051,0.0,-0.357481003,0.469648361,0.549146652,0.591657639
458,84483824.0,9.274222374,-3.217905045,0.378294945,0.029828072,-0.012783051,0.0,-0.357481003,0.469648361,0.549146652,0.591657639
459,84483848.0,9.283800125,-3.138894081,0.386674881,0.029828072,-0.012783051,0.0,-0.357481003,0.469648361,0.549146652,0.591657639
460,84483864.0,9.225139618,-3.114951134,0.416603088,-0.011717796,0.002130508,-0.001065254,-0.357481003,0.469648361,0.549146652,0.591657639
461,84483888.0,9.208379745,-3.1843853,0.396251678,-0.047938347,0.005326271,0.001065254,-0.357481003,0.469648361,0.549146652,0.591657639
462,84483904.0,9.24189949,-3.14966774,0.448925972,-0.035154343,-0.003195763,0.004261017,-0.357481003,0.469648361,0.549146652,0.591657639
463,84483928.0,9.27661705,-3.106571198,0.433362961,-0.033023834,-0.001065254,0.006391525,-0.357481003,0.469648361,0.549146652,0.591657639
464,84483944.0,9.237111092,-3.177202225,0.446531296,-0.070308685,0.009587288,0.011717796,-0.357481003,0.469648361,0.549146652,0.591657639
465,84483968.0,9.204788208,-3.275367737,0.415406227,-0.070308685,0.009587288,0.011717796,-0.357481003,0.469648361,0.549146652,0.591657639
466,84483968.0,9.204788208,-3.275367737,0.415406227,-0.070308685,0.009587288,0.011717796,-0.357481003,0.469648361,0.549146652,0.591657639
467,84483984.0,9.249082565,-3.322055817,0.377098083,-0.070308685,0.009587288,0.011717796,-0.357481003,0.469648361,0.549146652,0.591657639
468,84483984.0,9.249082565,-3.322055817,0.377098083,-0.070308685,0.009587288,0.011717796,-0.357481003,0.469648361,0.549146652,0.591657639
469,84484000.0,9.307742119,-3.176005363,0.396251678,-0.070308685,0.009587288,0.011717796,-0.357481003,0.469648361,0.549146652,0.591657639
470,84484000.0,9.307742119,-3.176005363,0.396251678,-0.070308685,0.009587288,0.011717796,-0.357481003,0.469648361,0.549146652,0.591657639
471,84484024.0,9.263448715,-3.050305367,0.434560776,-0.070308685,0.009587288,0.011717796,-0.357481003,0.469648361,0.549146652,0.591657639
472,84484024.0,9.263448715,-3.050305367,0.434560776,-0.070308685,0.009587288,0.011717796,-0.357481003,0.469648361,0.549146652,0.591657639
473,84484048.0,9.148523331,-3.211918831,0.379491806,-0.070308685,0.009587288,0.011717796,-0.357481003,0.469648361,0.549146652,0.591657639
474,84484048.0,9.148523331,-3.211918831,0.379491806,-0.070308685,0.009587288,0.011717796,-0.357481003,0.469648361,0.549146652,0.591657639
475,84484168.0,9.24189949,-3.255016327,0.306467056,0.045806885,-0.011717796,0.021305084,-0.352993011,0.470641136,0.546858788,0.595714569
476,84484184.0,9.318516731,-3.39508152,0.271749496,0.045806885,-0.011717796,0.021305084,-0.353294373,0.47003746,0.547204018,0.595671654
477,84484208.0,9.36999321,-3.464514732,0.290904045,0.045806885,-0.011717796,0.021305084,-0.353769302,0.469174385,0.547808647,0.595541954
478,84484224.0,9.438230515,-3.803304672,0.448925972,0.045806885,-0.011717796,0.021305084,-0.354416847,0.467793465,0.548671722,0.595412254
479,84484240.0,9.68843174,-4.453350067,0.567442894,0.045806885,-0.011717796,0.021305084,-0.355194092,0.466282845,0.549491882,0.595412254
480,84484368.0,11.49610996,-13.10625935,0.671593666,-0.018109322,-0.35367775,1.396603584,-0.351093292,0.43732357,0.565935135,0.604346275
481,84484384.0,13.0823164,-17.20765305,1.115731239,-0.018109322,-0.35367775,1.396603584,-0.351093292,0.43732357,0.565935135,0.604346275
482,84484400.0,14.75471783,-19.42834091,-0.811658859,-0.018109322,-0.35367775,1.396603584,-0.351093292,0.43732357,0.565935135,0.604346275
483,84484424.0,17.57038498,-20.56562233,-3.490852356,-0.018109322,-0.35367775,1.396603584,-0.351093292,0.43732357,0.565935135,0.604346275
484,84484440.0,20.59794617,-20.67216873,-4.931008339,-0.018109322,-0.35367775,1.396603584,-0.351093292,0.43732357,0.565935135,0.604346275
485,84484464.0,19.7276268,-29.27000809,-9.253870964,-1.613924026,-1.738564491,7.438967705,-0.351093292,0.43732357,0.565935135,0.604346275
486,84484480.0,22.23443222,-32.80036545,-11.69483471,1.660797119,-2.834754944,9.004954338,-0.351093292,0.43732357,0.565935135,0.604346275
487,84484504.0,25.04291534,-23.86852455,-6.821288109,5.001568794,-3.124515533,9.809253693,-0.351093292,0.43732357,0.565935135,0.604346275
488,84484520.0,21.18334579,-18.4945755,-5.637319565,4.57971096,-1.746021271,10.80424118,-0.351093292,0.43732357,0.565935135,0.604346275
489,84484544.0,20.57160759,-20.69012451,-10.28580379,2.113548279,-1.448802948,12.1347971,-0.351093292,0.43732357,0.565935135,0.604346275
490,84484664.0,16.65577126,19.3972168,-3.258607864,3.728538513,-1.155846596,12.79101944,-0.351093292,0.43732357,0.565935135,0.604346275
491,84484664.0,16.65577126,19.3972168,-3.258607864,3.728538513,-1.155846596,12.79101944,-0.351093292,0.43732357,0.565935135,0.604346275
492,84484680.0,10.43305111,21.90880966,1.739439964,3.728538513,-1.155846596,12.79101944,-0.351093292,0.43732357,0.565935135,0.604346275
493,84484680.0,10.43305111,21.90880966,1.739439964,3.728538513,-1.155846596,12.79101944,-0.351093292,0.43732357,0.565935135,0.604346275
494,84484704.0,1.188756943,22.29309082,1.999218941,3.728538513,-1.155846596,12.79101944,-0.351093292,0.43732357,0.565935135,0.604346275
495,84484704.0,1.188756943,22.29309082,1.999218941,3.728538513,-1.155846596,12.79101944,-0.351093292,0.43732357,0.565935135,0.604346275
496,84484720.0,0.037110329,16.4079628,1.637683868,3.728538513,-1.155846596,12.79101944,-0.351093292,0.43732357,0.565935135,0.604346275
497,84484720.0,0.037110329,16.4079628,1.637683868,3.728538513,-1.155846596,12.79101944,-0.351093292,0.43732357,0.565935135,0.604346275
498,84484744.0,4.95255661,10.28819752,0.049081802,3.728538513,-1.155846596,12.79101944,-0.351093292,0.43732357,0.565935135,0.604346275
499,84484744.0,4.95255661,10.28819752,0.049081802,3.728538513,-1.155846596,12.79101944,-0.351093292,0.43732357,0.565935135,0.604346275
500,84484864.0,9.293376923,3.515992165,-1.255796432,-1.723649979,0.658352852,-7.531648636,-0.351093292,0.43732357,0.565935135,0.604346275
501,84484864.0,9.293376923,3.515992165,-1.255796432,-1.723649979,0.658352852,-7.531648636,-0.351093292,0.43732357,0.565935135,0.604346275
502,84484864.0,9.293376923,3.515992165,-1.255796432,-1.723649979,0.658352852,-7.531648636,-0.351093292,0.43732357,0.565935135,0.604346275
503,84484880.0,10.85683823,2.637292862,-1.525152206,-2.101830482,1.075949669,-8.723715782,-0.351093292,0.43732357,0.565935135,0.604346275
504,84484880.0,10.85683823,2.637292862,-1.525152206,-2.101830482,1.075949669,-8.723715782,-0.351093292,0.43732357,0.565935135,0.604346275
505,84484880.0,10.85683823,2.637292862,-1.525152206,-2.101830482,1.075949669,-8.723715782,-0.351093292,0.43732357,0.565935135,0.604346275
506,84484904.0,12.15094376,2.318854332,-1.756199837,-1.910077095,1.574508667,-9.892347336,-0.351093292,0.43732357,0.565935135,0.604346275
507,84484904.0,12.15094376,2.318854332,-1.756199837,-1.910077095,1.574508667,-9.892347336,-0.351093292,0.43732357,0.565935135,0.604346275
508,84484904.0,12.15094376,2.318854332,-1.756199837,-1.910077095,1.574508667,-9.892347336,-0.351093292,0.43732357,0.565935135,0.604346275
509,84484920.0,14.56916142,1.500012398,-1.409029961,-1.846158981,1.914338112,-10.87561607,-0.351093292,0.43732357,0.565935135,0.604346275
510,84484920.0,14.56916142,1.500012398,-1.409029961,-1.846158981,1.914338112,-10.87561607,-0.351093292,0.43732357,0.565935135,0.604346275
511,84484920.0,14.56916142,1.500012398,-1.409029961,-1.846158981,1.914338112,-10.87561607,-0.351093292,0.43732357,0.565935135,0.604346275
512,84484944.0,18.22402191,0.124502182,-2.014781952,-2.102895737,2.002758026,-11.84077454,-0.351093292,0.43732357,0.565935135,0.604346275
513,84484944.0,18.22402191,0.124502182,-2.014781952,-2.102895737,2.002758026,-11.84077454,-0.351093292,0.43732357,0.565935135,0.604346275
514,84484944.0,18.22402191,0.124502182,-2.014781952,-2.102895737,2.002758026,-11.84077454,-0.351093292,0.43732357,0.565935135,0.604346275
515,84485064.0,36.66472626,-39.22660065,-21.18573952,-4.540294647,0.207732201,-18.80462074,-0.351093292,0.43732357,0.565935135,0.604346275
516,84485080.0,-8.588262558,-16.74555588,-6.355601311,-4.540294647,0.207732201,-18.80462074,-0.351093292,0.43732357,0.565935135,0.604346275
517,84485104.0,-7.404294014,22.8449707,22.31942749,-4.540294647,0.207732201,-18.80462074,-0.351093292,0.43732357,0.565935135,0.604346275
518,84485120.0,7.166063309,-39.22660065,-28.98389244,-4.540294647,0.207732201,-18.80462074,-0.351093292,0.43732357,0.565935135,0.604346275
519,84485136.0,16.60309792,-25.92999458,-2.607364655,-4.540294647,0.207732201,-18.80462074,-0.351093292,0.43732357,0.565935135,0.604346275
520,84485264.0,13.62102795,-1.746623039,1.373116493,3.330118179,-0.496427536,0.621068001,-0.351093292,0.43732357,0.565935135,0.604346275
521,84485280.0,9.475341797,-2.230266571,1.525152206,2.450182915,0.129965782,0.621068001,-0.351093292,0.43732357,0.565935135,0.604346275
522,84485296.0,8.385946274,-0.878698349,1.082211494,0.925742149,0.122509003,0.871412277,-0.351093292,0.43732357,0.565935135,0.604346275
523,84485320.0,10.64494514,-0.059856415,-0.311255455,-0.271650314,-0.306804657,1.203784943,-0.351093292,0.43732357,0.565935135,0.604346275
524,84485344.0,11.15612221,-1.158828735,-0.969680786,-1.345469475,-0.185360909,1.303922653,-0.351093292,0.43732357,0.565935135,0.604346275
525,84485360.0,9.973350525,-1.648457527,-0.28372097,-1.619251251,0.167251587,1.442411423,-0.351093292,0.43732357,0.565935135,0.604346275
526,84485376.0,9.107820511,-1.784931183,-0.439349174,-1.028011322,0.099072456,1.374232292,-0.351093292,0.43732357,0.565935135,0.604346275
527,84485400.0,8.76783371,-2.097384453,-0.195133209,-0.303608894,-0.006391525,1.193132401,-0.351093292,0.43732357,0.565935135,0.604346275
528,84485416.0,8.517631531,-2.08062458,0.296889305,0.136357307,-0.017044067,0.887392044,-0.351093292,0.43732357,0.565935135,0.604346275
529,84485440.0,8.554742813,-1.667612076,0.160415649,0.3898983,-0.021305084,0.613610268,-0.351093292,0.43732357,0.565935135,0.604346275
530,84485456.0,8.76783371,-1.789719582,-0.019153595,0.3898983,-0.021305084,0.613610268,-0.351093292,0.43732357,0.565935135,0.604346275
531,84485456.0,8.76783371,-1.789719582,-0.019153595,0.3898983,-0.021305084,0.613610268,-0.351093292,0.43732357,0.565935135,0.604346275
532,84485480.0,8.681639671,-2.26139164,-0.088587761,0.3898983,-0.021305084,0.613610268,-0.351093292,0.43732357,0.565935135,0.604346275
533,84485480.0,8.681639671,-2.26139164,-0.088587761,0.3898983,-0.021305084,0.613610268,-0.351093292,0.43732357,0.565935135,0.604346275
534,84485496.0,9.041977882,-2.774964333,0.258581161,0.3898983,-0.021305084,0.613610268,-0.351093292,0.43732357,0.565935135,0.604346275
535,84485496.0,9.041977882,-2.774964333,0.258581161,0.3898983,-0.021305084,0.613610268,-0.351093292,0.43732357,0.565935135,0.604346275
536,84485520.0,9.35802269,-2.893480301,0.30407238,0.3898983,-0.021305084,0.613610268,-0.351093292,0.43732357,0.565935135,0.604346275
537,84485520.0,9.35802269,-2.893480301,0.30407238,0.3898983,-0.021305084,0.613610268,-0.351093292,0.43732357,0.565935135,0.604346275
538,84485536.0,9.190423012,-2.739049911,0.167598724,0.3898983,-0.021305084,0.613610268,-0.351093292,0.43732357,0.565935135,0.604346275
539,84485536.0,9.190423012,-2.739049911,0.167598724,0.3898983,-0.021305084,0.613610268,-0.351093292,0.43732357,0.565935135,0.604346275
540,84485560.0,9.153311729,-2.891086578,0.225061417,0.040480614,-0.090549469,0.227972984,-0.351093292,0.43732357,0.565935135,0.604346275
541,84485576.0,9.231125832,-3.01558876,0.357943535,0.019174576,-0.112920761,0.208797455,-0.351093292,0.43732357,0.565935135,0.604346275
542,84485600.0,9.207182884,-2.706727028,0.356746674,0.102268219,-0.103333473,0.192818642,-0.351093292,0.43732357,0.565935135,0.604346275
543,84485616.0,9.068314552,-2.686375618,0.442940712,0.096941948,-0.086288452,0.175773621,-0.351093292,0.43732357,0.565935135,0.604346275
544,84485640.0,8.985712051,-3.180793762,0.445334435,-0.052199364,-0.093745232,0.127835274,-0.351093292,0.43732357,0.565935135,0.604346275
545,84485664.0,8.931840897,-3.494443893,0.450122833,-0.086288452,-0.110790253,0.07563591,-0.351093292,0.43732357,0.565935135,0.604346275
546,84485680.0,9.101835251,-3.239453316,0.462094307,0.086288452,-0.122509003,0.030893326,-0.351093292,0.43732357,0.565935135,0.604346275
547,84485696.0,9.292180061,-3.067065239,0.363929749,0.174708366,-0.143815041,0.006391525,-0.351093292,0.43732357,0.565935135,0.604346275
548,84485720.0,9.216759682,-3.332829475,0.402237892,0.042611122,-0.112920761,-0.021305084,-0.351093292,0.43732357,0.565935135,0.604346275
549,84485736.0,9.167676926,-3.537540436,0.474065781,-0.046872139,-0.108659744,-0.044741631,-0.351093292,0.43732357,0.565935135,0.604346275
550,84485856.0,9.172466278,-3.269381523,0.549485207,-0.046872139,-0.108659744,-0.044741631,-0.347123146,0.478754997,0.522776604,0.614013672
551,84485880.0,9.109017372,-3.656057358,0.511177063,-0.046872139,-0.108659744,-0.044741631,-0.347123146,0.478754997,0.522776604,0.614013672
552,84485896.0,9.115003586,-4.140897751,0.332803726,-0.046872139,-0.108659744,-0.044741631,-0.347123146,0.478754997,0.522776604,0.614013672
553,84485920.0,9.111412048,-4.144489288,0.4321661,-0.046872139,-0.108659744,-0.044741631,-0.347123146,0.478754997,0.522776604,0.614013672
554,84485936.0,9.040781021,-3.743448257,0.422589302,-0.046872139,-0.108659744,-0.044741631,-0.347123146,0.478754997,0.522776604,0.614013672
555,84485960.0,8.989303589,-3.76619339,0.395054817,0.156598091,-0.088418961,-0.069243431,-0.347123146,0.478754997,0.522776604,0.614013672
556,84485960.0,8.989303589,-3.76619339,0.395054817,0.156598091,-0.088418961,-0.069243431,-0.347123146,0.478754997,0.522776604,0.614013672
557,84485976.0,9.056344032,-3.973298073,0.474065781,0.128900528,-0.091614723,-0.041545868,-0.347123146,0.478754997,0.522776604,0.614013672
558,84485976.0,9.056344032,-3.973298073,0.474065781,0.128900528,-0.091614723,-0.041545868,-0.347123146,0.478754997,0.522776604,0.614013672
559,84486000.0,9.205986023,-3.730279922,0.519556999,0.192818642,-0.093745232,-0.039415359,-0.347123146,0.478754997,0.522776604,0.614013672
560,84486000.0,9.205986023,-3.730279922,0.519556999,0.192818642,-0.093745232,-0.039415359,-0.347123146,0.478754997,0.522776604,0.614013672
561,84486016.0,9.263448715,-3.515992165,0.527936935,0.206666946,-0.085223198,-0.038350105,-0.347123146,0.478754997,0.522776604,0.614013672
562,84486016.0,9.263448715,-3.515992165,0.527936935,0.206666946,-0.085223198,-0.038350105,-0.347123146,0.478754997,0.522776604,0.614013672
563,84486032.0,9.166480064,-3.611763,0.369915009,0.051134109,-0.038350105,-0.004261017,-0.347123146,0.478754997,0.522776604,0.614013672
564,84486032.0,9.166480064,-3.611763,0.369915009,0.051134109,-0.038350105,-0.004261017,-0.347123146,0.478754997,0.522776604,0.614013672
565,84486056.0,9.085075378,-3.848795891,0.337592125,0.051134109,-0.038350105,-0.004261017,-0.347123146,0.478754997,0.522776604,0.614013672
566,84486080.0,9.01923275,-3.943369865,0.384280205,0.051134109,-0.038350105,-0.004261017,-0.347123146,0.478754997,0.522776604,0.614013672
567,84486096.0,9.141340256,-3.802107811,0.384280205,0.051134109,-0.038350105,-0.004261017,-0.347123146,0.478754997,0.522776604,0.614013672
568,84486120.0,9.237111092,-3.616551399,0.252595901,0.051134109,-0.038350105,-0.004261017,-0.347123146,0.478754997,0.522776604,0.614013672
569,84486136.0,9.097045898,-3.630917549,0.227456093,0.051134109,-0.038350105,-0.004261017,-0.347123146,0.478754997,0.522776604,0.614013672
570,84486256.0,8.935432434,-3.839219093,0.053871155,-0.061786652,0.030893326,0.039415359,-0.347123146,0.478754997,0.522776604,0.614013672
571,84486256.0,8.935432434,-3.839219093,0.053871155,-0.061786652,0.030893326,0.039415359,-0.347123146,0.478754997,0.522776604,0.614013672
572,84486280.0,9.041977882,-3.615354538,0.100559235,0.057525635,0.019174576,0.022370338,-0.347123146,0.478754997,0.522776604,0.614013672
573,84486280.0,9.041977882,-3.615354538,0.100559235,0.057525635,0.019174576,0.022370338,-0.347123146,0.478754997,0.522776604,0.614013672
574,84486296.0,9.185634613,-3.480077744,0.079010963,0.102268219,-0.003195763,0.022370338,-0.347123146,0.478754997,0.522776604,0.614013672
575,84486296.0,9.185634613,-3.480077744,0.079010963,0.102268219,-0.003195763,0.022370338,-0.347123146,0.478754997,0.522776604,0.614013672
576,84486320.0,9.182043076,-3.544723511,0.034716606,0.03195858,-0.014913559,0.029828072,-0.347123146,0.478754997,0.522776604,0.614013672
577,84486320.0,9.182043076,-3.544723511,0.034716606,0.03195858,-0.014913559,0.029828072,-0.347123146,0.478754997,0.522776604,0.614013672
578,84486336.0,9.049160957,-3.681197166,0.019153595,-0.006391525,-0.005326271,0.024501801,-0.347123146,0.478754997,0.522776604,0.614013672
579,84486336.0,9.049160957,-3.681197166,0.019153595,-0.006391525,-0.005326271,0.024501801,-0.347123146,0.478754997,0.522776604,0.614013672
580,84486352.0,9.070709229,-3.598594666,0.056264877,-0.006391525,-0.005326271,0.024501801,-0.347123146,0.478754997,0.522776604,0.614013672
581,84486376.0,9.188028336,-3.425009727,0.136473656,-0.006391525,-0.005326271,0.024501801,-0.347123146,0.478754997,0.522776604,0.614013672
582,84486392.0,9.094652176,-3.561483383,0.187950134,-0.006391525,-0.005326271,0.024501801,-0.347123146,0.478754997,0.522776604,0.614013672
583,84486416.0,9.003669739,-3.71950531,0.122107506,-0.006391525,-0.005326271,0.024501801,-0.347123146,0.478754997,0.522776604,0.614013672
584,84486432.0,8.985712051,-3.685985565,0.171190262,-0.006391525,-0.005326271,0.024501801,-0.347123146,0.478754997,0.522776604,0.614013672
585,84486456.0,9.037189484,-3.592608452,0.209498405,-0.006391525,-0.005326271,0.024501801,-0.347123146,0.478754997,0.522776604,0.614013672
586,84486480.0,9.079089165,-3.679999352,0.27773571,-0.006391525,-0.005326271,0.024501801,-0.347123146,0.478754997,0.522776604,0.614013672
587,84486496.0,9.007261276,-3.738659859,0.320832253,-0.006391525,-0.005326271,0.024501801,-0.347123146,0.478754997,0.522776604,0.614013672
588,84486512.0,9.024021149,-3.539935112,0.347168922,-0.006391525,-0.005326271,0.024501801,-0.347123146,0.478754997,0.522776604,0.614013672
589,84486536.0,9.058737755,-3.603383064,0.281327248,-0.006391525,-0.005326271,0.024501801,-0.347123146,0.478754997,0.522776604,0.614013672
590,84486560.0,9.188028336,-3.775771141,0.240624428,-0.022370338,-0.039415359,0.004261017,-0.347123146,0.478754997,0.522776604,0.614013672
591,84486576.0,9.06592083,-3.772179604,0.262172699,0.008522034,-0.023435593,0.003195763,-0.347123146,0.478754997,0.522776604,0.614013672
592,84486592.0,9.007261276,-3.599791527,0.393857956,0.067112923,-0.010652542,-0.003195763,-0.347123146,0.478754997,0.522776604,0.614013672
593,84486616.0,9.141340256,-3.553103447,0.275341034,0.023435593,-0.022370338,0.007456779,-0.347123146,0.478754997,0.522776604,0.614013672
594,84486632.0,9.154508591,-3.689577103,0.26336956,-0.037284851,-0.010652542,0.017044067,-0.347123146,0.478754997,0.522776604,0.614013672
595,84486656.0,8.965361595,-3.753025055,0.229849815,-0.037284851,-0.010652542,0.017044067,-0.347123146,0.478754997,0.522776604,0.614013672
596,84486656.0,8.965361595,-3.753025055,0.229849815,-0.037284851,-0.010652542,0.017044067,-0.347123146,0.478754997,0.522776604,0.614013672
597,84486672.0,8.967755318,-3.644085884,0.306467056,-0.037284851,-0.010652542,0.017044067,-0.347123146,0.478754997,0.522776604,0.614013672
598,84486672.0,8.967755318,-3.644085884,0.306467056,-0.037284851,-0.010652542,0.017044067,-0.347123146,0.478754997,0.522776604,0.614013672
599,84486696.0,9.147326469,-3.563877106,0.240624428,-0.037284851,-0.010652542,0.017044067,-0.347123146,0.478754997,0.522776604,0.614013672
600,84486696.0,9.147326469,-3.563877106,0.240624428,-0.037284851,-0.010652542,0.017044067,-0.347123146,0.478754997,0.522776604,0.614013672
601,84486712.0,9.239505768,-3.541131973,0.19034481,-0.037284851,-0.010652542,0.017044067,-0.347123146,0.478754997,0.522776604,0.614013672
602,84486712.0,9.239505768,-3.541131973,0.19034481,-0.037284851,-0.010652542,0.017044067,-0.347123146,0.478754997,0.522776604,0.614013672
603,84486736.0,9.052752495,-3.666831017,0.211893082,-0.037284851,-0.010652542,0.017044067,-0.347123146,0.478754997,0.522776604,0.614013672
604,84486736.0,9.052752495,-3.666831017,0.211893082,-0.037284851,-0.010652542,0.017044067,-0.347123146,0.478754997,0.522776604,0.614013672
605,84486856.0,9.013246536,-3.761404991,0.202315331,-0.022370338,0.001065254,0.022370338,-0.339354515,0.461103439,0.542413712,0.614789963
606,84486872.0,9.070709229,-3.671619415,0.195133209,-0.022370338,0.001065254,0.022370338,-0.339354515,0.461103439,0.542413712,0.614789963
607,84486896.0,9.13296032,-3.580636978,0.19633007,-0.022370338,0.001065254,0.022370338,-0.339354515,0.461103439,0.542413712,0.614789963
608,84486912.0,9.0922575,-3.627326012,0.223864555,-0.022370338,0.001065254,0.022370338,-0.339354515,0.461103439,0.542413712,0.614789963
609,84486936.0,9.073103905,-3.646479607,0.197526932,-0.022370338,0.001065254,0.022370338,-0.339354515,0.461103439,0.542413712,0.614789963
610,84486952.0,9.061132431,-3.648874283,0.21668148,-0.019174576,0.0,0.006391525,-0.339354515,0.461103439,0.542413712,0.614789963
611,84486952.0,9.061132431,-3.648874283,0.21668148,-0.019174576,0.0,0.006391525,-0.339354515,0.461103439,0.542413712,0.614789963
612,84486976.0,9.046766281,-3.674014091,0.246609688,-0.026632309,0.003195763,0.001065254,-0.339354515,0.461103439,0.542413712,0.614789963
613,84486976.0,9.046766281,-3.674014091,0.246609688,-0.026632309,0.003195763,0.001065254,-0.339354515,0.461103439,0.542413712,0.614789963
614,84486992.0,8.956981659,-3.696759224,0.23703289,-0.015978813,0.015978813,0.006391525,-0.339354515,0.461103439,0.542413712,0.614789963
615,84486992.0,8.956981659,-3.696759224,0.23703289,-0.015978813,0.015978813,0.006391525,-0.339354515,0.461103439,0.542413712,0.614789963
616,84487016.0,9.053949356,-3.696759224,0.227456093,0.0,0.001065254,0.004261017,-0.339354515,0.461103439,0.542413712,0.614789963
617,84487016.0,9.053949356,-3.696759224,0.227456093,0.0,0.001065254,0.004261017,-0.339354515,0.461103439,0.542413712,0.614789963
618,84487032.0,9.173663139,-3.663239479,0.208301544,0.006391525,-0.010652542,0.004261017,-0.339354515,0.461103439,0.542413712,0.614789963
619,84487032.0,9.173663139,-3.663239479,0.208301544,0.006391525,-0.010652542,0.004261017,-0.339354515,0.461103439,0.542413712,0.614789963
620,84487152.0,8.997683525,-3.788939476,0.184358597,-0.047938347,0.008522034,0.006391525,-0.33685112,0.46015358,0.544226646,0.615307808
621,84487176.0,9.055146217,-3.82126236,0.215484619,-0.014913559,0.007456779,0.004261017,-0.33685112,0.46015358,0.544226646,0.615307808
622,84487192.0,9.165283203,-3.671619415,0.201118469,0.03195858,-0.003195763,0.003195763,-0.33685112,0.46015358,0.544226646,0.615307808
623,84487216.0,9.10662365,-3.610566139,0.220273018,0.018109322,0.007456779,0.017044067,-0.33685112,0.46015358,0.544226646,0.615307808
624,84487232.0,9.049160957,-3.747039795,0.177175522,-0.044741631,0.011717796,0.034089088,-0.33685112,0.46015358,0.544226646,0.615307808
625,84487352.0,8.980923653,-3.732673645,0.229849815,-0.044741631,0.011717796,0.034089088,-0.333873749,0.459592819,0.544960022,0.616732597
626,84487376.0,9.07190609,-3.662042618,0.213089943,-0.044741631,0.011717796,0.034089088,-0.333873749,0.459592819,0.544960022,0.616732597
627,84487392.0,9.057540894,-3.65845108,0.164007187,-0.044741631,0.011717796,0.034089088,-0.333873749,0.459592819,0.544960022,0.616732597
628,84487408.0,9.032401085,-3.664437294,0.217878342,-0.044741631,0.011717796,0.034089088,-0.333873749,0.459592819,0.544960022,0.616732597
629,84487432.0,9.069512367,-3.712322235,0.19633007,-0.044741631,0.011717796,0.034089088,-0.333873749,0.459592819,0.544960022,0.616732597
630,84487456.0,9.037189484,-3.735068321,0.204710007,-0.028762817,0.010652542,0.010652542,-0.333873749,0.459592819,0.544960022,0.616732597
631,84487456.0,9.037189484,-3.735068321,0.204710007,-0.028762817,0.010652542,0.010652542,-0.333873749,0.459592819,0.544960022,0.616732597
632,84487472.0,9.021626472,-3.706336975,0.202315331,0.009587288,0.012783051,0.003195763,-0.333873749,0.459592819,0.544960022,0.616732597
633,84487472.0,9.021626472,-3.706336975,0.202315331,0.009587288,0.012783051,0.003195763,-0.333873749,0.459592819,0.544960022,0.616732597
634,84487496.0,9.0048666,-3.640494347,0.23703289,0.021305084,0.003195763,-0.004261017,-0.333873749,0.459592819,0.544960022,0.616732597
635,84487496.0,9.0048666,-3.640494347,0.23703289,0.021305084,0.003195763,-0.004261017,-0.333873749,0.459592819,0.544960022,0.616732597
636,84487512.0,9.021626472,-3.708730698,0.217878342,-0.015978813,-0.003195763,-0.005326271,-0.333873749,0.459592819,0.544960022,0.616732597
637,84487512.0,9.021626472,-3.708730698,0.217878342,-0.015978813,-0.003195763,-0.005326271,-0.333873749,0.459592819,0.544960022,0.616732597
638,84487536.0,8.985712051,-3.817670822,0.177175522,-0.029828072,0.006391525,-0.003195763,-0.333873749,0.459592819,0.544960022,0.616732597
639,84487536.0,8.985712051,-3.817670822,0.177175522,-0.029828072,0.006391525,-0.003195763,-0.333873749,0.459592819,0.544960022,0.616732597
640,84487552.0,9.006063461,-3.749433517,0.232244492,0.004261017,0.003195763,-0.008522034,-0.333873749,0.459592819,0.544960022,0.616732597
641,84487568.0,9.002472878,-3.709928513,0.246609688,0.03195858,-0.001065254,-0.005326271,-0.333873749,0.459592819,0.544960022,0.616732597
642,84487592.0,9.000078201,-3.650071144,0.199921608,0.015978813,-0.008522034,0.004261017,-0.333873749,0.459592819,0.544960022,0.616732597
643,84487608.0,9.04556942,-3.749433517,0.192738533,-0.019174576,-0.012783051,0.008522034,-0.333873749,0.459592819,0.544960022,0.616732597
644,84487632.0,9.050357819,-3.770981789,0.184358597,-0.025567055,-0.006391525,0.004261017,-0.333873749,0.459592819,0.544960022,0.616732597
645,84487648.0,9.04556942,-3.712322235,0.276537895,-0.025567055,-0.006391525,0.004261017,-0.333873749,0.459592819,0.544960022,0.616732597
646,84487648.0,9.04556942,-3.712322235,0.276537895,-0.025567055,-0.006391525,0.004261017,-0.333873749,0.459592819,0.544960022,0.616732597
647,84487672.0,8.996486664,-3.633311272,0.268157959,-0.025567055,-0.006391525,0.004261017,-0.333873749,0.459592819,0.544960022,0.616732597
648,84487672.0,8.996486664,-3.633311272,0.268157959,-0.025567055,-0.006391525,0.004261017,-0.333873749,0.459592819,0.544960022,0.616732597
649,84487696.0,8.925855637,-3.730279922,0.214286804,-0.025567055,-0.006391525,0.004261017,-0.333873749,0.459592819,0.544960022,0.616732597
650,84487696.0,8.925855637,-3.730279922,0.214286804,-0.025567055,-0.006391525,0.004261017,-0.333873749,0.459592819,0.544960022,0.616732597
651,84487712.0,9.040781021,-3.797319412,0.186753273,-0.025567055,-0.006391525,0.004261017,-0.333873749,0.459592819,0.544960022,0.616732597
652,84487712.0,9.040781021,-3.797319412,0.186753273,-0.025567055,-0.006391525,0.004261017,-0.333873749,0.459592819,0.544960022,0.616732597
653,84487728.0,9.183239937,-3.709928513,0.2573843,-0.025567055,-0.006391525,0.004261017,-0.333873749,0.459592819,0.544960022,0.616732597
654,84487728.0,9.183239937,-3.709928513,0.2573843,-0.025567055,-0.006391525,0.004261017,-0.333873749,0.459592819,0.544960022,0.616732597
655,84487848.0,9.058737755,-3.73985672,0.229849815,0.029828072,-0.004261017,-0.018109322,-0.332492828,0.459290504,0.546039581,0.616732597
656,84487848.0,9.058737755,-3.73985672,0.229849815,0.029828072,-0.004261017,-0.018109322,-0.332492828,0.459290504,0.546039581,0.616732597
657,84487872.0,9.041977882,-3.82126236,0.208301544,0.029828072,-0.004261017,-0.018109322,-0.332492828,0.459290504,0.546039581,0.616732597
658,84487872.0,9.041977882,-3.82126236,0.208301544,0.029828072,-0.004261017,-0.018109322,-0.332492828,0.459290504,0.546039581,0.616732597
659,84487888.0,9.068314552,-3.778164864,0.19633007,0.029828072,-0.004261017,-0.018109322,-0.332492828,0.459290504,0.546039581,0.616732597
660,84487888.0,9.068314552,-3.778164864,0.19633007,0.029828072,-0.004261017,-0.018109322,-0.332492828,0.459290504,0.546039581,0.616732597
661,84487912.0,9.03958416,-3.650071144,0.281327248,0.029828072,-0.004261017,-0.018109322,-0.332492828,0.459290504,0.546039581,0.616732597
662,84487912.0,9.03958416,-3.650071144,0.281327248,0.029828072,-0.004261017,-0.018109322,-0.332492828,0.459290504,0.546039581,0.616732597
663,84487928.0,9.038386345,-3.541131973,0.22266674,0.029828072,-0.004261017,-0.018109322,-0.332492828,0.459290504,0.546039581,0.616732597
664,84487928.0,9.038386345,-3.541131973,0.22266674,0.029828072,-0.004261017,-0.018109322,-0.332492828,0.459290504,0.546039581,0.616732597
665,84487952.0,9.094652176,-3.717110634,0.183161736,0.029828072,-0.004261017,-0.018109322,-0.332492828,0.459290504,0.546039581,0.616732597
666,84487952.0,9.094652176,-3.717110634,0.183161736,0.029828072,-0.004261017,-0.018109322,-0.332492828,0.459290504,0.546039581,0.616732597
667,84488048.0,9.012049675,-3.828444481,0.104150772,-0.023435593,0.008522034,0.014913559,-0.332492828,0.459290504,0.546039581,0.616732597
668,84488072.0,9.026414871,-3.776968002,0.11971283,-0.023435593,0.008522034,0.014913559,-0.332492828,0.459290504,0.546039581,0.616732597
669,84488088.0,9.068314552,-3.567468643,0.202315331,-0.023435593,0.008522034,0.014913559,-0.332492828,0.459290504,0.546039581,0.616732597
670,84488112.0,9.138946533,-3.577046394,0.156824112,-0.023435593,0.008522034,0.014913559,-0.332492828,0.459290504,0.546039581,0.616732597
671,84488128.0,9.152114868,-3.723096848,0.076616287,-0.023435593,0.008522034,0.014913559,-0.332492828,0.459290504,0.546039581,0.616732597
672,84488152.0,9.041977882,-3.707533836,0.159218788,-0.023435593,0.008522034,0.014913559,-0.332492828,0.459290504,0.546039581,0.616732597
673,84488168.0,9.034794807,-3.636902809,0.179570198,-0.004261017,-0.006391525,-0.001065254,-0.332492828,0.459290504,0.546039581,0.616732597
674,84488168.0,9.034794807,-3.636902809,0.179570198,-0.004261017,-0.006391525,-0.001065254,-0.332492828,0.459290504,0.546039581,0.616732597
675,84488192.0,9.107820511,-3.675210953,0.205906868,-0.008522034,-0.025567055,-0.006391525,-0.332492828,0.459290504,0.546039581,0.616732597
676,84488192.0,9.107820511,-3.675210953,0.205906868,-0.008522034,-0.025567055,-0.006391525,-0.332492828,0.459290504,0.546039581,0.616732597
677,84488208.0,9.073103905,-3.700350761,0.191541672,-0.004261017,-0.019174576,-0.010652542,-0.332492828,0.459290504,0.546039581,0.616732597
678,84488208.0,9.073103905,-3.700350761,0.191541672,-0.004261017,-0.019174576,-0.010652542,-0.332492828,0.459290504,0.546039581,0.616732597
679,84488232.0,9.032401085,-3.677605629,0.246609688,0.013848305,-0.009587288,-0.015978813,-0.332492828,0.459290504,0.546039581,0.616732597
680,84488232.0,9.032401085,-3.677605629,0.246609688,0.013848305,-0.009587288,-0.015978813,-0.332492828,0.459290504,0.546039581,0.616732597
681,84488248.0,9.030006409,-3.71352005,0.247806549,0.011717796,-0.005326271,-0.026632309,-0.332492828,0.459290504,0.546039581,0.616732597
682,84488248.0,9.030006409,-3.71352005,0.247806549,0.011717796,-0.005326271,-0.026632309,-0.332492828,0.459290504,0.546039581,0.616732597
683,84488368.0,9.093455315,-3.67880249,0.252595901,0.011717796,-0.005326271,-0.026632309,-0.331542969,0.458902359,0.545219421,0.618200302
684,84488392.0,9.035992622,-3.73985672,0.238229752,0.011717796,-0.005326271,-0.026632309,-0.331542969,0.458902359,0.545219421,0.618200302
685,84488408.0,9.049160957,-3.790136337,0.183161736,0.011717796,-0.005326271,-0.026632309,-0.331542969,0.458902359,0.545219421,0.618200302
686,84488432.0,9.077892303,-3.747039795,0.198724747,0.011717796,-0.005326271,-0.026632309,-0.331542969,0.458902359,0.545219421,0.618200302
687,84488448.0,9.058737755,-3.65845108,0.205906868,0.011717796,-0.005326271,-0.026632309,-0.331542969,0.458902359,0.545219421,0.618200302
688,84488464.0,9.107820511,-3.63809967,0.158021927,0.006391525,0.006391525,-0.004261017,-0.331542969,0.458902359,0.545219421,0.618200302
689,84488488.0,9.104228973,-3.701548576,0.156824112,-0.03195858,0.011717796,0.004261017,-0.331542969,0.458902359,0.545219421,0.618200302
690,84488512.0,9.035992622,-3.726688385,0.172387123,-0.034089088,0.023435593,-0.001065254,-0.331542969,0.458902359,0.545219421,0.618200302
691,84488528.0,8.977332115,-3.714716911,0.174781799,-0.005326271,0.015978813,-0.013848305,-0.331542969,0.458902359,0.545219421,0.618200302
692,84488544.0,9.010852814,-3.703942299,0.185555458,0.021305084,-0.004261017,-0.017044067,-0.331542969,0.458902359,0.545219421,0.618200302
693,84488568.0,9.087469101,-3.679999352,0.160415649,0.008522034,-0.005326271,-0.007456779,-0.331542969,0.458902359,0.545219421,0.618200302
694,84488592.0,9.085075378,-3.715913773,0.171190262,-0.022370338,0.001065254,-0.001065254,-0.331542969,0.458902359,0.545219421,0.618200302
695,84488608.0,8.991698265,-3.814079285,0.173583984,-0.035154343,0.017044067,0.001065254,-0.331542969,0.458902359,0.545219421,0.618200302
696,84488632.0,9.009654999,-3.751828194,0.131684303,0.001065254,0.0,0.0,-0.331542969,0.458902359,0.545219421,0.618200302
697,84488648.0,9.156903267,-3.651268005,0.172387123,0.042611122,-0.025567055,0.0,-0.331542969,0.458902359,0.545219421,0.618200302
698,84488672.0,9.159296989,-3.626128197,0.171190262,0.021305084,-0.018109322,0.006391525,-0.331542969,0.458902359,0.545219421,0.618200302
699,84488688.0,9.009654999,-3.712322235,0.217878342,-0.028762817,0.008522034,0.007456779,-0.331542969,0.458902359,0.545219421,0.618200302
700,84488704.0,8.950995445,-3.802107811,0.187950134,-0.027697563,0.0,0.006391525,-0.331542969,0.458902359,0.545219421,0.618200302
701,84488728.0,9.041977882,-3.690773964,0.203513145,0.015978813,-0.017044067,0.001065254,-0.331542969,0.458902359,0.545219421,0.618200302
702,84488744.0,9.131763458,-3.614156723,0.204710007,0.036219597,-0.021305084,0.004261017,-0.331542969,0.458902359,0.545219421,0.618200302
703,84488864.0,9.053949356,-3.747039795,0.167598724,-0.060721397,-0.005326271,0.018109322,-0.331542969,0.458902359,0.545219421,0.618200302
704,84488864.0,9.053949356,-3.747039795,0.167598724,-0.060721397,-0.005326271,0.018109322,-0.331542969,0.458902359,0.545219421,0.618200302
705,84488888.0,9.044372559,-3.715913773,0.202315331,-0.060721397,-0.005326271,0.018109322,-0.331542969,0.458902359,0.545219421,0.618200302
706,84488888.0,9.044372559,-3.715913773,0.202315331,-0.060721397,-0.005326271,0.018109322,-0.331542969,0.458902359,0.545219421,0.618200302
707,84488904.0,9.07190609,-3.671619415,0.173583984,-0.060721397,-0.005326271,0.018109322,-0.331542969,0.458902359,0.545219421,0.618200302
708,84488904.0,9.07190609,-3.671619415,0.173583984,-0.060721397,-0.005326271,0.018109322,-0.331542969,0.458902359,0.545219421,0.618200302
709,84488928.0,9.105425835,-3.630917549,0.177175522,-0.060721397,-0.005326271,0.018109322,-0.331542969,0.458902359,0.545219421,0.618200302
710,84488928.0,9.105425835,-3.630917549,0.177175522,-0.060721397,-0.005326271,0.018109322,-0.331542969,0.458902359,0.545219421,0.618200302
711,84488944.0,9.058737755,-3.662042618,0.173583984,-0.060721397,-0.005326271,0.018109322,-0.331542969,0.458902359,0.545219421,0.618200302
712,84488944.0,9.058737755,-3.662042618,0.173583984,-0.060721397,-0.005326271,0.018109322,-0.331542969,0.458902359,0.545219421,0.618200302
713,84488968.0,9.007261276,-3.787741661,0.148444176,-0.076701164,0.003195763,0.02023983,-0.331542969,0.458902359,0.545219421,0.618200302
714,84488984.0,9.050357819,-3.781756401,0.150838852,-0.028762817,-0.017044067,0.014913559,-0.331542969,0.458902359,0.545219421,0.618200302
715,84489008.0,9.062329292,-3.629719734,0.174781799,0.036219597,-0.015978813,0.012783051,-0.331542969,0.458902359,0.545219421,0.618200302
716,84489024.0,9.079089165,-3.571060181,0.193935394,0.021305084,-0.007456779,0.013848305,-0.331542969,0.458902359,0.545219421,0.618200302
717,84489048.0,9.07190609,-3.6991539,0.125699043,-0.046872139,-0.003195763,0.015978813,-0.331542969,0.458902359,0.545219421,0.618200302
718,84489168.0,9.002472878,-3.723096848,0.159218788,-0.046872139,-0.003195763,0.015978813,-0.329514503,0.458470345,0.544528961,0.620228767
719,84489168.0,9.002472878,-3.723096848,0.159218788,-0.046872139,-0.003195763,0.015978813,-0.329514503,0.458470345,0.544528961,0.620228767
720,84489184.0,9.125777245,-3.854782104,0.081404686,-0.046872139,-0.003195763,0.015978813,-0.329989433,0.458470345,0.544614792,0.619926453
721,84489184.0,9.125777245,-3.854782104,0.081404686,-0.046872139,-0.003195763,0.015978813,-0.329989433,0.458470345,0.544614792,0.619926453
722,84489208.0,9.188028336,-3.787741661,0.201118469,-0.046872139,-0.003195763,0.015978813,-0.330809593,0.458211899,0.544960022,0.619364738
723,84489208.0,9.188028336,-3.787741661,0.201118469,-0.046872139,-0.003195763,0.015978813,-0.330809593,0.458211899,0.544960022,0.619364738
724,84489224.0,9.27661705,-3.914638519,0.055068016,-0.046872139,-0.003195763,0.015978813,-0.331500053,0.457779884,0.545392036,0.618933678
725,84489224.0,9.27661705,-3.914638519,0.055068016,-0.046872139,-0.003195763,0.015978813,-0.331500053,0.457779884,0.545392036,0.618933678
726,84489248.0,9.506466866,-4.550318718,-0.281327248,-0.046872139,-0.003195763,0.015978813,-0.331500053,0.457219124,0.545175552,0.619537354
727,84489248.0,9.506466866,-4.550318718,-0.281327248,-0.046872139,-0.003195763,0.015978813,-0.331500053,0.457219124,0.545175552,0.619537354
728,84489368.0,10.13855553,-18.07557678,-0.867923737,-1.64588356,-0.669006348,2.421419144,-0.331500053,0.457219124,0.545175552,0.619537354
729,84489384.0,12.43586254,-20.44351387,-1.862745285,-0.266324043,-1.058904648,3.185236931,-0.331500053,0.457219124,0.545175552,0.619537354
730,84489408.0,15.02646732,-22.25478363,-0.337592125,0.350481987,-1.196328163,4.181289673,-0.331500053,0.457219124,0.545175552,0.619537354
731,84489424.0,16.61027908,-24.22167969,-3.902667046,-0.253540039,-1.12495327,5.327549934,-0.331500053,0.457219124,0.545175552,0.619537354
732,84489448.0,19.12187576,-28.74805641,-6.945790291,-0.010652542,-1.538288116,6.61442852,-0.331500053,0.457219124,0.545175552,0.619537354
733,84489464.0,22.60075569,-29.45317078,-6.832062721,-0.010652542,-1.538288116,6.61442852,-0.331500053,0.457219124,0.545175552,0.619537354
734,84489464.0,22.60075569,-29.45317078,-6.832062721,-0.010652542,-1.538288116,6.61442852,-0.331500053,0.457219124,0.545175552,0.619537354
735,84489488.0,22.0093689,-29.60879898,-8.947403908,-0.010652542,-1.538288116,6.61442852,-0.331500053,0.457219124,0.545175552,0.619537354
736,84489488.0,22.0093689,-29.60879898,-8.947403908,-0.010652542,-1.538288116,6.61442852,-0.331500053,0.457219124,0.545175552,0.619537354
737,84489504.0,23.08559608,-28.36018372,-9.821314812,-0.010652542,-1.538288116,6.61442852,-0.331500053,0.457219124,0.545175552,0.619537354
738,84489504.0,23.08559608,-28.36018372,-9.821314812,-0.010652542,-1.538288116,6.61442852,-0.331500053,0.457219124,0.545175552,0.619537354
739,84489528.0,24.69813919,-22.70131493,-8.296161652,-0.010652542,-1.538288116,6.61442852,-0.331500053,0.457219124,0.545175552,0.619537354
740,84489528.0,24.69813919,-22.70131493,-8.296161652,-0.010652542,-1.538288116,6.61442852,-0.331500053,0.457219124,0.545175552,0.619537354
741,84489544.0,24.2324543,-15.89558887,-6.472921371,-0.010652542,-1.538288116,6.61442852,-0.331500053,0.457219124,0.545175552,0.619537354
742,84489544.0,24.2324543,-15.89558887,-6.472921371,-0.010652542,-1.538288116,6.61442852,-0.331500053,0.457219124,0.545175552,0.619537354
743,84489664.0,19.32658386,13.04161358,-4.358777046,4.654281616,0.487905502,11.7097435,-0.331500053,0.457219124,0.545175552,0.619537354
744,84489680.0,18.51013756,30.96276093,-3.483669281,3.398296356,0.745707512,8.277357101,-0.331500053,0.457219124,0.545175552,0.619537354
745,84489704.0,7.066700935,31.91927338,2.347585678,1.394473076,2.330869675,5.588547707,-0.331500053,0.457219124,0.545175552,0.619537354
746,84489728.0,4.422224998,18.44788742,2.041118622,-0.800037384,1.752412796,2.294649124,-0.331500053,0.457219124,0.545175552,0.619537354
747,84489744.0,8.205179214,8.154899597,1.086999893,-1.406191826,0.12677002,-1.022685051,-0.331500053,0.457219124,0.545175552,0.619537354
748,84489760.0,9.027612686,6.85720253,1.526350021,-1.406191826,0.12677002,-1.022685051,-0.331500053,0.457219124,0.545175552,0.619537354
749,84489760.0,9.027612686,6.85720253,1.526350021,-1.406191826,0.12677002,-1.022685051,-0.331500053,0.457219124,0.545175552,0.619537354
750,84489784.0,6.387924194,6.768613815,2.546310425,-1.406191826,0.12677002,-1.022685051,-0.331500053,0.457219124,0.545175552,0.619537354
751,84489784.0,6.387924194,6.768613815,2.546310425,-1.406191826,0.12677002,-1.022685051,-0.331500053,0.457219124,0.545175552,0.619537354
752,84489808.0,7.761040688,5.350006104,2.266180992,-1.406191826,0.12677002,-1.022685051,-0.331500053,0.457219124,0.545175552,0.619537354
753,84489808.0,7.761040688,5.350006104,2.266180992,-1.406191826,0.12677002,-1.022685051,-0.331500053,0.457219124,0.545175552,0.619537354
754,84489824.0,10.47614861,3.000025749,1.375510216,-1.406191826,0.12677002,-1.022685051,-0.331500053,0.457219124,0.545175552,0.619537354
755,84489824.0,10.47614861,3.000025749,1.375510216,-1.406191826,0.12677002,-1.022685051,-0.331500053,0.457219124,0.545175552,0.619537354
756,84489840.0,11.73314285,1.935770988,1.12530899,-1.406191826,0.12677002,-1.022685051,-0.331500053,0.457219124,0.545175552,0.619537354
757,84489840.0,11.73314285,1.935770988,1.12530899,-1.406191826,0.12677002,-1.022685051,-0.331500053,0.457219124,0.545175552,0.619537354
758,84490160.0,13.03323364,5.573870659,5.247052193,10.21406651,-1.281551361,-1.39553833,-0.331500053,0.457219124,0.545175552,0.619537354
759,84490184.0,9.658503532,-12.71359825,-3.304099083,10.21406651,-1.281551361,-1.39553833,-0.331500053,0.457219124,0.545175552,0.619537354
760,84490200.0,9.047964096,-19.90599823,-4.358777046,10.21406651,-1.281551361,-1.39553833,-0.331500053,0.457219124,0.545175552,0.619537354
761,84490224.0,11.27224445,-7.394717216,-0.784124374,10.21406651,-1.281551361,-1.39553833,-0.331500053,0.457219124,0.545175552,0.619537354
762,84490240.0,12.9075346,-0.791307449,1.707117081,10.21406651,-1.281551361,-1.39553833,-0.331500053,0.457219124,0.545175552,0.619537354
763,84490360.0,9.563929558,-2.385893822,0.045491219,-0.169382095,-0.08309269,1.233613014,-0.268877029,0.536932945,0.492738724,0.629766464
764,84490384.0,9.530409813,-1.757396698,-0.064644814,-0.169382095,-0.08309269,1.233613014,-0.265553474,0.527869225,0.50171566,0.631708145
765,84490400.0,8.575094223,-2.218295097,-0.234638214,-0.169382095,-0.08309269,1.233613014,-0.261798859,0.519842148,0.510174751,0.633218765
766,84490424.0,8.153701782,-2.518776894,-0.319635391,-0.169382095,-0.08309269,1.233613014,-0.257785797,0.512806892,0.517123222,0.634988785
767,84490440.0,8.669668198,-2.48645401,0.219075203,-0.169382095,-0.08309269,1.233613014,-0.255627632,0.505556107,0.523078918,0.636800766
768,84490464.0,8.89113903,-2.481665611,0.450122833,-0.169382095,-0.08309269,1.233613014,-0.255627632,0.505556107,0.523078918,0.636800766
769,84490480.0,8.779805183,-2.509199142,0.19034481,-0.169382095,-0.08309269,1.233613014,-0.255627632,0.505556107,0.523078918,0.636800766
770,84490504.0,8.889941216,-2.785737991,-0.01197052,-0.169382095,-0.08309269,1.233613014,-0.255627632,0.505556107,0.523078918,0.636800766
771,84490520.0,9.146128654,-3.138894081,-0.043096542,-0.169382095,-0.08309269,1.233613014,-0.255627632,0.505556107,0.523078918,0.636800766
772,84490544.0,9.064723969,-3.122134209,0.089784622,-0.169382095,-0.08309269,1.233613014,-0.255627632,0.505556107,0.523078918,0.636800766
773,84490664.0,8.579882622,-3.820064545,0.429771423,0.254605293,-0.199210167,-0.125704765,-0.255627632,0.505556107,0.523078918,0.636800766
774,84490680.0,8.871984482,-3.863162041,0.527936935,0.279107094,-0.175773621,-0.172577858,-0.255627632,0.505556107,0.523078918,0.636800766
775,84490704.0,9.219154358,-4.028367043,0.780532837,0.211993217,-0.137422562,-0.196014404,-0.255627632,0.505556107,0.523078918,0.636800766
776,84490720.0,9.243097305,-3.849993706,0.563851357,0.131031036,-0.090549469,-0.199210167,-0.255627632,0.505556107,0.523078918,0.636800766
777,84490744.0,8.974938393,-3.903864861,0.483642578,-0.015978813,-0.042611122,-0.189621925,-0.255627632,0.505556107,0.523078918,0.636800766
778,84490864.0,8.95817852,-4.298919678,0.39146328,0.064982414,-0.069243431,-0.174708366,-0.291923523,0.490667343,0.529595375,0.627349854
779,84490864.0,8.95817852,-4.298919678,0.39146328,0.064982414,-0.069243431,-0.174708366,-0.291923523,0.490667343,0.529595375,0.627349854
780,84490880.0,9.021626472,-4.146883011,0.302875519,0.078831673,-0.07563591,-0.153402328,-0.291923523,0.490667343,0.529595375,0.627349854
781,84490880.0,9.021626472,-4.146883011,0.302875519,0.078831673,-0.07563591,-0.153402328,-0.291923523,0.490667343,0.529595375,0.627349854
782,84490896.0,8.976135254,-4.213923454,0.234638214,0.036219597,-0.074570656,-0.132096291,-0.291923523,0.490667343,0.529595375,0.627349854
783,84490896.0,8.976135254,-4.213923454,0.234638214,0.036219597,-0.074570656,-0.132096291,-0.291923523,0.490667343,0.529595375,0.627349854
784,84490920.0,8.936630249,-4.386310577,0.213089943,0.012783051,-0.064982414,-0.122509003,-0.291923523,0.490667343,0.529595375,0.627349854
785,84490920.0,8.936630249,-4.386310577,0.213089943,0.012783051,-0.064982414,-0.122509003,-0.291923523,0.490667343,0.529595375,0.627349854
786,84490936.0,8.960572243,-4.302511215,0.458502769,0.08309269,-0.070308685,-0.116116524,-0.291923523,0.490667343,0.529595375,0.627349854
787,84490936.0,8.960572243,-4.302511215,0.458502769,0.08309269,-0.070308685,-0.116116524,-0.291923523,0.490667343,0.529595375,0.627349854
788,84491056.0,9.041977882,-4.040338516,0.071827888,0.072440147,-0.057525635,-0.036219597,-0.297879219,0.487300873,0.527351379,0.629076004
789,84491080.0,9.069512367,-4.009212494,0.068236351,0.072440147,-0.057525635,-0.036219597,-0.297879219,0.487300873,0.527351379,0.629076004
790,84491096.0,8.889941216,-4.17202282,0.102952957,0.072440147,-0.057525635,-0.036219597,-0.297879219,0.487300873,0.527351379,0.629076004
791,84491120.0,8.931840897,-4.096603394,0.162810326,0.072440147,-0.057525635,-0.036219597,-0.297879219,0.487300873,0.527351379,0.629076004
792,84491136.0,9.016838074,-3.85358429,0.143655777,0.072440147,-0.057525635,-0.036219597,-0.297879219,0.487300873,0.527351379,0.629076004
793,84491160.0,8.971346855,-3.876330376,0.099362373,0.072440147,-0.057525635,-0.036219597,-0.297879219,0.487300873,0.527351379,0.629076004
794,84491176.0,8.879167557,-4.11934948,0.083799362,0.072440147,-0.057525635,-0.036219597,-0.297879219,0.487300873,0.527351379,0.629076004
795,84491200.0,8.913884163,-4.128926277,0.158021927,0.072440147,-0.057525635,-0.036219597,-0.297879219,0.487300873,0.527351379,0.629076004
796,84491216.0,9.020429611,-3.792531013,0.226258278,0.072440147,-0.057525635,-0.036219597,-0.297879219,0.487300873,0.527351379,0.629076004
797,84491240.0,9.006063461,-3.73985672,0.099362373,0.072440147,-0.057525635,-0.036219597,-0.297879219,0.487300873,0.527351379,0.629076004
798,84491256.0,8.843253136,-4.118151665,0.114924431,0.072440147,-0.057525635,-0.036219597,-0.297879219,0.487300873,0.527351379,0.629076004
799,84491256.0,8.843253136,-4.118151665,0.114924431,0.072440147,-0.057525635,-0.036219597,-0.297879219,0.487300873,0.527351379,0.629076004
800,84491280.0,8.801353455,-4.320467949,0.020350456,0.072440147,-0.057525635,-0.036219597,-0.297879219,0.487300873,0.527351379,0.629076004
801,84491280.0,8.801353455,-4.320467949,0.020350456,0.072440147,-0.057525635,-0.036219597,-0.297879219,0.487300873,0.527351379,0.629076004
802,84491296.0,8.869589806,-4.157657623,0.09337616,0.072440147,-0.057525635,-0.036219597,-0.297879219,0.487300873,0.527351379,0.629076004
803,84491296.0,8.869589806,-4.157657623,0.09337616,0.072440147,-0.057525635,-0.036219597,-0.297879219,0.487300873,0.527351379,0.629076004
804,84491320.0,8.89113903,-3.9565382,0.03232193,0.072440147,-0.057525635,-0.036219597,-0.297879219,0.487300873,0.527351379,0.629076004
805,84491320.0,8.89113903,-3.9565382,0.03232193,0.072440147,-0.057525635,-0.036219597,-0.297879219,0.487300873,0.527351379,0.629076004
806,84491336.0,9.01923275,-3.968509674,0.040701866,0.072440147,-0.057525635,-0.036219597,-0.297879219,0.487300873,0.527351379,0.629076004
807,84491336.0,9.01923275,-3.968509674,0.040701866,0.072440147,-0.057525635,-0.036219597,-0.297879219,0.487300873,0.527351379,0.629076004
808,84491456.0,8.895927429,-4.071463585,0.001196861,-0.022370338,-0.011717796,0.005326271,-0.297879219,0.487300873,0.527351379,0.629076004
809,84491456.0,8.895927429,-4.071463585,0.001196861,-0.022370338,-0.011717796,0.005326271,-0.297879219,0.487300873,0.527351379,0.629076004
810,84491480.0,8.913884163,-3.957736015,0.029928207,-0.022370338,-0.011717796,0.005326271,-0.297879219,0.487300873,0.527351379,0.629076004
811,84491480.0,8.913884163,-3.957736015,0.029928207,-0.022370338,-0.011717796,0.005326271,-0.297879219,0.487300873,0.527351379,0.629076004
812,84491496.0,8.889941216,-3.967312813,-0.001196861,-0.022370338,-0.011717796,0.005326271,-0.297879219,0.487300873,0.527351379,0.629076004
813,84491496.0,8.889941216,-3.967312813,-0.001196861,-0.022370338,-0.011717796,0.005326271,-0.297879219,0.487300873,0.527351379,0.629076004
814,84491520.0,8.892335892,-4.041535378,-0.047884941,-0.022370338,-0.011717796,0.005326271,-0.297879219,0.487300873,0.527351379,0.629076004
815,84491520.0,8.892335892,-4.041535378,-0.047884941,-0.022370338,-0.011717796,0.005326271,-0.297879219,0.487300873,0.527351379,0.629076004
816,84491536.0,8.89113903,-3.960129738,0.040701866,-0.022370338,-0.011717796,0.005326271,-0.297879219,0.487300873,0.527351379,0.629076004
817,84491536.0,8.89113903,-3.960129738,0.040701866,-0.022370338,-0.011717796,0.005326271,-0.297879219,0.487300873,0.527351379,0.629076004
818,84491560.0,8.986909866,-3.823656082,0.11372757,0.102268219,-0.041545868,-0.019174576,-0.297879219,0.487300873,0.527351379,0.629076004
819,84491576.0,9.006063461,-3.85358429,0.020350456,0.039415359,-0.035154343,-0.005326271,-0.297879219,0.487300873,0.527351379,0.629076004
820,84491600.0,8.97852993,-3.972101212,0.051476479,-0.023435593,-0.023435593,-0.002130508,-0.297879219,0.487300873,0.527351379,0.629076004
821,84491616.0,8.906701088,-4.03195858,0.04668808,-0.018109322,-0.012783051,-0.009587288,-0.297879219,0.487300873,0.527351379,0.629076004
822,84491640.0,8.919870377,-3.949356079,0.100559235,0.03195858,-0.023435593,-0.022370338,-0.297879219,0.487300873,0.527351379,0.629076004
823,84491656.0,8.979726791,-3.891893387,0.041899681,0.03195858,-0.023435593,-0.022370338,-0.297879219,0.487300873,0.527351379,0.629076004
824,84491656.0,8.979726791,-3.891893387,0.041899681,0.03195858,-0.023435593,-0.022370338,-0.297879219,0.487300873,0.527351379,0.629076004
825,84491680.0,8.960572243,-3.899075508,0.037110329,0.03195858,-0.023435593,-0.022370338,-0.297879219,0.487300873,0.527351379,0.629076004
826,84491680.0,8.960572243,-3.899075508,0.037110329,0.03195858,-0.023435593,-0.022370338,-0.297879219,0.487300873,0.527351379,0.629076004
827,84491696.0,8.858816147,-4.023578644,0.003590584,0.03195858,-0.023435593,-0.022370338,-0.297879219,0.487300873,0.527351379,0.629076004
828,84491696.0,8.858816147,-4.023578644,0.003590584,0.03195858,-0.023435593,-0.022370338,-0.297879219,0.487300873,0.527351379,0.629076004
829,84491712.0,8.910292625,-4.012804031,0.034716606,0.03195858,-0.023435593,-0.022370338,-0.297879219,0.487300873,0.527351379,0.629076004
830,84491712.0,8.910292625,-4.012804031,0.034716606,0.03195858,-0.023435593,-0.022370338,-0.297879219,0.487300873,0.527351379,0.629076004
831,84491736.0,9.021626472,-3.890695572,0.023941994,0.03195858,-0.023435593,-0.022370338,-0.297879219,0.487300873,0.527351379,0.629076004
832,84491736.0,9.021626472,-3.890695572,0.023941994,0.03195858,-0.023435593,-0.022370338,-0.297879219,0.487300873,0.527351379,0.629076004
833,84491856.0,8.892335892,-4.01759243,-0.019153595,-0.037284851,0.006391525,-0.010652542,-0.308409691,0.470295906,0.533566475,0.63166523
834,84491872.0,8.870787621,-4.067872047,-0.014365196,-0.017044067,0.007456779,-0.009587288,-0.308409691,0.470295906,0.533566475,0.63166523
835,84491896.0,8.933038712,-4.006817818,0.045491219,0.033023834,-0.010652542,-0.008522034,-0.308409691,0.470295906,0.533566475,0.63166523
836,84491912.0,9.035992622,-3.902667046,-0.022745132,0.059656143,-0.018109322,-0.002130508,-0.308409691,0.470295906,0.533566475,0.63166523
837,84491936.0,9.028809547,-3.914638519,-0.002393723,0.022370338,-0.014913559,0.007456779,-0.308409691,0.470295906,0.533566475,0.63166523
838,84491960.0,8.922264099,-3.998437881,0.017956734,0.022370338,-0.014913559,0.007456779,-0.308409691,0.470295906,0.533566475,0.63166523
839,84491976.0,8.955783844,-3.97688961,0.028730392,0.022370338,-0.014913559,0.007456779,-0.308409691,0.470295906,0.533566475,0.63166523
840,84492000.0,9.027612686,-3.899075508,-0.029928207,0.022370338,-0.014913559,0.007456779,-0.308409691,0.470295906,0.533566475,0.63166523
841,84492016.0,9.008458138,-3.835627556,0.063447952,0.022370338,-0.014913559,0.007456779,-0.308409691,0.470295906,0.533566475,0.63166523
842,84492032.0,8.910292625,-3.870344162,0.047884941,0.022370338,-0.014913559,0.007456779,-0.308409691,0.470295906,0.533566475,0.63166523
843,84492056.0,8.995289803,-3.979284286,0.016759872,0.022370338,-0.014913559,0.007456779,-0.308409691,0.470295906,0.533566475,0.63166523
844,84492056.0,8.995289803,-3.979284286,0.016759872,0.022370338,-0.014913559,0.007456779,-0.308409691,0.470295906,0.533566475,0.63166523
845,84492080.0,9.053949356,-3.949356079,0.044293404,0.022370338,-0.014913559,0.007456779,-0.308409691,0.470295906,0.533566475,0.63166523
846,84492080.0,9.053949356,-3.949356079,0.044293404,0.022370338,-0.014913559,0.007456779,-0.308409691,0.470295906,0.533566475,0.63166523
847,84492096.0,8.942615509,-3.944566727,0.038308144,0.022370338,-0.014913559,0.007456779,-0.308409691,0.470295906,0.533566475,0.63166523
848,84492096.0,8.942615509,-3.944566727,0.038308144,0.022370338,-0.014913559,0.007456779,-0.308409691,0.470295906,0.533566475,0.63166523
849,84492112.0,8.935432434,-3.839219093,0.038308144,0.022370338,-0.014913559,0.007456779,-0.308409691,0.470295906,0.533566475,0.63166523
850,84492112.0,8.935432434,-3.839219093,0.038308144,0.022370338,-0.014913559,0.007456779,-0.308409691,0.470295906,0.533566475,0.63166523
851,84492136.0,8.939023972,-3.872738838,0.053871155,0.022370338,-0.014913559,0.007456779,-0.308409691,0.470295906,0.533566475,0.63166523
852,84492136.0,8.939023972,-3.872738838,0.053871155,0.022370338,-0.014913559,0.007456779,-0.308409691,0.470295906,0.533566475,0.63166523
853,84492256.0,8.9174757,-3.940976143,0.050279617,-0.007456779,0.008522034,0.008522034,-0.308409691,0.470295906,0.533566475,0.63166523
854,84492256.0,8.9174757,-3.940976143,0.050279617,-0.007456779,0.008522034,0.008522034,-0.308409691,0.470295906,0.533566475,0.63166523
855,84492272.0,8.915081024,-4.004424095,0.013168335,-0.015978813,0.005326271,0.009587288,-0.308409691,0.470295906,0.533566475,0.63166523
856,84492272.0,8.915081024,-4.004424095,0.013168335,-0.015978813,0.005326271,0.009587288,-0.308409691,0.470295906,0.533566475,0.63166523
857,84492296.0,8.976135254,-3.946961403,0.022745132,0.029828072,-0.009587288,0.004261017,-0.308409691,0.470295906,0.533566475,0.63166523
858,84492296.0,8.976135254,-3.946961403,0.022745132,0.029828072,-0.009587288,0.004261017,-0.308409691,0.470295906,0.533566475,0.63166523
859,84492312.0,8.994092941,-3.778164864,0.027533531,0.054329872,-0.006391525,0.006391525,-0.308409691,0.470295906,0.533566475,0.63166523
860,84492312.0,8.994092941,-3.778164864,0.027533531,0.054329872,-0.006391525,0.006391525,-0.308409691,0.470295906,0.533566475,0.63166523
861,84492336.0,8.979726791,-3.826050758,0.015562057,0.007456779,-0.002130508,0.014913559,-0.308409691,0.470295906,0.533566475,0.63166523
862,84492336.0,8.979726791,-3.826050758,0.015562057,0.007456779,-0.002130508,0.014913559,-0.308409691,0.470295906,0.533566475,0.63166523
863,84492456.0,8.973741531,-3.931398392,-0.028730392,-0.026632309,0.0,0.006391525,-0.308409691,0.470295906,0.533566475,0.63166523
864,84492456.0,8.973741531,-3.931398392,-0.028730392,-0.026632309,0.0,0.006391525,-0.308409691,0.470295906,0.533566475,0.63166523
865,84492472.0,9.032401085,-3.903864861,0.020350456,-0.026632309,0.0,0.006391525,-0.308409691,0.470295906,0.533566475,0.63166523
866,84492472.0,9.032401085,-3.903864861,0.020350456,-0.026632309,0.0,0.006391525,-0.308409691,0.470295906,0.533566475,0.63166523
867,84492496.0,9.038386345,-3.900273323,0.039505005,-0.026632309,0.0,0.006391525,-0.308409691,0.470295906,0.533566475,0.63166523
868,84492496.0,9.038386345,-3.900273323,0.039505005,-0.026632309,0.0,0.006391525,-0.308409691,0.470295906,0.533566475,0.63166523
869,84492512.0,8.977332115,-3.919426918,0.021548271,-0.026632309,0.0,0.006391525,-0.308409691,0.470295906,0.533566475,0.63166523
870,84492512.0,8.977332115,-3.919426918,0.021548271,-0.026632309,0.0,0.006391525,-0.308409691,0.470295906,0.533566475,0.63166523
871,84492536.0,8.959375381,-3.972101212,0.027533531,-0.026632309,0.0,0.006391525,-0.308409691,0.470295906,0.533566475,0.63166523
