,timestamp,accel_x,accel_y,accel_z,gyro_x,gyro_y,gyro_z,ori_scalar,ori_x,ori_y,ori_z
0,87056144.0,8.881561279296875,-2.6001815795898438,3.335224151611328,-0.19921016693115234,0.0862884521484375,0.05965614318847656,0.5037870407104492,0.5909671783447266,-0.564640998840332,0.27953624725341797
1,87056152.0,8.776213645935059,-2.622927665710449,3.2310733795166016,-0.19921016693115234,0.0862884521484375,0.05965614318847656,0.5037870407104492,0.5909671783447266,-0.564640998840332,0.27953624725341797
2,87056160.0,8.698399543762207,-2.6708126068115234,3.2023420333862305,-0.19921016693115234,0.0862884521484375,0.05965614318847656,0.5037870407104492,0.5909671783447266,-0.564640998840332,0.27953624725341797
3,87056176.0,8.724736213684082,-2.6456727981567383,3.281352996826172,-0.19921016693115234,0.0862884521484375,0.05965614318847656,0.5037870407104492,0.5909671783447266,-0.564640998840332,0.27953624725341797
4,87056184.0,8.779805183410645,-2.6720104217529297,3.306492805480957,-0.19921016693115234,0.0862884521484375,0.05965614318847656,0.5037870407104492,0.5909671783447266,-0.564640998840332,0.27953624725341797
5,87056192.0,8.838464736938477,-2.687572479248047,3.320858955383301,-0.19921016693115234,0.0862884521484375,0.05965614318847656,0.5037870407104492,0.5909671783447266,-0.564640998840332,0.27953624725341797
6,87056200.0,8.796565055847168,-2.689967155456543,3.317267417907715,-0.2588663101196289,0.09374523162841797,0.04474163055419922,0.5037870407104492,0.5909671783447266,-0.564640998840332,0.27953624725341797
7,87056216.0,8.706779479980469,-2.7067270278930664,3.249030113220215,-0.2588663101196289,0.09374523162841797,0.04474163055419922,0.5037870407104492,0.5909671783447266,-0.564640998840332,0.27953624725341797
8,87056232.0,8.61579704284668,-2.8228492736816406,3.1029796600341797,-0.2588663101196289,0.09374523162841797,0.04474163055419922,0.5037870407104492,0.5909671783447266,-0.564640998840332,0.27953624725341797
9,87056256.0,8.803747177124023,-2.959322929382324,3.0431222915649414,-0.2588663101196289,0.09374523162841797,0.04474163055419922,0.5037870407104492,0.5909671783447266,-0.564640998840332,0.27953624725341797
10,87056272.0,8.915081024169922,-2.9138317108154297,2.938971519470215,-0.2588663101196289,0.09374523162841797,0.04474163055419922,0.5037870407104492,0.5909671783447266,-0.564640998840332,0.27953624725341797
11,87056296.0,8.73670768737793,-2.8910865783691406,2.7953147888183594,-0.2588663101196289,0.09374523162841797,0.04474163055419922,0.5037870407104492,0.5909671783447266,-0.564640998840332,0.27953624725341797
12,87056744.0,8.742693901062012,-2.8252439498901367,2.2398433685302734,0.12357425689697266,-0.25034427642822266,-0.07030868530273438,0.513972282409668,0.5812997817993164,-0.5614471435546875,0.28765010833740234
13,87056760.0,8.931840896606445,-2.7079238891601562,2.770174980163574,0.21199321746826172,-0.2599315643310547,-0.06604766845703125,0.513972282409668,0.5812997817993164,-0.5614471435546875,0.28765010833740234
14,87056784.0,9.681249618530273,-2.564268112182617,2.7749643325805664,0.21199321746826172,-0.2599315643310547,-0.06604766845703125,0.513972282409668,0.5812997817993164,-0.5614471435546875,0.28765010833740234
15,87056800.0,10.151723861694336,-2.5786333084106445,2.6696157455444336,0.21199321746826172,-0.2599315643310547,-0.06604766845703125,0.513972282409668,0.5812997817993164,-0.5614471435546875,0.28765010833740234
16,87056824.0,9.675263404846191,-2.6145477294921875,2.788132667541504,0.21199321746826172,-0.2599315643310547,-0.06604766845703125,0.513972282409668,0.5812997817993164,-0.5614471435546875,0.28765010833740234
17,87056920.0,8.968952178955078,-2.72348690032959,2.4146251678466797,0.21199321746826172,-0.2599315643310547,-0.06604766845703125,0.513972282409668,0.5812997817993164,-0.5614471435546875,0.28765010833740234
18,87057560.0,9.19640827178955,-2.590604782104492,2.0195703506469727,-0.031958580017089844,-0.03941535949707031,-0.06391716003417969,0.5344724655151367,0.5760345458984375,-0.5276975631713867,0.32265186309814453
19,87057576.0,9.21556282043457,-2.658841133117676,2.047104835510254,-0.06391716003417969,-0.030893325805664062,-0.07563591003417969,0.5421552658081055,0.5651149749755859,-0.5332651138305664,0.3198890686035156
20,87057600.0,9.111412048339844,-2.747429847717285,2.0518932342529297,-0.08202743530273438,-0.014913558959960938,-0.08735370635986328,0.5425004959106445,0.5642518997192383,-0.533782958984375,0.32006168365478516
21,87057616.0,9.032401084899902,-2.745035171508789,2.1141443252563477,-0.04900360107421875,-0.02769756317138672,-0.10226821899414062,0.5427589416503906,0.5633020401000977,-0.5343875885009766,0.3202342987060547
22,87057640.0,9.182043075561523,-2.818060874938965,2.0135841369628906,-0.040480613708496094,-0.04474163055419922,-0.10546398162841797,0.5428457260131836,0.5624828338623047,-0.5349483489990234,0.3206663131713867
23,87057656.0,9.238308906555176,-2.7318668365478516,1.9800643920898438,-0.040480613708496094,-0.04474163055419922,-0.10546398162841797,0.5430183410644531,0.5616188049316406,-0.5353803634643555,0.32109737396240234
24,87057680.0,9.068314552307129,-2.7677812576293945,2.039921760559082,-0.040480613708496094,-0.04474163055419922,-0.10546398162841797,0.5430183410644531,0.5616188049316406,-0.5353803634643555,0.32109737396240234
25,87057696.0,9.125777244567871,-2.9844627380371094,1.9549245834350586,-0.040480613708496094,-0.04474163055419922,-0.10546398162841797,0.5430183410644531,0.5616188049316406,-0.5353803634643555,0.32109737396240234
26,87057720.0,9.207182884216309,-3.1616392135620117,1.8699283599853516,-0.040480613708496094,-0.04474163055419922,-0.10546398162841797,0.5430183410644531,0.5616188049316406,-0.5353803634643555,0.32109737396240234
27,87057736.0,9.147326469421387,-3.190370559692383,1.8292255401611328,-0.040480613708496094,-0.04474163055419922,-0.10546398162841797,0.5430183410644531,0.5616188049316406,-0.5353803634643555,0.32109737396240234
28,87057856.0,9.658503532409668,-4.339622497558594,1.605360984802246,0.7957763671875,-0.2130584716796875,0.4335756301879883,0.5430183410644531,0.5616188049316406,-0.5353803634643555,0.32109737396240234
29,87057880.0,9.548367500305176,-2.7761611938476562,1.6077547073364258,0.7979068756103516,-0.13422679901123047,0.5049505233764648,0.5430183410644531,0.5616188049316406,-0.5353803634643555,0.32109737396240234
30,87057896.0,9.189226150512695,-2.536733627319336,2.162029266357422,0.2428874969482422,-0.0287628173828125,0.4719257354736328,0.5430183410644531,0.5616188049316406,-0.5353803634643555,0.32109737396240234
31,87057920.0,8.933038711547852,-3.1772022247314453,2.440962791442871,-0.07989692687988281,-0.0031957626342773438,0.40694332122802734,0.5430183410644531,0.5616188049316406,-0.5353803634643555,0.32109737396240234
32,87057936.0,8.948601722717285,-2.563070297241211,1.7466230392456055,0.06498241424560547,0.033023834228515625,0.30254364013671875,0.5430183410644531,0.5616188049316406,-0.5353803634643555,0.32109737396240234
33,87057960.0,8.541574478149414,-2.132101058959961,1.5850095748901367,0.06498241424560547,0.033023834228515625,0.30254364013671875,0.5430183410644531,0.5616188049316406,-0.5353803634643555,0.32109737396240234
34,87057976.0,8.268627166748047,-2.536733627319336,1.7286663055419922,0.06498241424560547,0.033023834228515625,0.30254364013671875,0.5695600509643555,0.5676612854003906,-0.5143184661865234,0.2980079650878906
35,87058000.0,8.605022430419922,-2.788132667541504,1.5981779098510742,0.06498241424560547,0.033023834228515625,0.30254364013671875,0.5712003707885742,0.5663671493530273,-0.5162172317504883,0.2940378189086914
36,87058016.0,9.010852813720703,-2.8013010025024414,1.5502920150756836,0.06498241424560547,0.033023834228515625,0.30254364013671875,0.5729703903198242,0.5645112991333008,-0.5180730819702148,0.29088687896728516
37,87058032.0,9.073103904724121,-3.003617286682129,1.4054384231567383,0.06498241424560547,0.033023834228515625,0.30254364013671875,0.5743942260742188,0.5629568099975586,-0.519627571105957,0.28834056854248047
38,87058056.0,9.07669448852539,-3.1005849838256836,1.4676895141601562,0.06498241424560547,0.033023834228515625,0.30254364013671875,0.5753002166748047,0.5618782043457031,-0.5207920074462891,0.2865715026855469
39,87058080.0,9.06592082977295,-2.853975296020508,1.3635387420654297,0.06498241424560547,0.033023834228515625,0.30254364013671875,0.5753002166748047,0.5618782043457031,-0.5207920074462891,0.2865715026855469
40,87058096.0,9.030006408691406,-2.691164016723633,1.296499252319336,0.06498241424560547,0.033023834228515625,0.30254364013671875,0.5753002166748047,0.5618782043457031,-0.5207920074462891,0.2865715026855469
41,87058112.0,8.941418647766113,-2.627716064453125,1.364736557006836,0.06498241424560547,0.033023834228515625,0.30254364013671875,0.5753002166748047,0.5618782043457031,-0.5207920074462891,0.2865715026855469
42,87058136.0,8.92705249786377,-2.8623552322387695,1.3970584869384766,0.06498241424560547,0.033023834228515625,0.30254364013671875,0.5753002166748047,0.5618782043457031,-0.5207920074462891,0.2865715026855469
43,87058160.0,8.90311050415039,-3.192765235900879,1.3982563018798828,-0.12783527374267578,-0.00852203369140625,-0.13529205322265625,0.5753002166748047,0.5618782043457031,-0.5207920074462891,0.2865715026855469
44,87058176.0,8.953390121459961,-3.155653953552246,1.3707218170166016,0.007456779479980469,-0.03728485107421875,-0.16405487060546875,0.5753002166748047,0.5618782043457031,-0.5207920074462891,0.2865715026855469
45,87058192.0,8.92705249786377,-3.061079978942871,1.4437475204467773,0.0287628173828125,-0.04793834686279297,-0.184295654296875,0.5753002166748047,0.5618782043457031,-0.5207920074462891,0.2865715026855469
46,87058216.0,8.9450101852417,-3.1664276123046875,1.4712810516357422,-0.04474163055419922,-0.06817817687988281,-0.19814491271972656,0.5753002166748047,0.5618782043457031,-0.5207920074462891,0.2865715026855469
47,87058240.0,9.031203269958496,-3.4094467163085938,1.5203638076782227,-0.03728485107421875,-0.08415794372558594,-0.2024059295654297,0.5753002166748047,0.5618782043457031,-0.5207920074462891,0.2865715026855469
48,87058256.0,9.109017372131348,-3.4429664611816406,1.5383214950561523,-0.03728485107421875,-0.08415794372558594,-0.2024059295654297,0.5753002166748047,0.5618782043457031,-0.5207920074462891,0.2865715026855469
49,87058272.0,9.198802947998047,-3.3448009490966797,1.574234962463379,-0.03728485107421875,-0.08415794372558594,-0.2024059295654297,0.5753002166748047,0.5618782043457031,-0.5207920074462891,0.2865715026855469
50,87058296.0,9.153311729431152,-3.3304357528686523,1.6520490646362305,-0.03728485107421875,-0.08415794372558594,-0.2024059295654297,0.5753002166748047,0.5618782043457031,-0.5207920074462891,0.2865715026855469
51,87058312.0,9.135354995727539,-3.4094467163085938,1.8388023376464844,-0.03728485107421875,-0.08415794372558594,-0.2024059295654297,0.5753002166748047,0.5618782043457031,-0.5207920074462891,0.2865715026855469
52,87058336.0,9.298165321350098,-3.404658317565918,1.8388023376464844,-0.03728485107421875,-0.08415794372558594,-0.2024059295654297,0.5753002166748047,0.5618782043457031,-0.5207920074462891,0.2865715026855469
53,87058352.0,9.294573783874512,-3.3256473541259766,1.8878850936889648,0.0287628173828125,-0.07883167266845703,-0.09054946899414062,0.5753002166748047,0.5618782043457031,-0.5207920074462891,0.2865715026855469
54,87058376.0,9.137748718261719,-3.241847038269043,1.9058418273925781,-0.021305084228515625,-0.05113410949707031,-0.07030868530273438,0.5740489959716797,0.5481109619140625,-0.52825927734375,0.3016328811645508
55,87058392.0,9.068314552307129,-3.390292167663574,1.9656991958618164,-0.07776641845703125,-0.045806884765625,-0.04900360107421875,0.5741786956787109,0.5477657318115234,-0.5285177230834961,0.30167675018310547
56,87058416.0,9.126975059509277,-3.474092483520508,1.945347785949707,-0.030893325805664062,-0.05113410949707031,-0.034089088439941406,0.5743942260742188,0.5475492477416992,-0.5287332534790039,0.30120182037353516
57,87058432.0,9.293376922607422,-3.2921276092529297,1.9585161209106445,0.05965614318847656,-0.042611122131347656,-0.02982807159423828,0.5743513107299805,0.5478515625,-0.5286045074462891,0.3008995056152344
58,87058456.0,9.228731155395508,-3.0706567764282227,1.9537277221679688,0.05965614318847656,-0.042611122131347656,-0.02982807159423828,0.5739192962646484,0.5483694076538086,-0.5284318923950195,0.3011589050292969
59,87058472.0,9.103032112121582,-3.0778398513793945,1.8962650299072266,0.05965614318847656,-0.042611122131347656,-0.02982807159423828,0.5739192962646484,0.5483694076538086,-0.5284318923950195,0.3011589050292969
60,87058496.0,9.04556941986084,-3.2334671020507812,1.8088741302490234,0.05965614318847656,-0.042611122131347656,-0.02982807159423828,0.5739192962646484,0.5483694076538086,-0.5284318923950195,0.3011589050292969
61,87058512.0,9.182043075561523,-3.243044853210449,1.8052825927734375,0.05965614318847656,-0.042611122131347656,-0.02982807159423828,0.5739192962646484,0.5483694076538086,-0.5284318923950195,0.3011589050292969
62,87058536.0,9.250279426574707,-3.0718536376953125,1.723876953125,0.05965614318847656,-0.042611122131347656,-0.02982807159423828,0.5739192962646484,0.5483694076538086,-0.5284318923950195,0.3011589050292969
63,87058560.0,9.147326469421387,-3.0527000427246094,1.6436691284179688,0.05965614318847656,-0.042611122131347656,-0.02982807159423828,0.5739192962646484,0.5483694076538086,-0.5284318923950195,0.3011589050292969
64,87058576.0,8.947403907775879,-3.120936393737793,1.5347299575805664,0.05965614318847656,-0.042611122131347656,-0.02982807159423828,0.5739192962646484,0.5483694076538086,-0.5284318923950195,0.3011589050292969
65,87058592.0,9.111412048339844,-3.1388940811157227,1.5203638076782227,0.05965614318847656,-0.042611122131347656,-0.02982807159423828,0.5739192962646484,0.5483694076538086,-0.5284318923950195,0.3011589050292969
66,87058616.0,9.364007949829102,-3.010800361633301,1.4593095779418945,0.05965614318847656,-0.042611122131347656,-0.02982807159423828,0.5739192962646484,0.5483694076538086,-0.5284318923950195,0.3011589050292969
67,87058632.0,9.183239936828613,-2.935379981994629,1.3539619445800781,0.05965614318847656,-0.042611122131347656,-0.02982807159423828,0.5739192962646484,0.5483694076538086,-0.5284318923950195,0.3011589050292969
68,87058656.0,9.021626472473145,-2.936577796936035,1.4317760467529297,-0.06817817687988281,0.0628519058227539,0.02769756317138672,0.5739192962646484,0.5483694076538086,-0.5284318923950195,0.3011589050292969
69,87058656.0,9.021626472473145,-2.936577796936035,1.4317760467529297,-0.06817817687988281,0.0628519058227539,0.02769756317138672,0.5739192962646484,0.5483694076538086,-0.5284318923950195,0.3011589050292969
70,87058672.0,9.06592082977295,-3.0455169677734375,1.453324317932129,-0.0745706558227539,0.025567054748535156,0.0031957626342773438,0.5739192962646484,0.5483694076538086,-0.5284318923950195,0.3011589050292969
71,87058672.0,9.06592082977295,-3.0455169677734375,1.453324317932129,-0.0745706558227539,0.025567054748535156,0.0031957626342773438,0.5739192962646484,0.5483694076538086,-0.5284318923950195,0.3011589050292969
72,87058696.0,9.142537117004395,-3.0706567764282227,1.4281845092773438,-0.031958580017089844,0.0170440673828125,-0.014913558959960938,0.5739192962646484,0.5483694076538086,-0.5284318923950195,0.3011589050292969
73,87058696.0,9.142537117004395,-3.0706567764282227,1.4281845092773438,-0.031958580017089844,0.0170440673828125,-0.014913558959960938,0.5739192962646484,0.5483694076538086,-0.5284318923950195,0.3011589050292969
74,87058712.0,9.09345531463623,-2.9940404891967773,1.364736557006836,-0.022370338439941406,0.0063915252685546875,-0.021305084228515625,0.5739192962646484,0.5483694076538086,-0.5284318923950195,0.3011589050292969
75,87058712.0,9.09345531463623,-2.9940404891967773,1.364736557006836,-0.022370338439941406,0.0063915252685546875,-0.021305084228515625,0.5739192962646484,0.5483694076538086,-0.5284318923950195,0.3011589050292969
76,87058736.0,9.028809547424316,-3.098191261291504,1.4210014343261719,-0.04474163055419922,0.005326271057128906,-0.030893325805664062,0.5739192962646484,0.5483694076538086,-0.5284318923950195,0.3011589050292969
77,87058736.0,9.028809547424316,-3.098191261291504,1.4210014343261719,-0.04474163055419922,0.005326271057128906,-0.030893325805664062,0.5739192962646484,0.5483694076538086,-0.5284318923950195,0.3011589050292969
78,87058856.0,9.080286026000977,-3.3268442153930664,1.5694465637207031,-0.04474163055419922,0.005326271057128906,-0.030893325805664062,0.575861930847168,0.5459527969360352,-0.5328340530395508,0.29395103454589844
79,87058872.0,9.130566596984863,-3.1664276123046875,1.60296630859375,-0.04474163055419922,0.005326271057128906,-0.030893325805664062,0.575861930847168,0.5459527969360352,-0.5328340530395508,0.29395103454589844
80,87058896.0,9.176057815551758,-3.0467138290405273,1.6412744522094727,-0.04474163055419922,0.005326271057128906,-0.030893325805664062,0.575861930847168,0.5459527969360352,-0.5328340530395508,0.29395103454589844
81,87058912.0,9.100637435913086,-3.021574020385742,1.6137409210205078,-0.04474163055419922,0.005326271057128906,-0.030893325805664062,0.575861930847168,0.5459527969360352,-0.5328340530395508,0.29395103454589844
82,87058936.0,9.104228973388672,-3.061079978942871,1.6556406021118164,-0.04474163055419922,0.005326271057128906,-0.030893325805664062,0.575861930847168,0.5459527969360352,-0.5328340530395508,0.29395103454589844
83,87058952.0,9.192817687988281,-3.1388940811157227,1.6640205383300781,0.04900360107421875,-0.021305084228515625,-0.012783050537109375,0.575861930847168,0.5459527969360352,-0.5328340530395508,0.29395103454589844
84,87058952.0,9.192817687988281,-3.1388940811157227,1.6640205383300781,0.04900360107421875,-0.021305084228515625,-0.012783050537109375,0.575861930847168,0.5459527969360352,-0.5328340530395508,0.29395103454589844
85,87058976.0,9.247885704040527,-3.1101627349853516,1.6149377822875977,0.053264617919921875,-0.01597881317138672,-0.0010652542114257812,0.575861930847168,0.5459527969360352,-0.5328340530395508,0.29395103454589844
86,87058976.0,9.247885704040527,-3.1101627349853516,1.6149377822875977,0.053264617919921875,-0.01597881317138672,-0.0010652542114257812,0.575861930847168,0.5459527969360352,-0.5328340530395508,0.29395103454589844
87,87058992.0,9.245491027832031,-3.0455169677734375,1.5886011123657227,0.03941535949707031,-0.007456779479980469,0.004261016845703125,0.575861930847168,0.5459527969360352,-0.5328340530395508,0.29395103454589844
88,87058992.0,9.245491027832031,-3.0455169677734375,1.5886011123657227,0.03941535949707031,-0.007456779479980469,0.004261016845703125,0.575861930847168,0.5459527969360352,-0.5328340530395508,0.29395103454589844
89,87059016.0,9.128171920776367,-3.088613510131836,1.5682497024536133,0.005326271057128906,0.014913558959960938,0.00852203369140625,0.575861930847168,0.5459527969360352,-0.5328340530395508,0.29395103454589844
90,87059016.0,9.128171920776367,-3.088613510131836,1.5682497024536133,0.005326271057128906,0.014913558959960938,0.00852203369140625,0.575861930847168,0.5459527969360352,-0.5328340530395508,0.29395103454589844
91,87059032.0,9.118595123291016,-3.116147994995117,1.5862064361572266,0.01810932159423828,0.0031957626342773438,0.007456779479980469,0.575861930847168,0.5459527969360352,-0.5328340530395508,0.29395103454589844
92,87059032.0,9.118595123291016,-3.116147994995117,1.5862064361572266,0.01810932159423828,0.0031957626342773438,0.007456779479980469,0.575861930847168,0.5459527969360352,-0.5328340530395508,0.29395103454589844
93,87059152.0,9.250279426574707,-3.0048141479492188,1.5502920150756836,0.05965614318847656,-0.007456779479980469,-0.011717796325683594,0.575861930847168,0.5459527969360352,-0.5328340530395508,0.29395103454589844
94,87059176.0,9.211971282958984,-2.948549270629883,1.5957832336425781,0.0031957626342773438,0.010652542114257812,-0.00852203369140625,0.575861930847168,0.5459527969360352,-0.5328340530395508,0.29395103454589844
95,87059192.0,9.091060638427734,-3.0706567764282227,1.5598697662353516,-0.05113410949707031,0.023435592651367188,-0.005326271057128906,0.575861930847168,0.5459527969360352,-0.5328340530395508,0.29395103454589844
96,87059216.0,9.069512367248535,-3.2202987670898438,1.5598697662353516,-0.0021305084228515625,0.0063915252685546875,-0.011717796325683594,0.575861930847168,0.5459527969360352,-0.5328340530395508,0.29395103454589844
97,87059232.0,9.11620044708252,-3.1089649200439453,1.5634613037109375,0.09374523162841797,-0.009587287902832031,-0.021305084228515625,0.575861930847168,0.5459527969360352,-0.5328340530395508,0.29395103454589844
98,87059256.0,9.132960319519043,-2.9222116470336914,1.635289192199707,0.09481048583984375,-0.00852203369140625,-0.019174575805664062,0.575861930847168,0.5459527969360352,-0.5328340530395508,0.29395103454589844
99,87059272.0,9.137748718261719,-2.8994665145874023,1.5646581649780273,0.007456779479980469,-0.0031957626342773438,-0.020239830017089844,0.575861930847168,0.5459527969360352,-0.5328340530395508,0.29395103454589844
100,87059296.0,9.031203269958496,-3.113753318786621,1.576629638671875,-0.024501800537109375,0.02769756317138672,-0.010652542114257812,0.575861930847168,0.5459527969360352,-0.5328340530395508,0.29395103454589844
101,87059312.0,9.09584903717041,-3.119739532470703,1.5610666275024414,0.0170440673828125,-0.0031957626342773438,-0.020239830017089844,0.575861930847168,0.5459527969360352,-0.5328340530395508,0.29395103454589844
102,87059328.0,9.308939933776855,-3.027560234069824,1.6281061172485352,0.04900360107421875,-0.021305084228515625,-0.0170440673828125,0.575861930847168,0.5459527969360352,-0.5328340530395508,0.29395103454589844
103,87059352.0,9.271828651428223,-2.998828887939453,1.5431098937988281,0.04900360107421875,-0.021305084228515625,-0.0170440673828125,0.575861930847168,0.5459527969360352,-0.5328340530395508,0.29395103454589844
104,87059376.0,9.205986022949219,-2.9808712005615234,1.5562782287597656,0.04900360107421875,-0.021305084228515625,-0.0170440673828125,0.575861930847168,0.5459527969360352,-0.5328340530395508,0.29395103454589844
105,87059392.0,9.16767692565918,-2.941366195678711,1.5957832336425781,0.04900360107421875,-0.021305084228515625,-0.0170440673828125,0.575861930847168,0.5459527969360352,-0.5328340530395508,0.29395103454589844
106,87059408.0,9.137748718261719,-2.9904489517211914,1.5981779098510742,0.04900360107421875,-0.021305084228515625,-0.0170440673828125,0.575861930847168,0.5459527969360352,-0.5328340530395508,0.29395103454589844
107,87059432.0,9.16767692565918,-2.996434211730957,1.5323352813720703,0.04900360107421875,-0.021305084228515625,-0.0170440673828125,0.575861930847168,0.5459527969360352,-0.5328340530395508,0.29395103454589844
108,87059456.0,9.07669448852539,-2.989251136779785,1.5874032974243164,0.025567054748535156,0.00852203369140625,-0.024501800537109375,0.575861930847168,0.5459527969360352,-0.5328340530395508,0.29395103454589844
109,87059472.0,8.958178520202637,-2.9222116470336914,1.6077547073364258,0.053264617919921875,-0.004261016845703125,-0.05965614318847656,0.575861930847168,0.5459527969360352,-0.5328340530395508,0.29395103454589844
110,87059488.0,9.081483840942383,-2.873128890991211,1.6137409210205078,0.03728485107421875,-0.023435592651367188,-0.07989692687988281,0.575861930847168,0.5459527969360352,-0.5328340530395508,0.29395103454589844
111,87059512.0,9.1868314743042,-2.940169334411621,1.5526866912841797,-0.011717796325683594,-0.010652542114257812,-0.08202743530273438,0.575861930847168,0.5459527969360352,-0.5328340530395508,0.29395103454589844
112,87059528.0,9.131763458251953,-3.03115177154541,1.5862064361572266,-0.03941535949707031,0.013848304748535156,-0.07563591003417969,0.575861930847168,0.5459527969360352,-0.5328340530395508,0.29395103454589844
113,87059648.0,9.105425834655762,-3.095796585083008,1.6819772720336914,-0.03941535949707031,0.013848304748535156,-0.07563591003417969,0.5702075958251953,0.546168327331543,-0.5331354141235352,0.30374813079833984
114,87059672.0,9.253870964050293,-2.995237350463867,1.6700057983398438,-0.03941535949707031,0.013848304748535156,-0.07563591003417969,0.5702075958251953,0.546168327331543,-0.5331354141235352,0.30374813079833984
115,87059688.0,9.223942756652832,-2.96291446685791,1.6664142608642578,-0.03941535949707031,0.013848304748535156,-0.07563591003417969,0.5702075958251953,0.546168327331543,-0.5331354141235352,0.30374813079833984
116,87059712.0,9.089863777160645,-2.9832658767700195,1.674795150756836,-0.03941535949707031,0.013848304748535156,-0.07563591003417969,0.5702075958251953,0.546168327331543,-0.5331354141235352,0.30374813079833984
117,87059728.0,9.155706405639648,-2.9473514556884766,1.67120361328125,-0.03941535949707031,0.013848304748535156,-0.07563591003417969,0.5702075958251953,0.546168327331543,-0.5331354141235352,0.30374813079833984
118,87059752.0,9.261054039001465,-2.874326705932617,1.6831750869750977,-0.0063915252685546875,0.0031957626342773438,0.010652542114257812,0.5702075958251953,0.546168327331543,-0.5331354141235352,0.30374813079833984
119,87059752.0,9.261054039001465,-2.874326705932617,1.6831750869750977,-0.0063915252685546875,0.0031957626342773438,0.010652542114257812,0.5702075958251953,0.546168327331543,-0.5331354141235352,0.30374813079833984
120,87059768.0,9.211971282958984,-2.9281978607177734,1.6101493835449219,-0.033023834228515625,0.033023834228515625,0.024501800537109375,0.5702075958251953,0.546168327331543,-0.5331354141235352,0.30374813079833984
121,87059768.0,9.211971282958984,-2.9281978607177734,1.6101493835449219,-0.033023834228515625,0.033023834228515625,0.024501800537109375,0.5702075958251953,0.546168327331543,-0.5331354141235352,0.30374813079833984
122,87059792.0,9.138946533203125,-2.934183120727539,1.5778264999389648,-0.023435592651367188,0.03621959686279297,0.03515434265136719,0.5702075958251953,0.546168327331543,-0.5331354141235352,0.30374813079833984
123,87059792.0,9.138946533203125,-2.934183120727539,1.5778264999389648,-0.023435592651367188,0.03621959686279297,0.03515434265136719,0.5702075958251953,0.546168327331543,-0.5331354141235352,0.30374813079833984
124,87059808.0,9.176057815551758,-2.8922834396362305,1.5826148986816406,0.0031957626342773438,0.0170440673828125,0.040480613708496094,0.5702075958251953,0.546168327331543,-0.5331354141235352,0.30374813079833984
125,87059808.0,9.176057815551758,-2.8922834396362305,1.5826148986816406,0.0031957626342773438,0.0170440673828125,0.040480613708496094,0.5702075958251953,0.546168327331543,-0.5331354141235352,0.30374813079833984
126,87059832.0,9.222745895385742,-2.850383758544922,1.4880409240722656,0.013848304748535156,0.007456779479980469,0.041545867919921875,0.5702075958251953,0.546168327331543,-0.5331354141235352,0.30374813079833984
127,87059832.0,9.222745895385742,-2.850383758544922,1.4880409240722656,0.013848304748535156,0.007456779479980469,0.041545867919921875,0.5702075958251953,0.546168327331543,-0.5331354141235352,0.30374813079833984
128,87060048.0,9.158100128173828,-2.9617176055908203,1.6556406021118164,-0.024501800537109375,-0.021305084228515625,0.004261016845703125,0.5710277557373047,0.5474205017089844,-0.5317115783691406,0.30249691009521484
129,87060048.0,9.158100128173828,-2.9617176055908203,1.6556406021118164,-0.024501800537109375,-0.021305084228515625,0.004261016845703125,0.5710277557373047,0.5474205017089844,-0.5317115783691406,0.30249691009521484
130,87060072.0,9.120988845825195,-2.9545345306396484,1.723876953125,-0.024501800537109375,-0.021305084228515625,0.004261016845703125,0.5710277557373047,0.5474205017089844,-0.5317115783691406,0.30249691009521484
131,87060072.0,9.120988845825195,-2.9545345306396484,1.723876953125,-0.024501800537109375,-0.021305084228515625,0.004261016845703125,0.5710277557373047,0.5474205017089844,-0.5317115783691406,0.30249691009521484
132,87060088.0,9.188028335571289,-2.879115104675293,1.693948745727539,-0.024501800537109375,-0.021305084228515625,0.004261016845703125,0.5710277557373047,0.5474205017089844,-0.5317115783691406,0.30249691009521484
133,87060088.0,9.188028335571289,-2.879115104675293,1.693948745727539,-0.024501800537109375,-0.021305084228515625,0.004261016845703125,0.5710277557373047,0.5474205017089844,-0.5317115783691406,0.30249691009521484
134,87060112.0,9.178451538085938,-2.874326705932617,1.6843719482421875,-0.024501800537109375,-0.021305084228515625,0.004261016845703125,0.5710277557373047,0.5474205017089844,-0.5317115783691406,0.30249691009521484
135,87060112.0,9.178451538085938,-2.874326705932617,1.6843719482421875,-0.024501800537109375,-0.021305084228515625,0.004261016845703125,0.5710277557373047,0.5474205017089844,-0.5317115783691406,0.30249691009521484
136,87060128.0,9.09465217590332,-3.0155887603759766,1.697540283203125,-0.024501800537109375,-0.021305084228515625,0.004261016845703125,0.5710277557373047,0.5474205017089844,-0.5317115783691406,0.30249691009521484
137,87060128.0,9.09465217590332,-3.0155887603759766,1.697540283203125,-0.024501800537109375,-0.021305084228515625,0.004261016845703125,0.5710277557373047,0.5474205017089844,-0.5317115783691406,0.30249691009521484
138,87060248.0,9.28499698638916,-2.9473514556884766,1.5897979736328125,-0.01810932159423828,0.0,0.026632308959960938,0.5710277557373047,0.5474205017089844,-0.5317115783691406,0.30249691009521484
139,87060272.0,9.262250900268555,-2.968899726867676,1.5419120788574219,-0.019174575805664062,0.0063915252685546875,0.02982807159423828,0.5710277557373047,0.5474205017089844,-0.5317115783691406,0.30249691009521484
140,87060288.0,9.154508590698242,-2.9581260681152344,1.5574750900268555,0.0,0.00852203369140625,0.021305084228515625,0.5710277557373047,0.5474205017089844,-0.5317115783691406,0.30249691009521484
141,87060304.0,9.136551856994629,-2.967702865600586,1.5909948348999023,0.020239830017089844,-0.0021305084228515625,0.012783050537109375,0.5710277557373047,0.5474205017089844,-0.5317115783691406,0.30249691009521484
142,87060328.0,9.197606086730957,-2.8527774810791016,1.606557846069336,0.020239830017089844,-0.0021305084228515625,0.010652542114257812,0.5710277557373047,0.5474205017089844,-0.5317115783691406,0.30249691009521484
143,87060352.0,9.219154357910156,-2.8779172897338867,1.6101493835449219,0.020239830017089844,-0.0021305084228515625,0.010652542114257812,0.5710277557373047,0.5474205017089844,-0.5317115783691406,0.30249691009521484
144,87060352.0,9.219154357910156,-2.8779172897338867,1.6101493835449219,0.020239830017089844,-0.0021305084228515625,0.010652542114257812,0.5710277557373047,0.5474205017089844,-0.5317115783691406,0.30249691009521484
145,87060368.0,9.147326469421387,-3.0048141479492188,1.5790233612060547,0.020239830017089844,-0.0021305084228515625,0.010652542114257812,0.5710277557373047,0.5474205017089844,-0.5317115783691406,0.30249691009521484
146,87060368.0,9.147326469421387,-3.0048141479492188,1.5790233612060547,0.020239830017089844,-0.0021305084228515625,0.010652542114257812,0.5710277557373047,0.5474205017089844,-0.5317115783691406,0.30249691009521484
147,87060392.0,9.073103904724121,-3.0347423553466797,1.5586719512939453,0.020239830017089844,-0.0021305084228515625,0.010652542114257812,0.5710277557373047,0.5474205017089844,-0.5317115783691406,0.30249691009521484
148,87060392.0,9.073103904724121,-3.0347423553466797,1.5586719512939453,0.020239830017089844,-0.0021305084228515625,0.010652542114257812,0.5710277557373047,0.5474205017089844,-0.5317115783691406,0.30249691009521484
149,87060408.0,9.092257499694824,-3.037137031555176,1.5502920150756836,0.020239830017089844,-0.0021305084228515625,0.010652542114257812,0.5710277557373047,0.5474205017089844,-0.5317115783691406,0.30249691009521484
150,87060408.0,9.092257499694824,-3.037137031555176,1.5502920150756836,0.020239830017089844,-0.0021305084228515625,0.010652542114257812,0.5710277557373047,0.5474205017089844,-0.5317115783691406,0.30249691009521484
151,87060432.0,9.239505767822266,-3.026362419128418,1.5502920150756836,0.020239830017089844,-0.0021305084228515625,0.010652542114257812,0.5710277557373047,0.5474205017089844,-0.5317115783691406,0.30249691009521484
152,87060432.0,9.239505767822266,-3.026362419128418,1.5502920150756836,0.020239830017089844,-0.0021305084228515625,0.010652542114257812,0.5710277557373047,0.5474205017089844,-0.5317115783691406,0.30249691009521484
153,87060544.0,9.0754976272583,-3.0718536376953125,1.5203638076782227,0.004261016845703125,0.0,0.02769756317138672,0.5710277557373047,0.5474205017089844,-0.5317115783691406,0.30249691009521484
154,87060544.0,9.0754976272583,-3.0718536376953125,1.5203638076782227,0.004261016845703125,0.0,0.02769756317138672,0.5710277557373047,0.5474205017089844,-0.5317115783691406,0.30249691009521484
155,87060568.0,9.079089164733887,-3.1628360748291016,1.5012102127075195,0.004261016845703125,0.0,0.02769756317138672,0.5710277557373047,0.5474205017089844,-0.5317115783691406,0.30249691009521484
156,87060568.0,9.079089164733887,-3.1628360748291016,1.5012102127075195,0.004261016845703125,0.0,0.02769756317138672,0.5710277557373047,0.5474205017089844,-0.5317115783691406,0.30249691009521484
157,87060592.0,9.160494804382324,-3.1400909423828125,1.5634613037109375,0.004261016845703125,0.0,0.02769756317138672,0.5710277557373047,0.5474205017089844,-0.5317115783691406,0.30249691009521484
158,87060592.0,9.160494804382324,-3.1400909423828125,1.5634613037109375,0.004261016845703125,0.0,0.02769756317138672,0.5710277557373047,0.5474205017089844,-0.5317115783691406,0.30249691009521484
159,87060608.0,9.168874740600586,-3.1293163299560547,1.5957832336425781,0.004261016845703125,0.0,0.02769756317138672,0.5710277557373047,0.5474205017089844,-0.5317115783691406,0.30249691009521484
160,87060608.0,9.168874740600586,-3.1293163299560547,1.5957832336425781,0.004261016845703125,0.0,0.02769756317138672,0.5710277557373047,0.5474205017089844,-0.5317115783691406,0.30249691009521484
161,87060624.0,9.176057815551758,-3.130514144897461,1.5275468826293945,0.004261016845703125,0.0,0.02769756317138672,0.5710277557373047,0.5474205017089844,-0.5317115783691406,0.30249691009521484
162,87060624.0,9.176057815551758,-3.130514144897461,1.5275468826293945,0.004261016845703125,0.0,0.02769756317138672,0.5710277557373047,0.5474205017089844,-0.5317115783691406,0.30249691009521484
163,87060648.0,9.068314552307129,-3.064671516418457,1.5610666275024414,0.004261016845703125,0.0,0.02769756317138672,0.5710277557373047,0.5474205017089844,-0.5317115783691406,0.30249691009521484
164,87060672.0,9.138946533203125,-2.9653091430664062,1.6376838684082031,0.004261016845703125,0.0,0.02769756317138672,0.5710277557373047,0.5474205017089844,-0.5317115783691406,0.30249691009521484
165,87060688.0,9.244294166564941,-2.9509429931640625,1.6221208572387695,0.004261016845703125,0.0,0.02769756317138672,0.5710277557373047,0.5474205017089844,-0.5317115783691406,0.30249691009521484
166,87060704.0,9.179648399353027,-3.007208824157715,1.6257123947143555,0.004261016845703125,0.0,0.02769756317138672,0.5710277557373047,0.5474205017089844,-0.5317115783691406,0.30249691009521484
167,87060728.0,9.161691665649414,-3.088613510131836,1.6233177185058594,0.004261016845703125,0.0,0.02769756317138672,0.5710277557373047,0.5474205017089844,-0.5317115783691406,0.30249691009521484
168,87060856.0,9.209577560424805,-2.9293947219848633,1.606557846069336,0.005326271057128906,-0.00852203369140625,0.020239830017089844,0.5704231262207031,0.5529012680053711,-0.5251083374023438,0.3051719665527344
169,87060880.0,9.14493179321289,-2.9198179244995117,1.5886011123657227,0.005326271057128906,-0.00852203369140625,0.020239830017089844,0.5704231262207031,0.5529012680053711,-0.5251083374023438,0.3051719665527344
170,87060896.0,9.100637435913086,-3.029953956604004,1.5790233612060547,0.005326271057128906,-0.00852203369140625,0.020239830017089844,0.5704231262207031,0.5529012680053711,-0.5251083374023438,0.3051719665527344
171,87060912.0,9.179648399353027,-3.0730514526367188,1.5299406051635742,0.005326271057128906,-0.00852203369140625,0.020239830017089844,0.5704231262207031,0.5529012680053711,-0.5251083374023438,0.3051719665527344
172,87060936.0,9.257462501525879,-3.022770881652832,1.4736757278442383,0.005326271057128906,-0.00852203369140625,0.020239830017089844,0.5704231262207031,0.5529012680053711,-0.5251083374023438,0.3051719665527344
173,87060960.0,9.148523330688477,-3.0191802978515625,1.5071954727172852,0.005326271057128906,-0.00852203369140625,0.020239830017089844,0.5704231262207031,0.5529012680053711,-0.5251083374023438,0.3051719665527344
174,87060960.0,9.148523330688477,-3.0191802978515625,1.5071954727172852,0.005326271057128906,-0.00852203369140625,0.020239830017089844,0.5704231262207031,0.5529012680053711,-0.5251083374023438,0.3051719665527344
175,87060976.0,9.052752494812012,-2.9557313919067383,1.5215606689453125,0.005326271057128906,-0.00852203369140625,0.020239830017089844,0.5704231262207031,0.5529012680053711,-0.5251083374023438,0.3051719665527344
176,87060976.0,9.052752494812012,-2.9557313919067383,1.5215606689453125,0.005326271057128906,-0.00852203369140625,0.020239830017089844,0.5704231262207031,0.5529012680053711,-0.5251083374023438,0.3051719665527344
177,87060992.0,9.11620044708252,-3.0407285690307617,1.5275468826293945,0.005326271057128906,-0.00852203369140625,0.020239830017089844,0.5704231262207031,0.5529012680053711,-0.5251083374023438,0.3051719665527344
178,87060992.0,9.11620044708252,-3.0407285690307617,1.5275468826293945,0.005326271057128906,-0.00852203369140625,0.020239830017089844,0.5704231262207031,0.5529012680053711,-0.5251083374023438,0.3051719665527344
179,87061016.0,9.148523330688477,-3.094599723815918,1.5191669464111328,0.005326271057128906,-0.00852203369140625,0.020239830017089844,0.5704231262207031,0.5529012680053711,-0.5251083374023438,0.3051719665527344
180,87061016.0,9.148523330688477,-3.094599723815918,1.5191669464111328,0.005326271057128906,-0.00852203369140625,0.020239830017089844,0.5704231262207031,0.5529012680053711,-0.5251083374023438,0.3051719665527344
181,87061032.0,9.194014549255371,-3.010800361633301,1.5167722702026367,0.005326271057128906,-0.00852203369140625,0.020239830017089844,0.5704231262207031,0.5529012680053711,-0.5251083374023438,0.3051719665527344
182,87061032.0,9.194014549255371,-3.010800361633301,1.5167722702026367,0.005326271057128906,-0.00852203369140625,0.020239830017089844,0.5704231262207031,0.5529012680053711,-0.5251083374023438,0.3051719665527344
183,87061056.0,9.159296989440918,-2.995237350463867,1.5275468826293945,-0.0170440673828125,-0.0031957626342773438,-0.0010652542114257812,0.5704231262207031,0.5529012680053711,-0.5251083374023438,0.3051719665527344
184,87061072.0,9.103032112121582,-2.998828887939453,1.544306755065918,-0.031958580017089844,-0.0031957626342773438,-0.005326271057128906,0.5704231262207031,0.5529012680053711,-0.5251083374023438,0.3051719665527344
185,87061096.0,9.124580383300781,-3.065868377685547,1.5586719512939453,-0.0287628173828125,-0.01810932159423828,-0.004261016845703125,0.5704231262207031,0.5529012680053711,-0.5251083374023438,0.3051719665527344
186,87061112.0,9.222745895385742,-3.0455169677734375,1.5526866912841797,-0.014913558959960938,-0.0287628173828125,-0.0063915252685546875,0.5704231262207031,0.5529012680053711,-0.5251083374023438,0.3051719665527344
187,87061136.0,9.249082565307617,-3.0048141479492188,1.5814180374145508,-0.01810932159423828,-0.009587287902832031,-0.007456779479980469,0.5704231262207031,0.5529012680053711,-0.5251083374023438,0.3051719665527344
188,87061152.0,9.083877563476562,-3.001222610473633,1.6340923309326172,-0.0287628173828125,0.0021305084228515625,-0.011717796325683594,0.5704231262207031,0.5529012680053711,-0.5251083374023438,0.3051719665527344
189,87061176.0,9.132960319519043,-3.0850229263305664,1.6173324584960938,-0.021305084228515625,-0.0170440673828125,-0.010652542114257812,0.5704231262207031,0.5529012680053711,-0.5251083374023438,0.3051719665527344
190,87061192.0,9.205986022949219,-3.025165557861328,1.6197261810302734,0.0,-0.021305084228515625,-0.009587287902832031,0.5704231262207031,0.5529012680053711,-0.5251083374023438,0.3051719665527344
191,87061216.0,9.219154357910156,-3.025165557861328,1.6269092559814453,-0.024501800537109375,-0.010652542114257812,-0.0063915252685546875,0.5704231262207031,0.5529012680053711,-0.5251083374023438,0.3051719665527344
192,87061232.0,9.131763458251953,-3.087416648864746,1.6257123947143555,-0.03515434265136719,0.0010652542114257812,-0.0021305084228515625,0.5704231262207031,0.5529012680053711,-0.5251083374023438,0.3051719665527344
193,87061256.0,9.087469100952148,-3.1041765213012695,1.605360984802246,-0.03515434265136719,0.0010652542114257812,-0.0021305084228515625,0.5704231262207031,0.5529012680053711,-0.5251083374023438,0.3051719665527344
194,87061272.0,9.081483840942383,-3.1053733825683594,1.5874032974243164,-0.03515434265136719,0.0010652542114257812,-0.0021305084228515625,0.5704231262207031,0.5529012680053711,-0.5251083374023438,0.3051719665527344
195,87061296.0,9.100637435913086,-3.1616392135620117,1.5622634887695312,-0.03515434265136719,0.0010652542114257812,-0.0021305084228515625,0.5704231262207031,0.5529012680053711,-0.5251083374023438,0.3051719665527344
196,87061312.0,9.14612865447998,-3.150864601135254,1.6556406021118164,-0.03515434265136719,0.0010652542114257812,-0.0021305084228515625,0.5704231262207031,0.5529012680053711,-0.5251083374023438,0.3051719665527344
197,87061336.0,9.0970458984375,-3.1939620971679688,1.7095117568969727,-0.03515434265136719,0.0010652542114257812,-0.0021305084228515625,0.5704231262207031,0.5529012680053711,-0.5251083374023438,0.3051719665527344
198,87061360.0,9.077892303466797,-3.4130382537841797,1.599374771118164,0.09694194793701172,-0.02769756317138672,-0.0021305084228515625,0.5704231262207031,0.5529012680053711,-0.5251083374023438,0.3051719665527344
199,87061376.0,9.089863777160645,-3.345998764038086,1.6281061172485352,0.22584247589111328,-0.02982807159423828,-0.011717796325683594,0.5704231262207031,0.5529012680053711,-0.5251083374023438,0.3051719665527344
200,87061392.0,9.059934616088867,-3.1257247924804688,1.7154970169067383,0.21092796325683594,-0.03621959686279297,0.0010652542114257812,0.5704231262207031,0.5529012680053711,-0.5251083374023438,0.3051719665527344
201,87061416.0,9.229928970336914,-3.1987504959106445,1.795705795288086,0.042611122131347656,-0.07244014739990234,0.02982807159423828,0.5704231262207031,0.5529012680053711,-0.5251083374023438,0.3051719665527344
202,87061432.0,9.401119232177734,-3.2861413955688477,1.7681713104248047,-0.1320962905883789,-0.09694194793701172,0.07989692687988281,0.5704231262207031,0.5529012680053711,-0.5251083374023438,0.3051719665527344
203,87061456.0,9.790188789367676,-3.70394229888916,1.8531684875488281,-0.3185234069824219,-0.14701080322265625,0.13103103637695312,0.5704231262207031,0.5529012680053711,-0.5251083374023438,0.3051719665527344
204,87061472.0,10.47734546661377,-4.522784233093262,2.22188663482666,-0.42398738861083984,-0.2183856964111328,0.18216514587402344,0.5704231262207031,0.5529012680053711,-0.5251083374023438,0.3051719665527344
205,87061496.0,11.042394638061523,-5.56309700012207,3.0826282501220703,-0.2546052932739258,-0.3217191696166992,0.28443336486816406,0.5704231262207031,0.5529012680053711,-0.5251083374023438,0.3051719665527344
206,87061512.0,10.71677303314209,-7.599427223205566,3.500429153442383,0.29189109802246094,-0.4207916259765625,0.4889707565307617,0.5704231262207031,0.5529012680053711,-0.5251083374023438,0.3051719665527344
207,87061536.0,11.539206504821777,-9.450201988220215,3.148470878601074,1.0375986099243164,-0.8511714935302734,0.8064289093017578,0.5704231262207031,0.5529012680053711,-0.5251083374023438,0.3051719665527344
208,87061552.0,13.360052108764648,-11.579909324645996,3.8116846084594727,1.0375986099243164,-0.8511714935302734,0.8064289093017578,0.5704231262207031,0.5529012680053711,-0.5251083374023438,0.3051719665527344
209,87061576.0,15.882420539855957,-16.199661254882812,5.572673797607422,1.0375986099243164,-0.8511714935302734,0.8064289093017578,0.5704231262207031,0.5529012680053711,-0.5251083374023438,0.3051719665527344
210,87061592.0,20.985816955566406,-20.177749633789062,6.762628555297852,1.0375986099243164,-0.8511714935302734,0.8064289093017578,0.5704231262207031,0.5529012680053711,-0.5251083374023438,0.3051719665527344
211,87061616.0,27.580846786499023,-19.09912872314453,7.333662986755371,1.0375986099243164,-0.8511714935302734,0.8064289093017578,0.5704231262207031,0.5529012680053711,-0.5251083374023438,0.3051719665527344
212,87061632.0,26.716514587402344,-21.0097599029541,2.443356513977051,1.0375986099243164,-0.8511714935302734,0.8064289093017578,0.5704231262207031,0.5529012680053711,-0.5251083374023438,0.3051719665527344
213,87061656.0,20.82300567626953,-35.10246276855469,-2.375120162963867,-3.7999134063720703,-0.3813762664794922,7.918352127075195,0.5704231262207031,0.5529012680053711,-0.5251083374023438,0.3051719665527344
214,87061672.0,20.005361557006836,-39.226600646972656,-6.1724395751953125,-0.12250900268554688,-1.3795595169067383,8.571378707885742,0.5704231262207031,0.5529012680053711,-0.5251083374023438,0.3051719665527344
215,87061696.0,23.38727569580078,-30.687419891357422,-12.705218315124512,5.227411270141602,-1.9217948913574219,9.682483673095703,0.5704231262207031,0.5529012680053711,-0.5251083374023438,0.3051719665527344
216,87061712.0,23.595577239990234,-19.06920051574707,-16.694080352783203,6.312949180603027,-1.0290765762329102,10.699841499328613,0.5704231262207031,0.5529012680053711,-0.5251083374023438,0.3051719665527344
217,87061736.0,20.46506118774414,-17.17053985595703,-21.371295928955078,5.485213279724121,-0.44742393493652344,11.595756530761719,0.5704231262207031,0.5529012680053711,-0.5251083374023438,0.3051719665527344
218,87061752.0,22.72406005859375,-12.514873504638672,-23.277137756347656,5.485213279724121,-0.44742393493652344,11.595756530761719,0.5704231262207031,0.5529012680053711,-0.5251083374023438,0.3051719665527344
219,87061752.0,22.72406005859375,-12.514873504638672,-23.277137756347656,5.485213279724121,-0.44742393493652344,11.595756530761719,0.5704231262207031,0.5529012680053711,-0.5251083374023438,0.3051719665527344
220,87061776.0,26.386104583740234,-6.759037017822266,-16.99456024169922,5.485213279724121,-0.44742393493652344,11.595756530761719,0.5704231262207031,0.5529012680053711,-0.5251083374023438,0.3051719665527344
221,87061776.0,26.386104583740234,-6.759037017822266,-16.99456024169922,5.485213279724121,-0.44742393493652344,11.595756530761719,0.5704231262207031,0.5529012680053711,-0.5251083374023438,0.3051719665527344
222,87061792.0,26.842212677001953,-8.004059791564941,-17.263916015625,5.485213279724121,-0.44742393493652344,11.595756530761719,0.5704231262207031,0.5529012680053711,-0.5251083374023438,0.3051719665527344
223,87061792.0,26.842212677001953,-8.004059791564941,-17.263916015625,5.485213279724121,-0.44742393493652344,11.595756530761719,0.5704231262207031,0.5529012680053711,-0.5251083374023438,0.3051719665527344
224,87061816.0,28.2955379486084,-7.257045745849609,-20.174158096313477,5.485213279724121,-0.44742393493652344,11.595756530761719,0.5704231262207031,0.5529012680053711,-0.5251083374023438,0.3051719665527344
225,87061816.0,28.2955379486084,-7.257045745849609,-20.174158096313477,5.485213279724121,-0.44742393493652344,11.595756530761719,0.5704231262207031,0.5529012680053711,-0.5251083374023438,0.3051719665527344
226,87061832.0,28.46672821044922,2.8240461349487305,-18.112688064575195,5.485213279724121,-0.44742393493652344,11.595756530761719,0.5704231262207031,0.5529012680053711,-0.5251083374023438,0.3051719665527344
227,87061832.0,28.46672821044922,2.8240461349487305,-18.112688064575195,5.485213279724121,-0.44742393493652344,11.595756530761719,0.5704231262207031,0.5529012680053711,-0.5251083374023438,0.3051719665527344
228,87061856.0,25.654651641845703,10.583890914916992,-15.471802711486816,7.4325761795043945,0.7680788040161133,11.24527359008789,0.5704231262207031,0.5529012680053711,-0.5251083374023438,0.3051719665527344
229,87061872.0,20.522525787353516,12.997320175170898,-12.179675102233887,4.709677696228027,1.1771526336669922,10.207674980163574,0.5704231262207031,0.5529012680053711,-0.5251083374023438,0.3051719665527344
230,87061896.0,14.723591804504395,13.908341407775879,-8.801353454589844,1.8067426681518555,0.5752601623535156,8.804678916931152,0.5704231262207031,0.5529012680053711,-0.5251083374023438,0.3051719665527344
231,87061912.0,10.630578994750977,13.012882232666016,-5.840832710266113,0.1555328369140625,-0.6817893981933594,6.953192710876465,0.5704231262207031,0.5529012680053711,-0.5251083374023438,0.3051719665527344
232,87061936.0,9.069512367248535,13.76827621459961,-5.5583086013793945,0.5486278533935547,-1.715127944946289,4.553078651428223,0.5704231262207031,0.5529012680053711,-0.5251083374023438,0.3051719665527344
233,87061952.0,12.57832145690918,20.269927978515625,-3.8763303756713867,1.9729290008544922,-2.111417770385742,1.0067052841186523,0.5704231262207031,0.5529012680053711,-0.5251083374023438,0.3051719665527344
234,87061976.0,12.350865364074707,21.255172729492188,-0.0682363510131836,1.4349546432495117,-1.8131351470947266,-2.0890464782714844,0.5704231262207031,0.5529012680053711,-0.5251083374023438,0.3051719665527344
235,87061992.0,12.711203575134277,20.00177001953125,0.4046316146850586,0.1320962905883789,-1.8685302734375,-5.126208305358887,0.5704231262207031,0.5529012680053711,-0.5251083374023438,0.3051719665527344
236,87062016.0,16.285856246948242,19.852127075195312,-1.942953109741211,-1.7183237075805664,-2.0038232803344727,-7.950310707092285,0.5704231262207031,0.5529012680053711,-0.5251083374023438,0.3051719665527344
237,87062032.0,23.19094467163086,17.820587158203125,-4.145686149597168,-5.277480125427246,-1.9835824966430664,-10.694515228271484,0.5704231262207031,0.5529012680053711,-0.5251083374023438,0.3051719665527344
238,87062056.0,32.20179748535156,11.949824333190918,-8.030396461486816,-5.277480125427246,-1.9835824966430664,-10.694515228271484,0.5704231262207031,0.5529012680053711,-0.5251083374023438,0.3051719665527344
239,87062056.0,32.20179748535156,11.949824333190918,-8.030396461486816,-5.277480125427246,-1.9835824966430664,-10.694515228271484,0.5704231262207031,0.5529012680053711,-0.5251083374023438,0.3051719665527344
240,87062072.0,39.226600646972656,4.746648788452148,-14.188471794128418,-5.277480125427246,-1.9835824966430664,-10.694515228271484,0.5704231262207031,0.5529012680053711,-0.5251083374023438,0.3051719665527344
241,87062072.0,39.226600646972656,4.746648788452148,-14.188471794128418,-5.277480125427246,-1.9835824966430664,-10.694515228271484,0.5704231262207031,0.5529012680053711,-0.5251083374023438,0.3051719665527344
242,87062096.0,39.226600646972656,1.5167722702026367,-16.249942779541016,-5.277480125427246,-1.9835824966430664,-10.694515228271484,0.5704231262207031,0.5529012680053711,-0.5251083374023438,0.3051719665527344
243,87062096.0,39.226600646972656,1.5167722702026367,-16.249942779541016,-5.277480125427246,-1.9835824966430664,-10.694515228271484,0.5704231262207031,0.5529012680053711,-0.5251083374023438,0.3051719665527344
244,87062112.0,39.226600646972656,-12.683670043945312,-21.505374908447266,-5.277480125427246,-1.9835824966430664,-10.694515228271484,0.5704231262207031,0.5529012680053711,-0.5251083374023438,0.3051719665527344
245,87062112.0,39.226600646972656,-12.683670043945312,-21.505374908447266,-5.277480125427246,-1.9835824966430664,-10.694515228271484,0.5704231262207031,0.5529012680053711,-0.5251083374023438,0.3051719665527344
246,87062128.0,39.226600646972656,-22.786312103271484,-20.620689392089844,-5.277480125427246,-1.9835824966430664,-10.694515228271484,0.5704231262207031,0.5529012680053711,-0.5251083374023438,0.3051719665527344
247,87062128.0,39.226600646972656,-22.786312103271484,-20.620689392089844,-5.277480125427246,-1.9835824966430664,-10.694515228271484,0.5704231262207031,0.5529012680053711,-0.5251083374023438,0.3051719665527344
248,87062152.0,31.843852996826172,-18.967443466186523,-11.008874893188477,0.4250526428222656,4.05771541595459,-19.613182067871094,0.5704231262207031,0.5529012680053711,-0.5251083374023438,0.3051719665527344
249,87062176.0,28.313495635986328,-9.469355583190918,-9.3855562210083,-2.4043750762939453,1.2016544342041016,-19.666446685791016,0.5704231262207031,0.5529012680053711,-0.5251083374023438,0.3051719665527344
250,87062192.0,39.226600646972656,20.59914207458496,-19.41397476196289,-4.166376113891602,-4.540294647216797,-19.81132698059082,0.5704231262207031,0.5529012680053711,-0.5251083374023438,0.3051719665527344
251,87062208.0,39.226600646972656,-39.226600646972656,4.783760070800781,-9.140247344970703,-6.816834449768066,-16.847671508789062,0.5704231262207031,0.5529012680053711,-0.5251083374023438,0.3051719665527344
252,87062232.0,26.983474731445312,-38.64838409423828,-39.226600646972656,5.03565788269043,11.838644027709961,-14.597763061523438,0.5704231262207031,0.5529012680053711,-0.5251083374023438,0.3051719665527344
253,87062352.0,8.542771339416504,-1.9321794509887695,6.13532829284668,5.56511116027832,-0.38883304595947266,-2.0357818603515625,0.5704231262207031,0.5529012680053711,-0.5251083374023438,0.3051719665527344
254,87062352.0,8.542771339416504,-1.9321794509887695,6.13532829284668,5.56511116027832,-0.38883304595947266,-2.0357818603515625,0.5704231262207031,0.5529012680053711,-0.5251083374023438,0.3051719665527344
255,87062368.0,6.173636436462402,-5.18480110168457,2.150057792663574,2.474684715270996,-0.15979385375976562,0.5081462860107422,0.5704231262207031,0.5529012680053711,-0.5251083374023438,0.3051719665527344
256,87062368.0,6.173636436462402,-5.18480110168457,2.150057792663574,2.474684715270996,-0.15979385375976562,0.5081462860107422,0.5704231262207031,0.5529012680053711,-0.5251083374023438,0.3051719665527344
257,87062392.0,11.760677337646484,-5.37394905090332,2.248223304748535,2.7260942459106445,-0.8192129135131836,0.3930940628051758,0.5704231262207031,0.5529012680053711,-0.5251083374023438,0.3051719665527344
258,87062392.0,11.760677337646484,-5.37394905090332,2.248223304748535,2.7260942459106445,-0.8192129135131836,0.3930940628051758,0.5704231262207031,0.5529012680053711,-0.5251083374023438,0.3051719665527344
259,87062408.0,14.163331985473633,-1.1552371978759766,3.9972410202026367,1.9558849334716797,0.621068000793457,0.43464088439941406,0.5704231262207031,0.5529012680053711,-0.5251083374023438,0.3051719665527344
260,87062408.0,14.163331985473633,-1.1552371978759766,3.9972410202026367,1.9558849334716797,0.621068000793457,0.43464088439941406,0.5704231262207031,0.5529012680053711,-0.5251083374023438,0.3051719665527344
261,87062432.0,10.552764892578125,-2.2422380447387695,3.0790367126464844,0.13635730743408203,1.043990135192871,0.5134725570678711,0.5704231262207031,0.5529012680053711,-0.5251083374023438,0.3051719665527344
262,87062432.0,10.552764892578125,-2.2422380447387695,3.0790367126464844,0.13635730743408203,1.043990135192871,0.5134725570678711,0.5704231262207031,0.5529012680053711,-0.5251083374023438,0.3051719665527344
263,87062448.0,9.883565902709961,-3.6656341552734375,1.763382911682129,0.13635730743408203,1.043990135192871,0.5134725570678711,0.5704231262207031,0.5529012680053711,-0.5251083374023438,0.3051719665527344
264,87062472.0,9.273025512695312,-1.7849311828613281,-0.1077423095703125,0.13635730743408203,1.043990135192871,0.5134725570678711,0.5704231262207031,0.5529012680053711,-0.5251083374023438,0.3051719665527344
265,87062496.0,9.276617050170898,-0.45371437072753906,-0.6656074523925781,0.13635730743408203,1.043990135192871,0.5134725570678711,0.5704231262207031,0.5529012680053711,-0.5251083374023438,0.3051719665527344
266,87062512.0,11.162108421325684,-0.6596221923828125,-0.6608190536499023,0.13635730743408203,1.043990135192871,0.5134725570678711,0.5704231262207031,0.5529012680053711,-0.5251083374023438,0.3051719665527344
267,87062528.0,11.820533752441406,-0.7781391143798828,0.04309654235839844,0.13635730743408203,1.043990135192871,0.5134725570678711,0.5704231262207031,0.5529012680053711,-0.5251083374023438,0.3051719665527344
268,87062752.0,8.632556915283203,-3.903864860534668,0.0,0.4165306091308594,0.12250900268554688,0.019174575805664062,0.6550140380859375,0.4811286926269531,-0.539825439453125,0.21920108795166016
269,87062768.0,8.99409294128418,-4.230683326721191,0.12330436706542969,0.4165306091308594,0.12250900268554688,0.019174575805664062,0.6550140380859375,0.4811286926269531,-0.539825439453125,0.21920108795166016
270,87062792.0,9.043174743652344,-3.5854263305664062,0.055068016052246094,0.4165306091308594,0.12250900268554688,0.019174575805664062,0.6550140380859375,0.4811286926269531,-0.539825439453125,0.21920108795166016
271,87062808.0,8.690019607543945,-3.405855178833008,0.0790109634399414,0.4165306091308594,0.12250900268554688,0.019174575805664062,0.6550140380859375,0.4811286926269531,-0.539825439453125,0.21920108795166016
272,87062832.0,8.696004867553711,-3.77337646484375,0.2885093688964844,0.4165306091308594,0.12250900268554688,0.019174575805664062,0.6550140380859375,0.4811286926269531,-0.539825439453125,0.21920108795166016
273,87062848.0,9.129368782043457,-3.896681785583496,0.34597206115722656,0.17683887481689453,-0.09374523162841797,-0.11079025268554688,0.6550140380859375,0.4811286926269531,-0.539825439453125,0.21920108795166016
274,87062848.0,9.129368782043457,-3.896681785583496,0.34597206115722656,0.17683887481689453,-0.09374523162841797,-0.11079025268554688,0.6550140380859375,0.4811286926269531,-0.539825439453125,0.21920108795166016
275,87062872.0,9.504073143005371,-3.586623191833496,0.3711118698120117,0.2364950180053711,-0.05113410949707031,-0.10439872741699219,0.6550140380859375,0.4811286926269531,-0.539825439453125,0.21920108795166016
276,87062872.0,9.504073143005371,-3.586623191833496,0.3711118698120117,0.2364950180053711,-0.05113410949707031,-0.10439872741699219,0.6550140380859375,0.4811286926269531,-0.539825439453125,0.21920108795166016
277,87062888.0,9.37597942352295,-3.065868377685547,0.4597005844116211,0.013848304748535156,0.041545867919921875,-0.09907245635986328,0.6550140380859375,0.4811286926269531,-0.539825439453125,0.21920108795166016
278,87062888.0,9.37597942352295,-3.065868377685547,0.4597005844116211,0.013848304748535156,0.041545867919921875,-0.09907245635986328,0.6550140380859375,0.4811286926269531,-0.539825439453125,0.21920108795166016
279,87062912.0,9.06592082977295,-3.441769599914551,0.614130973815918,-0.3526124954223633,0.0628519058227539,-0.07350540161132812,0.6550140380859375,0.4811286926269531,-0.539825439453125,0.21920108795166016
280,87062912.0,9.06592082977295,-3.441769599914551,0.614130973815918,-0.3526124954223633,0.0628519058227539,-0.07350540161132812,0.6550140380859375,0.4811286926269531,-0.539825439453125,0.21920108795166016
281,87062928.0,8.99768352508545,-4.143291473388672,0.4597005844116211,-0.43570613861083984,0.009587287902832031,-0.04474163055419922,0.6550140380859375,0.4811286926269531,-0.539825439453125,0.21920108795166016
282,87062928.0,8.99768352508545,-4.143291473388672,0.4597005844116211,-0.43570613861083984,0.009587287902832031,-0.04474163055419922,0.6550140380859375,0.4811286926269531,-0.539825439453125,0.21920108795166016
283,87063048.0,9.269433975219727,-3.7614049911499023,0.38188648223876953,0.0,-0.0170440673828125,-0.022370338439941406,0.6550140380859375,0.4811286926269531,-0.539825439453125,0.21920108795166016
284,87063072.0,9.083877563476562,-3.993649482727051,0.4788541793823242,-0.01597881317138672,0.0031957626342773438,-0.02769756317138672,0.6550140380859375,0.4811286926269531,-0.539825439453125,0.21920108795166016
285,87063088.0,9.069512367248535,-4.090618133544922,0.587794303894043,0.11079025268554688,-0.01810932159423828,-0.045806884765625,0.6550140380859375,0.4811286926269531,-0.539825439453125,0.21920108795166016
286,87063112.0,9.138946533203125,-3.905061721801758,0.6608190536499023,0.30786991119384766,-0.025567054748535156,-0.06604766845703125,0.6550140380859375,0.4811286926269531,-0.539825439453125,0.21920108795166016
287,87063128.0,9.027612686157227,-3.489654541015625,0.6093425750732422,0.3504819869995117,-0.021305084228515625,-0.07989692687988281,0.6550140380859375,0.4811286926269531,-0.539825439453125,0.21920108795166016
288,87063152.0,8.889941215515137,-3.5195837020874023,0.6775789260864258,0.23223400115966797,-0.014913558959960938,-0.09907245635986328,0.6550140380859375,0.4811286926269531,-0.539825439453125,0.21920108795166016
289,87063168.0,8.901912689208984,-3.784151077270508,0.5937795639038086,0.2077322006225586,-0.02769756317138672,-0.10759449005126953,0.6550140380859375,0.4811286926269531,-0.539825439453125,0.21920108795166016
290,87063192.0,8.97374153137207,-3.960129737854004,0.42498302459716797,0.39948558807373047,-0.022370338439941406,-0.1384878158569336,0.6550140380859375,0.4811286926269531,-0.539825439453125,0.21920108795166016
291,87063208.0,9.09584903717041,-3.4166297912597656,0.7063102722167969,0.5859127044677734,0.0010652542114257812,-0.1384878158569336,0.6550140380859375,0.4811286926269531,-0.539825439453125,0.21920108795166016
292,87063232.0,9.037189483642578,-2.7222900390625,0.9912290573120117,0.44209766387939453,0.011717796325683594,-0.14168357849121094,0.6550140380859375,0.4811286926269531,-0.539825439453125,0.21920108795166016
293,87063248.0,9.089863777160645,-2.932986259460449,0.8990497589111328,0.04687213897705078,-0.0063915252685546875,-0.10865974426269531,0.6550140380859375,0.4811286926269531,-0.539825439453125,0.21920108795166016
294,87063264.0,9.220351219177246,-3.474092483520508,0.6189193725585938,-0.11398601531982422,-0.0031957626342773438,-0.08415794372558594,0.6550140380859375,0.4811286926269531,-0.539825439453125,0.21920108795166016
295,87063288.0,9.165283203125,-3.6069746017456055,0.5925827026367188,-0.020239830017089844,0.04367637634277344,-0.08522319793701172,0.6550140380859375,0.4811286926269531,-0.539825439453125,0.21920108795166016
296,87063312.0,9.018034934997559,-3.398672103881836,0.8116588592529297,0.054329872131347656,0.045806884765625,-0.07989692687988281,0.6550140380859375,0.4811286926269531,-0.539825439453125,0.21920108795166016
297,87063328.0,9.162888526916504,-3.276564598083496,0.8008842468261719,0.03515434265136719,-0.013848304748535156,-0.057525634765625,0.6550140380859375,0.4811286926269531,-0.539825439453125,0.21920108795166016
298,87063440.0,9.341261863708496,-3.1987504959106445,0.7362394332885742,0.03515434265136719,-0.013848304748535156,-0.057525634765625,0.6436634063720703,0.48505592346191406,-0.5464286804199219,0.2276163101196289
299,87063448.0,9.204788208007812,-3.27297306060791,0.7182817459106445,0.03515434265136719,-0.013848304748535156,-0.057525634765625,0.6436634063720703,0.48505592346191406,-0.5464286804199219,0.2276163101196289
300,87063456.0,9.061132431030273,-3.3483924865722656,0.7434215545654297,0.03515434265136719,-0.013848304748535156,-0.057525634765625,0.6436634063720703,0.48505592346191406,-0.5464286804199219,0.2276163101196289
301,87063472.0,9.035992622375488,-3.4142351150512695,0.8248271942138672,0.03515434265136719,-0.013848304748535156,-0.057525634765625,0.6436634063720703,0.48505592346191406,-0.5464286804199219,0.2276163101196289
302,87063480.0,9.091060638427734,-3.465712547302246,0.8212356567382812,0.03515434265136719,-0.013848304748535156,-0.057525634765625,0.6436634063720703,0.48505592346191406,-0.5464286804199219,0.2276163101196289
303,87063488.0,9.232322692871094,-3.4501495361328125,0.7972927093505859,0.03515434265136719,-0.013848304748535156,-0.057525634765625,0.6436634063720703,0.48505592346191406,-0.5464286804199219,0.2276163101196289
304,87063496.0,9.350839614868164,-3.3220558166503906,0.8008842468261719,0.03515434265136719,-0.013848304748535156,-0.057525634765625,0.6436634063720703,0.48505592346191406,-0.5464286804199219,0.2276163101196289
305,87063504.0,9.379570960998535,-3.2131166458129883,0.767364501953125,0.03515434265136719,-0.013848304748535156,-0.057525634765625,0.6436634063720703,0.48505592346191406,-0.5464286804199219,0.2276163101196289
306,87063520.0,9.301756858825684,-3.208327293395996,0.7482099533081055,0.03515434265136719,-0.013848304748535156,-0.057525634765625,0.6436634063720703,0.48505592346191406,-0.5464286804199219,0.2276163101196289
307,87063528.0,9.170071601867676,-3.283747673034668,0.7015218734741211,0.03515434265136719,-0.013848304748535156,-0.057525634765625,0.6436634063720703,0.48505592346191406,-0.5464286804199219,0.2276163101196289
308,87063536.0,9.09584903717041,-3.372335433959961,0.682368278503418,0.03515434265136719,-0.013848304748535156,-0.057525634765625,0.6436634063720703,0.48505592346191406,-0.5464286804199219,0.2276163101196289
309,87063544.0,9.068314552307129,-3.440572738647461,0.7386331558227539,0.03515434265136719,-0.013848304748535156,-0.057525634765625,0.6436634063720703,0.48505592346191406,-0.5464286804199219,0.2276163101196289
310,87063560.0,9.112608909606934,-3.4178266525268555,0.7829275131225586,0.03515434265136719,-0.013848304748535156,-0.057525634765625,0.6436634063720703,0.48505592346191406,-0.5464286804199219,0.2276163101196289
311,87063568.0,9.190423011779785,-3.302901268005371,0.7709560394287109,0.03515434265136719,-0.013848304748535156,-0.057525634765625,0.6436634063720703,0.48505592346191406,-0.5464286804199219,0.2276163101196289
312,87063576.0,9.250279426574707,-3.219101905822754,0.7541961669921875,0.03515434265136719,-0.013848304748535156,-0.057525634765625,0.6436634063720703,0.48505592346191406,-0.5464286804199219,0.2276163101196289
313,87063584.0,9.232322692871094,-3.1807937622070312,0.7398300170898438,0.03515434265136719,-0.013848304748535156,-0.057525634765625,0.6436634063720703,0.48505592346191406,-0.5464286804199219,0.2276163101196289
314,87063600.0,9.16767692565918,-3.1915674209594727,0.7266616821289062,0.03515434265136719,-0.013848304748535156,-0.057525634765625,0.6436634063720703,0.48505592346191406,-0.5464286804199219,0.2276163101196289
315,87063608.0,9.06472396850586,-3.2538185119628906,0.6919450759887695,0.03515434265136719,-0.013848304748535156,-0.057525634765625,0.6436634063720703,0.48505592346191406,-0.5464286804199219,0.2276163101196289
316,87063616.0,8.99648666381836,-3.3627586364746094,0.646453857421875,0.03515434265136719,-0.013848304748535156,-0.057525634765625,0.6436634063720703,0.48505592346191406,-0.5464286804199219,0.2276163101196289
317,87063624.0,9.016838073730469,-3.465712547302246,0.5937795639038086,0.03515434265136719,-0.013848304748535156,-0.057525634765625,0.6436634063720703,0.48505592346191406,-0.5464286804199219,0.2276163101196289
318,87063648.0,9.135354995727539,-3.3603639602661133,0.6524391174316406,0.02982807159423828,-0.0021305084228515625,0.03941535949707031,0.6436634063720703,0.48505592346191406,-0.5464286804199219,0.2276163101196289
319,87063664.0,9.250279426574707,-3.1975536346435547,0.6452569961547852,0.020239830017089844,0.0010652542114257812,0.031958580017089844,0.6436634063720703,0.48505592346191406,-0.5464286804199219,0.2276163101196289
320,87063688.0,9.152114868164062,-3.284944534301758,0.6249055862426758,-0.04687213897705078,0.026632308959960938,0.0287628173828125,0.6436634063720703,0.48505592346191406,-0.5464286804199219,0.2276163101196289
321,87063704.0,9.037189483642578,-3.494443893432617,0.5674428939819336,-0.05965614318847656,0.031958580017089844,0.011717796325683594,0.6436634063720703,0.48505592346191406,-0.5464286804199219,0.2276163101196289
322,87063728.0,9.027612686157227,-3.556694984436035,0.5267400741577148,0.023435592651367188,-0.004261016845703125,-0.009587287902832031,0.6436634063720703,0.48505592346191406,-0.5464286804199219,0.2276163101196289
323,87063744.0,9.178451538085938,-3.46451473236084,0.6368770599365234,0.08735370635986328,-0.022370338439941406,-0.021305084228515625,0.6436634063720703,0.48505592346191406,-0.5464286804199219,0.2276163101196289
324,87063872.0,9.037189483642578,-3.5423288345336914,0.5578651428222656,0.08735370635986328,-0.022370338439941406,-0.021305084228515625,0.6421957015991211,0.48186302185058594,-0.5499677658081055,0.22994709014892578
325,87063896.0,8.970149993896484,-3.5171890258789062,0.5494852066040039,0.08735370635986328,-0.022370338439941406,-0.021305084228515625,0.6421957015991211,0.48186302185058594,-0.5499677658081055,0.22994709014892578
326,87063912.0,9.180846214294434,-3.7015485763549805,0.5638513565063477,0.08735370635986328,-0.022370338439941406,-0.021305084228515625,0.6421957015991211,0.48186302185058594,-0.5499677658081055,0.22994709014892578
327,87063936.0,9.361613273620605,-3.520780563354492,0.5470914840698242,0.08735370635986328,-0.022370338439941406,-0.021305084228515625,0.6421957015991211,0.48186302185058594,-0.5499677658081055,0.22994709014892578
328,87063952.0,9.241899490356445,-3.375926971435547,0.5913858413696289,0.08735370635986328,-0.022370338439941406,-0.021305084228515625,0.6421957015991211,0.48186302185058594,-0.5499677658081055,0.22994709014892578
329,87063976.0,9.04437255859375,-3.4788808822631836,0.6021595001220703,0.0,0.0,-0.013848304748535156,0.6421957015991211,0.48186302185058594,-0.5499677658081055,0.22994709014892578
330,87064000.0,9.086272239685059,-3.6392974853515625,0.6225109100341797,0.01597881317138672,-0.02769756317138672,-0.0063915252685546875,0.6421957015991211,0.48186302185058594,-0.5499677658081055,0.22994709014892578
331,87064016.0,9.177254676818848,-3.5064144134521484,0.6476507186889648,0.061786651611328125,-0.040480613708496094,0.004261016845703125,0.6421957015991211,0.48186302185058594,-0.5499677658081055,0.22994709014892578
332,87064032.0,9.191619873046875,-3.4154319763183594,0.6320877075195312,0.040480613708496094,-0.030893325805664062,0.011717796325683594,0.6421957015991211,0.48186302185058594,-0.5499677658081055,0.22994709014892578
333,87064056.0,9.083877563476562,-3.4728946685791016,0.6320877075195312,0.0010652542114257812,-0.01810932159423828,0.01810932159423828,0.6421957015991211,0.48186302185058594,-0.5499677658081055,0.22994709014892578
334,87064080.0,9.04556941986084,-3.536343574523926,0.6799736022949219,0.041545867919921875,-0.019174575805664062,0.021305084228515625,0.6421957015991211,0.48186302185058594,-0.5499677658081055,0.22994709014892578
335,87064096.0,9.099440574645996,-3.310084342956543,0.7110986709594727,0.05859088897705078,-0.033023834228515625,0.02769756317138672,0.6421957015991211,0.48186302185058594,-0.5499677658081055,0.22994709014892578
336,87064112.0,9.191619873046875,-3.2562131881713867,0.6883535385131836,-0.011717796325683594,-0.02769756317138672,0.042611122131347656,0.6421957015991211,0.48186302185058594,-0.5499677658081055,0.22994709014892578
337,87064136.0,9.173663139343262,-3.4429664611816406,0.578216552734375,-0.052199363708496094,-0.007456779479980469,0.03728485107421875,0.6421957015991211,0.48186302185058594,-0.5499677658081055,0.22994709014892578
338,87064152.0,9.134157180786133,-3.452543258666992,0.6356792449951172,0.0063915252685546875,-0.0031957626342773438,0.024501800537109375,0.6421957015991211,0.48186302185058594,-0.5499677658081055,0.22994709014892578
339,87064272.0,9.253870964050293,-3.2502269744873047,0.6320877075195312,0.0628519058227539,-0.020239830017089844,-0.02982807159423828,0.6421957015991211,0.48186302185058594,-0.5499677658081055,0.22994709014892578
340,87064272.0,9.253870964050293,-3.2502269744873047,0.6320877075195312,0.0628519058227539,-0.020239830017089844,-0.02982807159423828,0.6421957015991211,0.48186302185058594,-0.5499677658081055,0.22994709014892578
341,87064296.0,9.189226150512695,-3.4070520401000977,0.6584253311157227,0.0628519058227539,-0.020239830017089844,-0.02982807159423828,0.6421957015991211,0.48186302185058594,-0.5499677658081055,0.22994709014892578
342,87064296.0,9.189226150512695,-3.4070520401000977,0.6584253311157227,0.0628519058227539,-0.020239830017089844,-0.02982807159423828,0.6421957015991211,0.48186302185058594,-0.5499677658081055,0.22994709014892578
343,87064312.0,9.09465217590332,-3.4549379348754883,0.6356792449951172,0.0628519058227539,-0.020239830017089844,-0.02982807159423828,0.6421957015991211,0.48186302185058594,-0.5499677658081055,0.22994709014892578
344,87064312.0,9.09465217590332,-3.4549379348754883,0.6356792449951172,0.0628519058227539,-0.020239830017089844,-0.02982807159423828,0.6421957015991211,0.48186302185058594,-0.5499677658081055,0.22994709014892578
345,87064336.0,9.131763458251953,-3.4573326110839844,0.6440591812133789,0.0628519058227539,-0.020239830017089844,-0.02982807159423828,0.6421957015991211,0.48186302185058594,-0.5499677658081055,0.22994709014892578
346,87064336.0,9.131763458251953,-3.4573326110839844,0.6440591812133789,0.0628519058227539,-0.020239830017089844,-0.02982807159423828,0.6421957015991211,0.48186302185058594,-0.5499677658081055,0.22994709014892578
347,87064352.0,9.136551856994629,-3.4441633224487305,0.6751852035522461,0.0628519058227539,-0.020239830017089844,-0.02982807159423828,0.6421957015991211,0.48186302185058594,-0.5499677658081055,0.22994709014892578
348,87064352.0,9.136551856994629,-3.4441633224487305,0.6751852035522461,0.0628519058227539,-0.020239830017089844,-0.02982807159423828,0.6421957015991211,0.48186302185058594,-0.5499677658081055,0.22994709014892578
349,87064376.0,9.16408634185791,-3.305295944213867,0.640467643737793,0.013848304748535156,-0.0031957626342773438,-0.00852203369140625,0.6421957015991211,0.48186302185058594,-0.5499677658081055,0.22994709014892578
350,87064392.0,9.080286026000977,-3.372335433959961,0.5937795639038086,-0.03515434265136719,0.010652542114257812,-0.007456779479980469,0.6421957015991211,0.48186302185058594,-0.5499677658081055,0.22994709014892578
351,87064416.0,9.071906089782715,-3.468106269836426,0.5530767440795898,-0.03621959686279297,0.013848304748535156,-0.019174575805664062,0.6421957015991211,0.48186302185058594,-0.5499677658081055,0.22994709014892578
352,87064432.0,9.173663139343262,-3.4513463973999023,0.5985679626464844,0.0063915252685546875,0.007456779479980469,-0.023435592651367188,0.6421957015991211,0.48186302185058594,-0.5499677658081055,0.22994709014892578
353,87064456.0,9.213168144226074,-3.433389663696289,0.515965461730957,0.022370338439941406,0.0031957626342773438,-0.01810932159423828,0.6421957015991211,0.48186302185058594,-0.5499677658081055,0.22994709014892578
354,87064472.0,9.103032112121582,-3.403461456298828,0.49561405181884766,0.010652542114257812,0.012783050537109375,-0.00852203369140625,0.6421957015991211,0.48186302185058594,-0.5499677658081055,0.22994709014892578
355,87064496.0,9.047964096069336,-3.4824724197387695,0.4992055892944336,0.0170440673828125,-0.014913558959960938,0.005326271057128906,0.6421957015991211,0.48186302185058594,-0.5499677658081055,0.22994709014892578
356,87064512.0,9.152114868164062,-3.397475242614746,0.5363168716430664,0.04687213897705078,-0.034089088439941406,0.012783050537109375,0.6421957015991211,0.48186302185058594,-0.5499677658081055,0.22994709014892578
357,87064536.0,9.222745895385742,-3.2238903045654297,0.4908256530761719,0.019174575805664062,-0.025567054748535156,0.019174575805664062,0.6421957015991211,0.48186302185058594,-0.5499677658081055,0.22994709014892578
358,87064552.0,9.171268463134766,-3.270578384399414,0.5650482177734375,-0.06817817687988281,0.0010652542114257812,0.019174575805664062,0.6421957015991211,0.48186302185058594,-0.5499677658081055,0.22994709014892578
359,87064576.0,9.014443397521973,-3.5040206909179688,0.5315284729003906,-0.09374523162841797,0.00852203369140625,0.01597881317138672,0.6421957015991211,0.48186302185058594,-0.5499677658081055,0.22994709014892578
360,87064592.0,9.109017372131348,-3.5076122283935547,0.5375137329101562,-0.025567054748535156,-0.03941535949707031,0.0010652542114257812,0.6421957015991211,0.48186302185058594,-0.5499677658081055,0.22994709014892578
361,87064616.0,9.271828651428223,-3.440572738647461,0.5638513565063477,0.033023834228515625,-0.053264617919921875,0.0,0.6421957015991211,0.48186302185058594,-0.5499677658081055,0.22994709014892578
362,87064632.0,9.222745895385742,-3.4226150512695312,0.6009626388549805,0.03515434265136719,-0.022370338439941406,-0.0063915252685546875,0.6421957015991211,0.48186302185058594,-0.5499677658081055,0.22994709014892578
363,87064656.0,9.098243713378906,-3.4250097274780273,0.5889911651611328,0.0063915252685546875,-0.026632308959960938,0.0,0.6421957015991211,0.48186302185058594,-0.5499677658081055,0.22994709014892578
364,87064672.0,9.113805770874023,-3.5770463943481445,0.6284961700439453,0.0063915252685546875,-0.026632308959960938,0.0,0.6421957015991211,0.48186302185058594,-0.5499677658081055,0.22994709014892578
365,87064696.0,9.110215187072754,-3.5088090896606445,0.7015218734741211,0.0063915252685546875,-0.026632308959960938,0.0,0.6421957015991211,0.48186302185058594,-0.5499677658081055,0.22994709014892578
366,87064712.0,9.189226150512695,-3.338815689086914,0.7027187347412109,0.0063915252685546875,-0.026632308959960938,0.0,0.6421957015991211,0.48186302185058594,-0.5499677658081055,0.22994709014892578
367,87064736.0,9.189226150512695,-3.402263641357422,0.705113410949707,0.0063915252685546875,-0.026632308959960938,0.0,0.6421957015991211,0.48186302185058594,-0.5499677658081055,0.22994709014892578
368,87064752.0,9.033597946166992,-3.605776786804199,0.6572275161743164,0.0063915252685546875,-0.026632308959960938,0.0,0.6421957015991211,0.48186302185058594,-0.5499677658081055,0.22994709014892578
369,87064776.0,9.071906089782715,-3.591411590576172,0.6536369323730469,0.0063915252685546875,-0.012783050537109375,0.011717796325683594,0.6421957015991211,0.48186302185058594,-0.5499677658081055,0.22994709014892578
370,87064792.0,9.197606086730957,-3.489654541015625,0.6931419372558594,0.05859088897705078,-0.01810932159423828,0.014913558959960938,0.6421957015991211,0.48186302185058594,-0.5499677658081055,0.22994709014892578
371,87064816.0,9.21436595916748,-3.4070520401000977,0.6476507186889648,0.03941535949707031,-0.012783050537109375,0.024501800537109375,0.6421957015991211,0.48186302185058594,-0.5499677658081055,0.22994709014892578
372,87064832.0,9.229928970336914,-3.426206588745117,0.6739873886108398,-0.014913558959960938,0.0,0.03621959686279297,0.6421957015991211,0.48186302185058594,-0.5499677658081055,0.22994709014892578
373,87064856.0,9.130566596984863,-3.5387372970581055,0.6009626388549805,-0.010652542114257812,0.012783050537109375,0.03728485107421875,0.6421957015991211,0.48186302185058594,-0.5499677658081055,0.22994709014892578
374,87064872.0,9.0970458984375,-3.468106269836426,0.6356792449951172,0.034089088439941406,0.007456779479980469,0.025567054748535156,0.6421957015991211,0.48186302185058594,-0.5499677658081055,0.22994709014892578
375,87064896.0,9.160494804382324,-3.3148727416992188,0.6332855224609375,0.03621959686279297,-0.007456779479980469,0.030893325805664062,0.6421957015991211,0.48186302185058594,-0.5499677658081055,0.22994709014892578
376,87064912.0,9.149720191955566,-3.3507871627807617,0.5411052703857422,-0.012783050537109375,0.0021305084228515625,0.03728485107421875,0.6421957015991211,0.48186302185058594,-0.5499677658081055,0.22994709014892578
377,87064928.0,9.0754976272583,-3.4776830673217773,0.5219516754150391,-0.026632308959960938,0.014913558959960938,0.02769756317138672,0.6421957015991211,0.48186302185058594,-0.5499677658081055,0.22994709014892578
378,87064952.0,9.089863777160645,-3.46331787109375,0.5375137329101562,-0.026632308959960938,0.014913558959960938,0.02769756317138672,0.6421957015991211,0.48186302185058594,-0.5499677658081055,0.22994709014892578
379,87064960.0,9.125777244567871,-3.4501495361328125,0.5434999465942383,-0.026632308959960938,0.014913558959960938,0.02769756317138672,0.6421957015991211,0.48186302185058594,-0.5499677658081055,0.22994709014892578
380,87064976.0,9.152114868164062,-3.4226150512695312,0.5578651428222656,-0.026632308959960938,0.014913558959960938,0.02769756317138672,0.6421957015991211,0.48186302185058594,-0.5499677658081055,0.22994709014892578
381,87064984.0,9.153311729431152,-3.4166297912597656,0.5016002655029297,-0.026632308959960938,0.014913558959960938,0.02769756317138672,0.6421957015991211,0.48186302185058594,-0.5499677658081055,0.22994709014892578
382,87064992.0,9.171268463134766,-3.433389663696289,0.4776573181152344,-0.026632308959960938,0.014913558959960938,0.02769756317138672,0.6421957015991211,0.48186302185058594,-0.5499677658081055,0.22994709014892578
383,87065000.0,9.150917053222656,-3.426206588745117,0.48244571685791016,-0.026632308959960938,0.014913558959960938,0.02769756317138672,0.6421957015991211,0.48186302185058594,-0.5499677658081055,0.22994709014892578
384,87065008.0,9.077892303466797,-3.408249855041504,0.4752626419067383,-0.026632308959960938,0.014913558959960938,0.02769756317138672,0.6421957015991211,0.48186302185058594,-0.5499677658081055,0.22994709014892578
385,87065024.0,9.055146217346191,-3.4429664611816406,0.5147686004638672,-0.026632308959960938,0.014913558959960938,0.02769756317138672,0.6421957015991211,0.48186302185058594,-0.5499677658081055,0.22994709014892578
386,87065032.0,9.050357818603516,-3.4728946685791016,0.519556999206543,-0.026632308959960938,0.014913558959960938,0.02769756317138672,0.6421957015991211,0.48186302185058594,-0.5499677658081055,0.22994709014892578
387,87065040.0,9.06592082977295,-3.5124006271362305,0.5351200103759766,-0.026632308959960938,0.014913558959960938,0.02769756317138672,0.6421957015991211,0.48186302185058594,-0.5499677658081055,0.22994709014892578
388,87065048.0,9.091060638427734,-3.536343574523926,0.5710344314575195,-0.026632308959960938,0.014913558959960938,0.02769756317138672,0.6421957015991211,0.48186302185058594,-0.5499677658081055,0.22994709014892578
389,87065064.0,9.119791984558105,-3.5100059509277344,0.5734281539916992,0.033023834228515625,-0.014913558959960938,-0.010652542114257812,0.6421957015991211,0.48186302185058594,-0.5499677658081055,0.22994709014892578
390,87065080.0,9.141340255737305,-3.460923194885254,0.5626544952392578,0.042611122131347656,-0.012783050537109375,-0.026632308959960938,0.6421957015991211,0.48186302185058594,-0.5499677658081055,0.22994709014892578
391,87065104.0,9.067117691040039,-3.5686655044555664,0.5446968078613281,0.007456779479980469,0.010652542114257812,-0.021305084228515625,0.6421957015991211,0.48186302185058594,-0.5499677658081055,0.22994709014892578
392,87065120.0,9.019232749938965,-3.683590888977051,0.5794143676757812,0.013848304748535156,-0.0021305084228515625,-0.014913558959960938,0.6421957015991211,0.48186302185058594,-0.5499677658081055,0.22994709014892578
393,87065144.0,9.081483840942383,-3.6728172302246094,0.5291337966918945,0.052199363708496094,-0.022370338439941406,-0.009587287902832031,0.6421957015991211,0.48186302185058594,-0.5499677658081055,0.22994709014892578
394,87065248.0,9.135354995727539,-3.4788808822631836,0.5506830215454102,-0.0021305084228515625,-0.0170440673828125,0.025567054748535156,0.6421957015991211,0.48186302185058594,-0.5499677658081055,0.22994709014892578
395,87065272.0,9.09345531463623,-3.46331787109375,0.5901880264282227,-0.01597881317138672,0.0031957626342773438,0.030893325805664062,0.6421957015991211,0.48186302185058594,-0.5499677658081055,0.22994709014892578
396,87065288.0,9.21436595916748,-3.484866142272949,0.578216552734375,-0.0170440673828125,-0.004261016845703125,0.030893325805664062,0.6421957015991211,0.48186302185058594,-0.5499677658081055,0.22994709014892578
397,87065312.0,9.226337432861328,-3.430994987487793,0.640467643737793,-0.010652542114257812,-0.009587287902832031,0.02769756317138672,0.6421957015991211,0.48186302185058594,-0.5499677658081055,0.22994709014892578
398,87065328.0,9.149720191955566,-3.379518508911133,0.5794143676757812,-0.004261016845703125,0.010652542114257812,0.020239830017089844,0.6421957015991211,0.48186302185058594,-0.5499677658081055,0.22994709014892578
399,87065352.0,9.120988845825195,-3.4214181900024414,0.5925827026367188,-0.03728485107421875,0.010652542114257812,0.019174575805664062,0.6421957015991211,0.48186302185058594,-0.5499677658081055,0.22994709014892578
400,87065368.0,9.032401084899902,-3.4812746047973633,0.6093425750732422,-0.04900360107421875,0.025567054748535156,0.01597881317138672,0.6421957015991211,0.48186302185058594,-0.5499677658081055,0.22994709014892578
401,87065392.0,9.041977882385254,-3.4764862060546875,0.5590629577636719,-0.020239830017089844,0.019174575805664062,0.009587287902832031,0.6421957015991211,0.48186302185058594,-0.5499677658081055,0.22994709014892578
402,87065408.0,9.156903266906738,-3.3807153701782227,0.5650482177734375,0.005326271057128906,-0.0031957626342773438,0.0,0.6421957015991211,0.48186302185058594,-0.5499677658081055,0.22994709014892578
403,87065432.0,9.183239936828613,-3.3855037689208984,0.5722312927246094,0.007456779479980469,-0.0010652542114257812,0.0,0.6421957015991211,0.48186302185058594,-0.5499677658081055,0.22994709014892578
404,87065448.0,9.11739730834961,-3.4190235137939453,0.5650482177734375,-0.00852203369140625,0.01810932159423828,-0.0010652542114257812,0.6421957015991211,0.48186302185058594,-0.5499677658081055,0.22994709014892578
405,87065472.0,9.002472877502441,-3.3926868438720703,0.5746250152587891,-0.00852203369140625,0.01810932159423828,-0.0010652542114257812,0.6421957015991211,0.48186302185058594,-0.5499677658081055,0.22994709014892578
406,87065488.0,9.041977882385254,-3.4441633224487305,0.5315284729003906,-0.00852203369140625,0.01810932159423828,-0.0010652542114257812,0.6421957015991211,0.48186302185058594,-0.5499677658081055,0.22994709014892578
407,87065512.0,9.180846214294434,-3.3878984451293945,0.5770196914672852,-0.00852203369140625,0.01810932159423828,-0.0010652542114257812,0.6421957015991211,0.48186302185058594,-0.5499677658081055,0.22994709014892578
408,87065528.0,9.174860000610352,-3.340012550354004,0.5602598190307617,-0.00852203369140625,0.01810932159423828,-0.0010652542114257812,0.6421957015991211,0.48186302185058594,-0.5499677658081055,0.22994709014892578
409,87065552.0,9.085075378417969,-3.426206588745117,0.5482883453369141,-0.00852203369140625,0.01810932159423828,-0.0010652542114257812,0.6421957015991211,0.48186302185058594,-0.5499677658081055,0.22994709014892578
410,87065568.0,9.061132431030273,-3.4980344772338867,0.5351200103759766,-0.04900360107421875,0.026632308959960938,-0.040480613708496094,0.6421957015991211,0.48186302185058594,-0.5499677658081055,0.22994709014892578
411,87065592.0,9.107820510864258,-3.5662717819213867,0.5004034042358398,-0.021305084228515625,0.009587287902832031,-0.05006885528564453,0.6421957015991211,0.48186302185058594,-0.5499677658081055,0.22994709014892578
412,87065608.0,9.136551856994629,-3.5100059509277344,0.5375137329101562,0.0287628173828125,-0.004261016845703125,-0.045806884765625,0.6421957015991211,0.48186302185058594,-0.5499677658081055,0.22994709014892578
413,87065632.0,9.173663139343262,-3.320858955383301,0.6009626388549805,0.05006885528564453,-0.009587287902832031,-0.04474163055419922,0.6421957015991211,0.48186302185058594,-0.5499677658081055,0.22994709014892578
414,87065752.0,9.138946533203125,-3.403461456298828,0.5973711013793945,-0.012783050537109375,-0.005326271057128906,-0.03515434265136719,0.6410303115844727,0.4829845428466797,-0.5451335906982422,0.24207496643066406
415,87065768.0,9.086272239685059,-3.4728946685791016,0.5913858413696289,-0.012783050537109375,-0.005326271057128906,-0.03515434265136719,0.6410303115844727,0.4829845428466797,-0.5451335906982422,0.24207496643066406
416,87065792.0,9.118595123291016,-3.5435256958007812,0.6428623199462891,-0.012783050537109375,-0.005326271057128906,-0.03515434265136719,0.6410303115844727,0.4829845428466797,-0.5451335906982422,0.24207496643066406
417,87065808.0,9.155706405639648,-3.470500946044922,0.614130973815918,-0.012783050537109375,-0.005326271057128906,-0.03515434265136719,0.6410303115844727,0.4829845428466797,-0.5451335906982422,0.24207496643066406
418,87065824.0,9.194014549255371,-3.3867006301879883,0.6117362976074219,-0.012783050537109375,-0.005326271057128906,-0.03515434265136719,0.6410303115844727,0.4829845428466797,-0.5451335906982422,0.24207496643066406
419,87065848.0,9.158100128173828,-3.3160696029663086,0.5865964889526367,-0.012783050537109375,-0.005326271057128906,-0.03515434265136719,0.6410303115844727,0.4829845428466797,-0.5451335906982422,0.24207496643066406
420,87065872.0,9.118595123291016,-3.3483924865722656,0.6440591812133789,-0.05006885528564453,0.007456779479980469,0.01597881317138672,0.6410303115844727,0.4829845428466797,-0.5451335906982422,0.24207496643066406
421,87065872.0,9.118595123291016,-3.3483924865722656,0.6440591812133789,-0.05006885528564453,0.007456779479980469,0.01597881317138672,0.6410303115844727,0.4829845428466797,-0.5451335906982422,0.24207496643066406
422,87065888.0,9.086272239685059,-3.46212100982666,0.5650482177734375,-0.045806884765625,0.0,0.0,0.6410303115844727,0.4829845428466797,-0.5451335906982422,0.24207496643066406
423,87065888.0,9.086272239685059,-3.46212100982666,0.5650482177734375,-0.045806884765625,0.0,0.0,0.6410303115844727,0.4829845428466797,-0.5451335906982422,0.24207496643066406
424,87065912.0,9.154508590698242,-3.4166297912597656,0.5985679626464844,0.011717796325683594,-0.005326271057128906,-0.0170440673828125,0.6410303115844727,0.4829845428466797,-0.5451335906982422,0.24207496643066406
425,87065912.0,9.154508590698242,-3.4166297912597656,0.5985679626464844,0.011717796325683594,-0.005326271057128906,-0.0170440673828125,0.6410303115844727,0.4829845428466797,-0.5451335906982422,0.24207496643066406
426,87065928.0,9.137748718261719,-3.310084342956543,0.6177225112915039,-0.0010652542114257812,-0.0010652542114257812,-0.012783050537109375,0.6410303115844727,0.4829845428466797,-0.5451335906982422,0.24207496643066406
427,87065928.0,9.137748718261719,-3.310084342956543,0.6177225112915039,-0.0010652542114257812,-0.0010652542114257812,-0.012783050537109375,0.6410303115844727,0.4829845428466797,-0.5451335906982422,0.24207496643066406
428,87065952.0,9.058737754821777,-3.405855178833008,0.5470914840698242,-0.05646038055419922,0.00852203369140625,0.0,0.6410303115844727,0.4829845428466797,-0.5451335906982422,0.24207496643066406
429,87065952.0,9.058737754821777,-3.405855178833008,0.5470914840698242,-0.05646038055419922,0.00852203369140625,0.0,0.6410303115844727,0.4829845428466797,-0.5451335906982422,0.24207496643066406
430,87066056.0,9.118595123291016,-3.426206588745117,0.5686397552490234,-0.025567054748535156,0.0021305084228515625,-0.024501800537109375,0.6410303115844727,0.4829845428466797,-0.5451335906982422,0.24207496643066406
431,87066056.0,9.118595123291016,-3.426206588745117,0.5686397552490234,-0.025567054748535156,0.0021305084228515625,-0.024501800537109375,0.6410303115844727,0.4829845428466797,-0.5451335906982422,0.24207496643066406
432,87066080.0,9.086272239685059,-3.484866142272949,0.5315284729003906,-0.031958580017089844,0.0021305084228515625,-0.021305084228515625,0.6410303115844727,0.4829845428466797,-0.5451335906982422,0.24207496643066406
433,87066080.0,9.086272239685059,-3.484866142272949,0.5315284729003906,-0.031958580017089844,0.0021305084228515625,-0.021305084228515625,0.6410303115844727,0.4829845428466797,-0.5451335906982422,0.24207496643066406
434,87066096.0,9.160494804382324,-3.5411319732666016,0.5279369354248047,0.0063915252685546875,-0.01597881317138672,-0.023435592651367188,0.6410303115844727,0.4829845428466797,-0.5451335906982422,0.24207496643066406
435,87066096.0,9.160494804382324,-3.5411319732666016,0.5279369354248047,0.0063915252685546875,-0.01597881317138672,-0.023435592651367188,0.6410303115844727,0.4829845428466797,-0.5451335906982422,0.24207496643066406
436,87066120.0,9.179648399353027,-3.438178062438965,0.5387115478515625,0.024501800537109375,-0.005326271057128906,-0.026632308959960938,0.6410303115844727,0.4829845428466797,-0.5451335906982422,0.24207496643066406
437,87066120.0,9.179648399353027,-3.438178062438965,0.5387115478515625,0.024501800537109375,-0.005326271057128906,-0.026632308959960938,0.6410303115844727,0.4829845428466797,-0.5451335906982422,0.24207496643066406
438,87066136.0,9.101835250854492,-3.494443893432617,0.5123739242553711,-0.00852203369140625,-0.0063915252685546875,-0.009587287902832031,0.6410303115844727,0.4829845428466797,-0.5451335906982422,0.24207496643066406
439,87066136.0,9.101835250854492,-3.494443893432617,0.5123739242553711,-0.00852203369140625,-0.0063915252685546875,-0.009587287902832031,0.6410303115844727,0.4829845428466797,-0.5451335906982422,0.24207496643066406
440,87066256.0,9.182043075561523,-3.502823829650879,0.5327253341674805,-0.021305084228515625,-0.022370338439941406,0.05646038055419922,0.6410303115844727,0.4829845428466797,-0.5451335906982422,0.24207496643066406
441,87066280.0,9.18563461303711,-3.3507871627807617,0.6081457138061523,-0.08202743530273438,-0.0063915252685546875,0.0745706558227539,0.6410303115844727,0.4829845428466797,-0.5451335906982422,0.24207496643066406
442,87066296.0,9.14493179321289,-3.374730110168457,0.483642578125,-0.18749141693115234,0.01597881317138672,0.08841896057128906,0.6410303115844727,0.4829845428466797,-0.5451335906982422,0.24207496643066406
443,87066320.0,9.101835250854492,-3.565074920654297,0.4597005844116211,-0.22584247589111328,0.03621959686279297,0.07989692687988281,0.6410303115844727,0.4829845428466797,-0.5451335906982422,0.24207496643066406
444,87066336.0,9.030006408691406,-3.718308448791504,0.41660308837890625,-0.15979385375976562,0.014913558959960938,0.06391716003417969,0.6410303115844727,0.4829845428466797,-0.5451335906982422,0.24207496643066406
445,87066360.0,9.11620044708252,-3.7230968475341797,0.40104007720947266,-0.15979385375976562,0.014913558959960938,0.06391716003417969,0.6410303115844727,0.4829845428466797,-0.5451335906982422,0.24207496643066406
446,87066360.0,9.11620044708252,-3.7230968475341797,0.40104007720947266,-0.15979385375976562,0.014913558959960938,0.06391716003417969,0.6410303115844727,0.4829845428466797,-0.5451335906982422,0.24207496643066406
447,87066376.0,9.229928970336914,-3.836824417114258,0.44294071197509766,-0.15979385375976562,0.014913558959960938,0.06391716003417969,0.6410303115844727,0.4829845428466797,-0.5451335906982422,0.24207496643066406
448,87066376.0,9.229928970336914,-3.836824417114258,0.44294071197509766,-0.15979385375976562,0.014913558959960938,0.06391716003417969,0.6410303115844727,0.4829845428466797,-0.5451335906982422,0.24207496643066406
449,87066400.0,9.445413589477539,-3.9984378814697266,0.7003250122070312,-0.15979385375976562,0.014913558959960938,0.06391716003417969,0.6410303115844727,0.4829845428466797,-0.5451335906982422,0.24207496643066406
450,87066400.0,9.445413589477539,-3.9984378814697266,0.7003250122070312,-0.15979385375976562,0.014913558959960938,0.06391716003417969,0.6410303115844727,0.4829845428466797,-0.5451335906982422,0.24207496643066406
451,87066416.0,9.85722827911377,-4.467716217041016,1.2150936126708984,-0.15979385375976562,0.014913558959960938,0.06391716003417969,0.6410303115844727,0.4829845428466797,-0.5451335906982422,0.24207496643066406
452,87066416.0,9.85722827911377,-4.467716217041016,1.2150936126708984,-0.15979385375976562,0.014913558959960938,0.06391716003417969,0.6410303115844727,0.4829845428466797,-0.5451335906982422,0.24207496643066406
453,87066440.0,10.0272216796875,-5.233883857727051,0.3974494934082031,-0.15979385375976562,0.014913558959960938,0.06391716003417969,0.6410303115844727,0.4829845428466797,-0.5451335906982422,0.24207496643066406
454,87066440.0,10.0272216796875,-5.233883857727051,0.3974494934082031,-0.15979385375976562,0.014913558959960938,0.06391716003417969,0.6410303115844727,0.4829845428466797,-0.5451335906982422,0.24207496643066406
455,87066456.0,10.298972129821777,-7.015224456787109,0.16879558563232422,-0.5390396118164062,-0.33130645751953125,0.5454311370849609,0.6410303115844727,0.4829845428466797,-0.5451335906982422,0.24207496643066406
456,87066480.0,11.152530670166016,-9.81652545928955,-0.2597780227661133,-0.007456779479980469,-0.6402425765991211,0.6743326187133789,0.6410303115844727,0.4829845428466797,-0.5451335906982422,0.24207496643066406
457,87066496.0,12.310162544250488,-11.679271697998047,-0.6428623199462891,1.2186994552612305,-1.07275390625,0.8405189514160156,0.6410303115844727,0.4829845428466797,-0.5451335906982422,0.24207496643066406
458,87066512.0,13.278647422790527,-12.302980422973633,0.13288211822509766,2.570561408996582,-1.5084600448608398,1.2325477600097656,0.6410303115844727,0.4829845428466797,-0.5451335906982422,0.24207496643066406
459,87066536.0,14.090306282043457,-12.194040298461914,-0.0921792984008789,3.414276123046875,-2.0102148056030273,1.6980829238891602,0.6410303115844727,0.4829845428466797,-0.5451335906982422,0.24207496643066406
460,87066560.0,16.908367156982422,-11.93665599822998,-1.1288995742797852,3.414276123046875,-2.0102148056030273,1.6980829238891602,0.6410303115844727,0.4829845428466797,-0.5451335906982422,0.24207496643066406
461,87066576.0,18.98659896850586,-12.221574783325195,0.01795673370361328,3.414276123046875,-2.0102148056030273,1.6980829238891602,0.6410303115844727,0.4829845428466797,-0.5451335906982422,0.24207496643066406
462,87066592.0,18.559219360351562,-16.448665618896484,0.3938579559326172,3.414276123046875,-2.0102148056030273,1.6980829238891602,0.6410303115844727,0.4829845428466797,-0.5451335906982422,0.24207496643066406
463,87066616.0,18.810619354248047,-23.169395446777344,1.8196487426757812,3.414276123046875,-2.0102148056030273,1.6980829238891602,0.6410303115844727,0.4829845428466797,-0.5451335906982422,0.24207496643066406
464,87066632.0,16.16015625,-30.506650924682617,0.16520404815673828,3.414276123046875,-2.0102148056030273,1.6980829238891602,0.6410303115844727,0.4829845428466797,-0.5451335906982422,0.24207496643066406
465,87066656.0,12.741132736206055,-35.3646354675293,-11.962992668151855,3.414276123046875,-2.0102148056030273,1.6980829238891602,0.6410303115844727,0.4829845428466797,-0.5451335906982422,0.24207496643066406
466,87066680.0,18.77350616455078,-34.74810791015625,-17.031673431396484,3.414276123046875,-2.0102148056030273,1.6980829238891602,0.6410303115844727,0.4829845428466797,-0.5451335906982422,0.24207496643066406
467,87066696.0,22.485830307006836,-21.33777618408203,-15.821367263793945,3.414276123046875,-2.0102148056030273,1.6980829238891602,0.6410303115844727,0.4829845428466797,-0.5451335906982422,0.24207496643066406
468,87066720.0,19.902408599853516,-17.5991153717041,-22.904827117919922,3.414276123046875,-2.0102148056030273,1.6980829238891602,0.6410303115844727,0.4829845428466797,-0.5451335906982422,0.24207496643066406
469,87066736.0,23.0867919921875,-16.457046508789062,-28.5625,3.414276123046875,-2.0102148056030273,1.6980829238891602,0.6410303115844727,0.4829845428466797,-0.5451335906982422,0.24207496643066406
470,87066856.0,27.585636138916016,19.647418975830078,-17.184906005859375,7.954571723937988,0.08948421478271484,12.338268280029297,0.10616874694824219,0.6258392333984375,0.634556770324707,-0.4409065246582031
471,87066864.0,22.74201774597168,18.949485778808594,-14.69725513458252,2.5609731674194336,0.4154653549194336,10.503827095031738,0.10616874694824219,0.6258392333984375,0.634556770324707,-0.4409065246582031
472,87066880.0,19.095537185668945,17.13821792602539,-11.453012466430664,2.5609731674194336,0.4154653549194336,10.503827095031738,0.10616874694824219,0.6258392333984375,0.634556770324707,-0.4409065246582031
473,87066888.0,16.61147689819336,15.113858222961426,-6.310110092163086,-2.24031925201416,-1.426431655883789,7.890653610229492,0.10616874694824219,0.6258392333984375,0.634556770324707,-0.4409065246582031
474,87066896.0,14.922316551208496,15.064776420593262,0.3232269287109375,-2.24031925201416,-1.426431655883789,7.890653610229492,0.10616874694824219,0.6258392333984375,0.634556770324707,-0.4409065246582031
475,87066904.0,14.79901123046875,18.621471405029297,8.922264099121094,-1.416844367980957,-2.1827926635742188,3.8041744232177734,0.10616874694824219,0.6258392333984375,0.634556770324707,-0.4409065246582031
476,87066912.0,15.55679988861084,27.747249603271484,22.528926849365234,-1.416844367980957,-2.1827926635742188,3.8041744232177734,0.10616874694824219,0.6258392333984375,0.634556770324707,-0.4409065246582031
477,87066928.0,11.675680160522461,26.29631805419922,19.29306411743164,5.576828956604004,-0.17151260375976562,-1.6362953186035156,0.10616874694824219,0.6258392333984375,0.634556770324707,-0.4409065246582031
478,87066936.0,6.11497688293457,15.835732460021973,-0.14365577697753906,5.576828956604004,-0.17151260375976562,-1.6362953186035156,0.10616874694824219,0.6258392333984375,0.634556770324707,-0.4409065246582031
479,87066944.0,5.154872894287109,32.19102478027344,-5.675627708435059,5.576828956604004,-0.17151260375976562,-1.6362953186035156,0.10616874694824219,0.6258392333984375,0.634556770324707,-0.4409065246582031
480,87066968.0,13.753911018371582,37.90855026245117,-7.762238502502441,5.576828956604004,-0.17151260375976562,-1.6362953186035156,0.10616874694824219,0.6258392333984375,0.634556770324707,-0.4409065246582031
481,87066984.0,25.69415855407715,19.242786407470703,-10.842472076416016,5.576828956604004,-0.17151260375976562,-1.6362953186035156,0.10616874694824219,0.6258392333984375,0.634556770324707,-0.4409065246582031
482,87067008.0,39.226600646972656,8.069902420043945,-4.240260124206543,5.576828956604004,-0.17151260375976562,-1.6362953186035156,0.10616874694824219,0.6258392333984375,0.634556770324707,-0.4409065246582031
483,87067024.0,38.832740783691406,-1.8627452850341797,-2.0459070205688477,5.576828956604004,-0.17151260375976562,-1.6362953186035156,0.10616874694824219,0.6258392333984375,0.634556770324707,-0.4409065246582031
484,87067048.0,38.520286560058594,-6.724320411682129,-12.29699420928955,-7.151337623596191,6.131848335266113,-13.140437126159668,0.10616874694824219,0.6258392333984375,0.634556770324707,-0.4409065246582031
485,87067064.0,39.226600646972656,-7.395914077758789,-18.66815948486328,-2.198772430419922,7.095942497253418,-15.125085830688477,0.10616874694824219,0.6258392333984375,0.634556770324707,-0.4409065246582031
486,87067088.0,34.81155776977539,-6.721925735473633,-16.738372802734375,-0.6647443771362305,7.642439842224121,-17.370731353759766,0.10616874694824219,0.6258392333984375,0.634556770324707,-0.4409065246582031
487,87067104.0,38.8135871887207,-7.310916900634766,-4.550318717956543,-2.3564367294311523,6.024253845214844,-19.05283546447754,0.10616874694824219,0.6258392333984375,0.634556770324707,-0.4409065246582031
488,87067120.0,39.226600646972656,-12.165308952331543,-8.208770751953125,-5.326484680175781,3.606029510498047,-19.136993408203125,0.10616874694824219,0.6258392333984375,0.634556770324707,-0.4409065246582031
489,87067144.0,39.226600646972656,-5.259023666381836,-15.962629318237305,-7.7574920654296875,0.33024120330810547,-20.96078109741211,0.10616874694824219,0.6258392333984375,0.634556770324707,-0.4409065246582031
490,87067144.0,39.226600646972656,-5.259023666381836,-15.962629318237305,-7.7574920654296875,0.33024120330810547,-20.96078109741211,0.10616874694824219,0.6258392333984375,0.634556770324707,-0.4409065246582031
491,87067168.0,39.226600646972656,-39.226600646972656,-25.427196502685547,-2.160421371459961,11.181356430053711,-16.538734436035156,0.10616874694824219,0.6258392333984375,0.634556770324707,-0.4409065246582031
492,87067168.0,39.226600646972656,-39.226600646972656,-25.427196502685547,-2.160421371459961,11.181356430053711,-16.538734436035156,0.10616874694824219,0.6258392333984375,0.634556770324707,-0.4409065246582031
493,87067184.0,12.743526458740234,-36.71620178222656,-32.98113250732422,8.643818855285645,9.87317180633545,-10.190629959106445,0.10616874694824219,0.6258392333984375,0.634556770324707,-0.4409065246582031
494,87067184.0,12.743526458740234,-36.71620178222656,-32.98113250732422,8.643818855285645,9.87317180633545,-10.190629959106445,0.10616874694824219,0.6258392333984375,0.634556770324707,-0.4409065246582031
495,87067208.0,-36.05298614501953,22.914405822753906,39.11766052246094,-9.962656021118164,3.131972312927246,-4.25905704498291,0.10616874694824219,0.6258392333984375,0.634556770324707,-0.4409065246582031
496,87067208.0,-36.05298614501953,22.914405822753906,39.11766052246094,-9.962656021118164,3.131972312927246,-4.25905704498291,0.10616874694824219,0.6258392333984375,0.634556770324707,-0.4409065246582031
497,87067224.0,3.7195053100585938,-39.226600646972656,-39.226600646972656,-9.396984100341797,-9.573822975158691,5.554457664489746,0.10616874694824219,0.6258392333984375,0.634556770324707,-0.4409065246582031
498,87067224.0,3.7195053100585938,-39.226600646972656,-39.226600646972656,-9.396984100341797,-9.573822975158691,5.554457664489746,0.10616874694824219,0.6258392333984375,0.634556770324707,-0.4409065246582031
499,87067344.0,11.21478271484375,-12.602264404296875,1.113337516784668,1.6075325012207031,1.2314825057983398,-0.5773906707763672,0.10616874694824219,0.6258392333984375,0.634556770324707,-0.4409065246582031
500,87067344.0,11.21478271484375,-12.602264404296875,1.113337516784668,1.6075325012207031,1.2314825057983398,-0.5773906707763672,0.10616874694824219,0.6258392333984375,0.634556770324707,-0.4409065246582031
501,87067360.0,11.78821086883545,-3.5973968505859375,3.627326011657715,2.0144758224487305,0.49323177337646484,-0.6317205429077148,0.10616874694824219,0.6258392333984375,0.634556770324707,-0.4409065246582031
502,87067360.0,11.78821086883545,-3.5973968505859375,3.627326011657715,2.0144758224487305,0.49323177337646484,-0.6317205429077148,0.10616874694824219,0.6258392333984375,0.634556770324707,-0.4409065246582031
503,87067384.0,7.655693054199219,-6.498061180114746,1.4293813705444336,0.7670135498046875,0.4900360107421875,0.053264617919921875,0.10616874694824219,0.6258392333984375,0.634556770324707,-0.4409065246582031
504,87067384.0,7.655693054199219,-6.498061180114746,1.4293813705444336,0.7670135498046875,0.4900360107421875,0.053264617919921875,0.10616874694824219,0.6258392333984375,0.634556770324707,-0.4409065246582031
505,87067408.0,6.554327011108398,-5.360780715942383,-0.20710468292236328,1.1366710662841797,-0.28549957275390625,0.4857749938964844,0.10616874694824219,0.6258392333984375,0.634556770324707,-0.4409065246582031
506,87067408.0,6.554327011108398,-5.360780715942383,-0.20710468292236328,1.1366710662841797,-0.28549957275390625,0.4857749938964844,0.10616874694824219,0.6258392333984375,0.634556770324707,-0.4409065246582031
507,87067424.0,9.901522636413574,-2.255406379699707,-0.826024055480957,1.1238880157470703,-0.7829923629760742,0.9214811325073242,0.10616874694824219,0.6258392333984375,0.634556770324707,-0.4409065246582031
508,87067424.0,9.901522636413574,-2.255406379699707,-0.826024055480957,1.1238880157470703,-0.7829923629760742,0.9214811325073242,0.10616874694824219,0.6258392333984375,0.634556770324707,-0.4409065246582031
509,87067440.0,11.888771057128906,-1.573038101196289,-1.012777328491211,0.322784423828125,-0.17577362060546875,1.113234519958496,0.10616874694824219,0.6258392333984375,0.634556770324707,-0.4409065246582031
510,87067464.0,10.534808158874512,-2.2949113845825195,0.16400718688964844,-0.06817817687988281,0.3962898254394531,1.2410707473754883,0.10616874694824219,0.6258392333984375,0.634556770324707,-0.4409065246582031
511,87067480.0,9.022823333740234,-1.699934959411621,0.8751068115234375,0.12250900268554688,0.35367774963378906,1.1451940536499023,0.10616874694824219,0.6258392333984375,0.634556770324707,-0.4409065246582031
512,87067504.0,9.421470642089844,-1.0869998931884766,0.44533443450927734,-0.08841896057128906,0.009587287902832031,1.0045747756958008,0.10616874694824219,0.6258392333984375,0.634556770324707,-0.4409065246582031
513,87067520.0,9.962576866149902,-2.160832405090332,-0.3830833435058594,-0.45914268493652344,-0.03835010528564453,0.7499685287475586,0.10616874694824219,0.6258392333984375,0.634556770324707,-0.4409065246582031
514,87067744.0,8.889941215515137,-3.53275203704834,0.3782949447631836,-0.11398601531982422,-0.08415794372558594,-0.15233707427978516,0.10616874694824219,0.6258392333984375,0.634556770324707,-0.4409065246582031
515,87067760.0,9.105425834655762,-3.6380996704101562,-0.27174949645996094,-0.031958580017089844,-0.060721397399902344,-0.23756027221679688,0.10616874694824219,0.6258392333984375,0.634556770324707,-0.4409065246582031
516,87067784.0,8.700794219970703,-3.6704225540161133,-0.41899776458740234,0.06604766845703125,0.033023834228515625,-0.25140953063964844,0.10616874694824219,0.6258392333984375,0.634556770324707,-0.4409065246582031
517,87067800.0,8.654105186462402,-3.9445667266845703,-0.1053476333618164,0.08202743530273438,-0.033023834228515625,-0.23436450958251953,0.10616874694824219,0.6258392333984375,0.634556770324707,-0.4409065246582031
518,87067824.0,8.935432434082031,-3.9828758239746094,-0.0790109634399414,0.17683887481689453,-0.08522319793701172,-0.19814491271972656,0.10616874694824219,0.6258392333984375,0.634556770324707,-0.4409065246582031
519,87067944.0,9.031203269958496,-3.828444480895996,0.17478179931640625,-0.22690773010253906,-0.045806884765625,-0.03515434265136719,0.6783199310302734,0.41539859771728516,-0.5658493041992188,0.21695613861083984
520,87067960.0,8.929447174072266,-4.124137878417969,0.29329776763916016,-0.26845455169677734,-0.031958580017089844,-0.06604766845703125,0.6783199310302734,0.41539859771728516,-0.5658493041992188,0.21695613861083984
521,87067984.0,9.043174743652344,-4.418633460998535,0.1580219268798828,-0.15766334533691406,-0.08735370635986328,-0.0862884521484375,0.6783199310302734,0.41539859771728516,-0.5658493041992188,0.21695613861083984
522,87068000.0,9.239505767822266,-4.242653846740723,0.10175609588623047,0.025567054748535156,-0.0916147232055664,-0.11079025268554688,0.6783199310302734,0.41539859771728516,-0.5658493041992188,0.21695613861083984
523,87068024.0,9.074300765991211,-4.085829734802246,0.19513320922851562,0.1331615447998047,-0.05965614318847656,-0.12037849426269531,0.6783199310302734,0.41539859771728516,-0.5658493041992188,0.21695613861083984
524,87068040.0,8.916278839111328,-4.179205894470215,0.4525175094604492,0.1331615447998047,-0.05965614318847656,-0.12037849426269531,0.6783199310302734,0.41539859771728516,-0.5658493041992188,0.21695613861083984
525,87068040.0,8.916278839111328,-4.179205894470215,0.4525175094604492,0.1331615447998047,-0.05965614318847656,-0.12037849426269531,0.6783199310302734,0.41539859771728516,-0.5658493041992188,0.21695613861083984
526,87068064.0,8.918672561645508,-3.889498710632324,0.5770196914672852,0.1331615447998047,-0.05965614318847656,-0.12037849426269531,0.6783199310302734,0.41539859771728516,-0.5658493041992188,0.21695613861083984
527,87068064.0,8.918672561645508,-3.889498710632324,0.5770196914672852,0.1331615447998047,-0.05965614318847656,-0.12037849426269531,0.6783199310302734,0.41539859771728516,-0.5658493041992188,0.21695613861083984
528,87068080.0,8.953390121459961,-3.561483383178711,0.4094209671020508,0.1331615447998047,-0.05965614318847656,-0.12037849426269531,0.6783199310302734,0.41539859771728516,-0.5658493041992188,0.21695613861083984
529,87068080.0,8.953390121459961,-3.561483383178711,0.4094209671020508,0.1331615447998047,-0.05965614318847656,-0.12037849426269531,0.6783199310302734,0.41539859771728516,-0.5658493041992188,0.21695613861083984
530,87068096.0,9.052752494812012,-3.7314767837524414,0.1759786605834961,0.1331615447998047,-0.05965614318847656,-0.12037849426269531,0.6783199310302734,0.41539859771728516,-0.5658493041992188,0.21695613861083984
531,87068096.0,9.052752494812012,-3.7314767837524414,0.1759786605834961,0.1331615447998047,-0.05965614318847656,-0.12037849426269531,0.6783199310302734,0.41539859771728516,-0.5658493041992188,0.21695613861083984
532,87068120.0,9.111412048339844,-4.024775505065918,0.0790109634399414,0.1331615447998047,-0.05965614318847656,-0.12037849426269531,0.6783199310302734,0.41539859771728516,-0.5658493041992188,0.21695613861083984
533,87068120.0,9.111412048339844,-4.024775505065918,0.0790109634399414,0.1331615447998047,-0.05965614318847656,-0.12037849426269531,0.6783199310302734,0.41539859771728516,-0.5658493041992188,0.21695613861083984
534,87068240.0,9.192817687988281,-3.9780874252319336,0.08739089965820312,0.033023834228515625,0.012783050537109375,-0.031958580017089844,0.6783199310302734,0.41539859771728516,-0.5658493041992188,0.21695613861083984
535,87068264.0,9.087469100952148,-3.900273323059082,0.2597780227661133,0.033023834228515625,0.012783050537109375,-0.031958580017089844,0.6749534606933594,0.42148399353027344,-0.5632171630859375,0.22265338897705078
536,87068280.0,8.968952178955078,-3.616551399230957,0.21668148040771484,0.033023834228515625,0.012783050537109375,-0.031958580017089844,0.6747808456420898,0.4238147735595703,-0.5622673034667969,0.221099853515625
537,87068304.0,8.985712051391602,-3.5339488983154297,0.13048744201660156,0.033023834228515625,0.012783050537109375,-0.031958580017089844,0.6749963760375977,0.4250659942626953,-0.5613613128662109,0.2203664779663086
538,87068320.0,8.921067237854004,-3.6249313354492188,0.08020782470703125,0.033023834228515625,0.012783050537109375,-0.031958580017089844,0.6756000518798828,0.42545509338378906,-0.5606279373168945,0.21950340270996094
539,87068440.0,9.09345531463623,-3.683590888977051,-0.0011968612670898438,0.005326271057128906,0.022370338439941406,-0.03621959686279297,0.6762914657592773,0.4255409240722656,-0.5601959228515625,0.21846675872802734
540,87068464.0,9.189226150512695,-3.6333112716674805,0.06225109100341797,0.05539512634277344,0.021305084228515625,-0.05539512634277344,0.6759023666381836,0.4298133850097656,-0.5585994720458984,0.21540260314941406
541,87068480.0,9.225139617919922,-3.5459203720092773,-0.04908180236816406,0.057525634765625,0.0,-0.05539512634277344,0.675384521484375,0.43024539947509766,-0.558685302734375,0.21574783325195312
542,87068496.0,9.232322692871094,-3.579440116882324,-0.027533531188964844,-0.00852203369140625,-0.0031957626342773438,-0.03941535949707031,0.6751689910888672,0.4304180145263672,-0.558772087097168,0.21613693237304688
543,87068520.0,9.171268463134766,-3.766193389892578,-0.040701866149902344,0.00852203369140625,-0.004261016845703125,-0.031958580017089844,0.6751260757446289,0.4303750991821289,-0.5588150024414062,0.21617984771728516
544,87068544.0,9.118595123291016,-3.675210952758789,0.11492443084716797,0.00852203369140625,-0.004261016845703125,-0.031958580017089844,0.6750822067260742,0.430633544921875,-0.5586423873901367,0.21613693237304688
545,87068560.0,9.118595123291016,-3.4812746047973633,0.1448535919189453,0.00852203369140625,-0.004261016845703125,-0.031958580017089844,0.6750822067260742,0.430633544921875,-0.5586423873901367,0.21613693237304688
546,87068576.0,9.027612686157227,-3.5602855682373047,0.15443038940429688,0.00852203369140625,-0.004261016845703125,-0.031958580017089844,0.6750822067260742,0.430633544921875,-0.5586423873901367,0.21613693237304688
547,87068600.0,8.92705249786377,-3.645282745361328,0.08260154724121094,0.00852203369140625,-0.004261016845703125,-0.031958580017089844,0.6750822067260742,0.430633544921875,-0.5586423873901367,0.21613693237304688
548,87068616.0,8.958178520202637,-3.5926084518432617,0.24660968780517578,0.00852203369140625,-0.004261016845703125,-0.031958580017089844,0.6750822067260742,0.430633544921875,-0.5586423873901367,0.21613693237304688
549,87068736.0,9.28499698638916,-3.587820053100586,0.1580219268798828,0.054329872131347656,-0.009587287902832031,-0.031958580017089844,0.6750822067260742,0.430633544921875,-0.5586423873901367,0.21613693237304688
550,87068760.0,9.227534294128418,-3.5076122283935547,0.13048744201660156,0.054329872131347656,-0.009587287902832031,-0.031958580017089844,0.6750822067260742,0.430633544921875,-0.5586423873901367,0.21613693237304688
551,87068776.0,9.086272239685059,-3.6728172302246094,0.1364736557006836,0.054329872131347656,-0.009587287902832031,-0.031958580017089844,0.6750822067260742,0.430633544921875,-0.5586423873901367,0.21613693237304688
552,87068800.0,9.04676628112793,-3.8404159545898438,0.11253070831298828,0.054329872131347656,-0.009587287902832031,-0.031958580017089844,0.6750822067260742,0.430633544921875,-0.5586423873901367,0.21613693237304688
553,87068816.0,9.179648399353027,-3.7207021713256836,0.09816455841064453,0.054329872131347656,-0.009587287902832031,-0.031958580017089844,0.6750822067260742,0.430633544921875,-0.5586423873901367,0.21613693237304688
554,87068840.0,9.1868314743042,-3.5985946655273438,0.12450218200683594,0.15340232849121094,-0.005326271057128906,-0.0287628173828125,0.6750822067260742,0.430633544921875,-0.5586423873901367,0.21613693237304688
555,87068840.0,9.1868314743042,-3.5985946655273438,0.12450218200683594,0.15340232849121094,-0.005326271057128906,-0.0287628173828125,0.6750822067260742,0.430633544921875,-0.5586423873901367,0.21613693237304688
556,87068856.0,9.050357818603516,-3.58303165435791,0.147247314453125,0.11931324005126953,0.013848304748535156,-0.03621959686279297,0.6750822067260742,0.430633544921875,-0.5586423873901367,0.21613693237304688
557,87068856.0,9.050357818603516,-3.58303165435791,0.147247314453125,0.11931324005126953,0.013848304748535156,-0.03621959686279297,0.6750822067260742,0.430633544921875,-0.5586423873901367,0.21613693237304688
558,87068880.0,9.033597946166992,-3.5698633193969727,0.1843585968017578,0.08841896057128906,0.010652542114257812,-0.030893325805664062,0.6750822067260742,0.430633544921875,-0.5586423873901367,0.21613693237304688
559,87068880.0,9.033597946166992,-3.5698633193969727,0.1843585968017578,0.08841896057128906,0.010652542114257812,-0.030893325805664062,0.6750822067260742,0.430633544921875,-0.5586423873901367,0.21613693237304688
560,87068896.0,9.031203269958496,-3.6117630004882812,0.1053476333618164,0.061786651611328125,0.0063915252685546875,-0.012783050537109375,0.6750822067260742,0.430633544921875,-0.5586423873901367,0.21613693237304688
561,87068896.0,9.031203269958496,-3.6117630004882812,0.1053476333618164,0.061786651611328125,0.0063915252685546875,-0.012783050537109375,0.6750822067260742,0.430633544921875,-0.5586423873901367,0.21613693237304688
562,87068920.0,9.031203269958496,-3.616551399230957,0.09936237335205078,0.057525634765625,0.0063915252685546875,-0.00852203369140625,0.6750822067260742,0.430633544921875,-0.5586423873901367,0.21613693237304688
563,87068920.0,9.031203269958496,-3.616551399230957,0.09936237335205078,0.057525634765625,0.0063915252685546875,-0.00852203369140625,0.6750822067260742,0.430633544921875,-0.5586423873901367,0.21613693237304688
564,87069040.0,8.948601722717285,-3.648874282836914,0.04908180236816406,0.057525634765625,0.0063915252685546875,-0.00852203369140625,0.6750822067260742,0.430633544921875,-0.5586423873901367,0.21613693237304688
565,87069040.0,8.948601722717285,-3.648874282836914,0.04908180236816406,0.057525634765625,0.0063915252685546875,-0.00852203369140625,0.6750822067260742,0.430633544921875,-0.5586423873901367,0.21613693237304688
566,87069056.0,9.077892303466797,-3.6105661392211914,0.04788494110107422,0.057525634765625,0.0063915252685546875,-0.00852203369140625,0.6750822067260742,0.430633544921875,-0.5586423873901367,0.21613693237304688
567,87069056.0,9.077892303466797,-3.6105661392211914,0.04788494110107422,0.057525634765625,0.0063915252685546875,-0.00852203369140625,0.6750822067260742,0.430633544921875,-0.5586423873901367,0.21613693237304688
568,87069080.0,9.226337432861328,-3.4489526748657227,0.03112506866455078,0.057525634765625,0.0063915252685546875,-0.00852203369140625,0.6750822067260742,0.430633544921875,-0.5586423873901367,0.21613693237304688
569,87069080.0,9.226337432861328,-3.4489526748657227,0.03112506866455078,0.057525634765625,0.0063915252685546875,-0.00852203369140625,0.6750822067260742,0.430633544921875,-0.5586423873901367,0.21613693237304688
570,87069096.0,9.131763458251953,-3.556694984436035,0.041899681091308594,0.057525634765625,0.0063915252685546875,-0.00852203369140625,0.6750822067260742,0.430633544921875,-0.5586423873901367,0.21613693237304688
571,87069096.0,9.131763458251953,-3.556694984436035,0.041899681091308594,0.057525634765625,0.0063915252685546875,-0.00852203369140625,0.6750822067260742,0.430633544921875,-0.5586423873901367,0.21613693237304688
