,timestamp,accel_x,accel_y,accel_z,gyro_x,gyro_y,gyro_z,ori_scalar,ori_x,ori_y,ori_z
0,7323754.0,8.607417106628418,-1.6101493835449219,3.7554197311401367,-0.06817817687988281,-0.22051620483398438,-0.04474163055419922,-0.2412128448486328,-0.7993364334106445,0.2520875930786133,-0.4892005920410156
1,7323774.0,8.8336763381958,-1.6017694473266602,4.110969543457031,-0.06817817687988281,-0.22051620483398438,-0.04474163055419922,-0.2412128448486328,-0.7993364334106445,0.2520875930786133,-0.4892005920410156
2,7323794.0,8.767833709716797,-1.4030447006225586,4.20314884185791,-0.06817817687988281,-0.22051620483398438,-0.04474163055419922,-0.2412128448486328,-0.7993364334106445,0.2520875930786133,-0.4892005920410156
3,7323813.0,8.662485122680664,-1.5945863723754883,3.8116846084594727,-0.06817817687988281,-0.22051620483398438,-0.04474163055419922,-0.2412128448486328,-0.7993364334106445,0.2520875930786133,-0.4892005920410156
4,7323833.0,8.733116149902344,-1.7178916931152344,3.768588066101074,-0.06817817687988281,-0.22051620483398438,-0.04474163055419922,-0.2412128448486328,-0.7993364334106445,0.2520875930786133,-0.4892005920410156
5,7323853.0,8.949798583984375,-1.7095117568969727,3.9421730041503906,-0.06817817687988281,-0.22051620483398438,-0.04474163055419922,-0.2412128448486328,-0.7993364334106445,0.2520875930786133,-0.4892005920410156
6,7323873.0,8.943812370300293,-1.5167722702026367,4.098998069763184,-0.06817817687988281,-0.22051620483398438,-0.04474163055419922,-0.2412128448486328,-0.7993364334106445,0.2520875930786133,-0.4892005920410156
7,7323893.0,8.870787620544434,-1.5909948348999023,3.84161376953125,-0.05859088897705078,-0.22051620483398438,-0.01810932159423828,-0.24224853515625,-0.7980852127075195,0.25195789337158203,-0.4908409118652344
8,7323912.0,9.031203269958496,-1.6460638046264648,3.7602081298828125,-0.033023834228515625,-0.22690773010253906,-0.013848304748535156,-0.24337005615234375,-0.7968330383300781,0.2514829635620117,-0.4924802780151367
9,7323932.0,9.179648399353027,-1.4868440628051758,3.992452621459961,0.0010652542114257812,-0.22371196746826172,-0.02769756317138672,-0.2440176010131836,-0.7956247329711914,0.2510519027709961,-0.4943361282348633
10,7324122.0,9.180846214294434,-1.413818359375,3.6620426177978516,0.054329872131347656,-0.07989692687988281,-0.09907245635986328,-0.24233436584472656,-0.7922153472900391,0.246002197265625,-0.5030975341796875
11,7324142.0,8.99648666381836,-1.4976186752319336,3.5064144134521484,0.010652542114257812,-0.05965614318847656,-0.06498241424560547,-0.24233436584472656,-0.7922153472900391,0.246002197265625,-0.5030975341796875
12,7324162.0,9.02521800994873,-1.3336105346679688,3.6321144104003906,-0.005326271057128906,-0.033023834228515625,-0.020239830017089844,-0.24233436584472656,-0.7922153472900391,0.246002197265625,-0.5030975341796875
13,7324182.0,8.983318328857422,-1.0331287384033203,3.405855178833008,-0.06711292266845703,-0.011717796325683594,0.020239830017089844,-0.24233436584472656,-0.7922153472900391,0.246002197265625,-0.5030975341796875
14,7324202.0,8.540377616882324,-1.079817771911621,3.1772022247314453,-0.19281864166259766,0.020239830017089844,0.06498241424560547,-0.24233436584472656,-0.7922153472900391,0.246002197265625,-0.5030975341796875
15,7324221.0,8.464958190917969,-1.4245929718017578,3.210721969604492,-0.2524747848510742,-0.01810932159423828,0.07030868530273438,-0.24233436584472656,-0.7922153472900391,0.246002197265625,-0.5030975341796875
16,7324241.0,8.658893585205078,-1.605360984802246,3.255016326904297,-0.2524747848510742,-0.01810932159423828,0.07030868530273438,-0.24233436584472656,-0.7922153472900391,0.246002197265625,-0.5030975341796875
17,7324261.0,8.699596405029297,-1.6125431060791016,3.1736106872558594,-0.2524747848510742,-0.01810932159423828,0.07030868530273438,-0.24380207061767578,-0.78759765625,0.2462177276611328,-0.5095710754394531
18,7324281.0,8.753467559814453,-1.665217399597168,3.0754451751708984,-0.2524747848510742,-0.01810932159423828,0.07030868530273438,-0.2439746856689453,-0.7872085571289062,0.24634742736816406,-0.5100030899047852
19,7324301.0,8.894729614257812,-1.880702018737793,3.181990623474121,-0.2524747848510742,-0.01810932159423828,0.07030868530273438,-0.24345684051513672,-0.7867345809936523,0.24604511260986328,-0.5111246109008789
20,7324320.0,9.204788208007812,-1.8088741302490234,3.244241714477539,-0.2524747848510742,-0.01810932159423828,0.07030868530273438,-0.2427234649658203,-0.7862167358398438,0.2450094223022461,-0.5127220153808594
21,7324541.0,9.225139617919922,-1.4006500244140625,3.3627586364746094,0.15127182006835938,-0.02982807159423828,0.17577362060546875,-0.23409175872802734,-0.783238410949707,0.2402191162109375,-0.5235109329223633
22,7324561.0,9.233519554138184,-1.1875600814819336,3.255016326904297,0.17151260375976562,-0.012783050537109375,0.17470836639404297,-0.23409175872802734,-0.783238410949707,0.2402191162109375,-0.5235109329223633
23,7324581.0,9.04556941986084,-1.2091083526611328,3.0479116439819336,0.11398601531982422,0.0,0.1672515869140625,-0.23409175872802734,-0.783238410949707,0.2402191162109375,-0.5235109329223633
24,7324601.0,8.95578384399414,-1.2857246398925781,2.992842674255371,0.05965614318847656,-0.010652542114257812,0.12890052795410156,-0.23409175872802734,-0.783238410949707,0.2402191162109375,-0.5235109329223633
25,7324620.0,9.06472396850586,-1.413818359375,3.1963558197021484,0.060721397399902344,-0.0287628173828125,0.08948421478271484,-0.23409175872802734,-0.783238410949707,0.2402191162109375,-0.5235109329223633
26,7324839.0,9.194014549255371,-1.5969810485839844,3.240650177001953,-0.013848304748535156,-0.07244014739990234,-0.02769756317138672,-0.2369394302368164,-0.7825479507446289,0.2215747833251953,-0.5314521789550781
27,7324859.0,9.217957496643066,-1.6819772720336914,3.2298765182495117,0.01810932159423828,-0.0692434310913086,-0.020239830017089844,-0.2371988296508789,-0.7820730209350586,0.22153186798095703,-0.5319700241088867
28,7324879.0,9.156903266906738,-1.5574750900268555,3.2538185119628906,0.06391716003417969,-0.05965614318847656,-0.0063915252685546875,-0.2371988296508789,-0.7820730209350586,0.22153186798095703,-0.5319700241088867
29,7324899.0,9.21675968170166,-1.540715217590332,3.217905044555664,0.045806884765625,-0.054329872131347656,0.009587287902832031,-0.2371988296508789,-0.7820730209350586,0.22153186798095703,-0.5319700241088867
30,7324918.0,9.160494804382324,-1.5909948348999023,3.1963558197021484,0.0170440673828125,-0.03515434265136719,0.021305084228515625,-0.23706912994384766,-0.7816848754882812,0.22002124786376953,-0.5332221984863281
31,7325039.0,9.293376922607422,-1.4652957916259766,3.087416648864746,0.0862884521484375,-0.020239830017089844,0.041545867919921875,-0.23728561401367188,-0.7817277908325195,0.21954631805419922,-0.5333518981933594
32,7325059.0,9.274222373962402,-1.4569158554077148,3.0179824829101562,0.04900360107421875,-0.009587287902832031,0.03941535949707031,-0.23728561401367188,-0.7817277908325195,0.21954631805419922,-0.5333518981933594
33,7325079.0,9.21556282043457,-1.5455036163330078,3.0455169677734375,0.010652542114257812,-0.004261016845703125,0.03728485107421875,-0.23728561401367188,-0.7817277908325195,0.21954631805419922,-0.5333518981933594
34,7325099.0,9.228731155395508,-1.6137409210205078,3.0479116439819336,0.0287628173828125,-0.010652542114257812,0.03835010528564453,-0.23728561401367188,-0.7817277908325195,0.21954631805419922,-0.5333518981933594
35,7325119.0,9.231125831604004,-1.5419120788574219,3.0682621002197266,0.07244014739990234,-0.01597881317138672,0.04687213897705078,-0.23728561401367188,-0.7817277908325195,0.21954631805419922,-0.5333518981933594
36,7325138.0,9.226337432861328,-1.4688873291015625,3.03115177154541,0.05113410949707031,-0.012783050537109375,0.04474163055419922,-0.23728561401367188,-0.7817277908325195,0.21954631805419922,-0.5333518981933594
37,7325238.0,9.141340255737305,-1.5933895111083984,2.938971519470215,0.020239830017089844,-0.021305084228515625,0.03621959686279297,-0.23810482025146484,-0.7835407257080078,0.21013736724853516,-0.5339984893798828
38,7325258.0,9.134157180786133,-1.665217399597168,2.9784774780273438,0.05006885528564453,-0.023435592651367188,0.025567054748535156,-0.23810482025146484,-0.7835407257080078,0.21013736724853516,-0.5339984893798828
39,7325278.0,9.19640827178955,-1.5874032974243164,3.058685302734375,0.0916147232055664,-0.03515434265136719,0.012783050537109375,-0.23810482025146484,-0.7835407257080078,0.21013736724853516,-0.5339984893798828
40,7325298.0,9.2550687789917,-1.383890151977539,3.021574020385742,0.05646038055419922,-0.03621959686279297,0.0063915252685546875,-0.23810482025146484,-0.7835407257080078,0.21013736724853516,-0.5339984893798828
41,7325318.0,9.26464557647705,-1.4820556640625,2.9832658767700195,-0.052199363708496094,-0.023435592651367188,0.004261016845703125,-0.23810482025146484,-0.7835407257080078,0.21013736724853516,-0.5339984893798828
42,7325337.0,9.18443775177002,-1.6209230422973633,3.0096025466918945,-0.11079025268554688,-0.007456779479980469,0.005326271057128906,-0.23810482025146484,-0.7835407257080078,0.21013736724853516,-0.5339984893798828
43,7325467.0,9.225139617919922,-1.4988155364990234,2.96291446685791,0.0862884521484375,-0.02982807159423828,-0.0021305084228515625,-0.23931312561035156,-0.7830228805541992,0.20659828186035156,-0.5356388092041016
44,7325467.0,9.225139617919922,-1.4988155364990234,2.96291446685791,0.0862884521484375,-0.02982807159423828,-0.0021305084228515625,-0.23931312561035156,-0.7830228805541992,0.20659828186035156,-0.5356388092041016
45,7325487.0,9.223942756652832,-1.5059986114501953,2.9234085083007812,0.05539512634277344,-0.031958580017089844,-0.0170440673828125,-0.23931312561035156,-0.7830228805541992,0.20659828186035156,-0.5356388092041016
46,7325487.0,9.223942756652832,-1.5059986114501953,2.9234085083007812,0.05539512634277344,-0.031958580017089844,-0.0170440673828125,-0.23931312561035156,-0.7830228805541992,0.20659828186035156,-0.5356388092041016
47,7325507.0,9.188028335571289,-1.5778264999389648,2.9293947219848633,0.031958580017089844,-0.03515434265136719,-0.033023834228515625,-0.23931312561035156,-0.7830228805541992,0.20659828186035156,-0.5356388092041016
48,7325507.0,9.188028335571289,-1.5778264999389648,2.9293947219848633,0.031958580017089844,-0.03515434265136719,-0.033023834228515625,-0.23931312561035156,-0.7830228805541992,0.20659828186035156,-0.5356388092041016
49,7325527.0,9.23591423034668,-1.6724004745483398,3.026362419128418,0.04793834686279297,-0.040480613708496094,-0.03621959686279297,-0.23931312561035156,-0.7830228805541992,0.20659828186035156,-0.5356388092041016
50,7325527.0,9.23591423034668,-1.6724004745483398,3.026362419128418,0.04793834686279297,-0.040480613708496094,-0.03621959686279297,-0.23931312561035156,-0.7830228805541992,0.20659828186035156,-0.5356388092041016
51,7325546.0,9.275420188903809,-1.605360984802246,3.002420425415039,0.06711292266845703,-0.05113410949707031,-0.031958580017089844,-0.23931312561035156,-0.7830228805541992,0.20659828186035156,-0.5356388092041016
52,7325546.0,9.275420188903809,-1.605360984802246,3.002420425415039,0.06711292266845703,-0.05113410949707031,-0.031958580017089844,-0.23931312561035156,-0.7830228805541992,0.20659828186035156,-0.5356388092041016
53,7325657.0,9.198802947998047,-1.476069450378418,3.0491085052490234,0.06711292266845703,-0.05113410949707031,-0.031958580017089844,-0.23931312561035156,-0.7830228805541992,0.20659828186035156,-0.5356388092041016
54,7325657.0,9.198802947998047,-1.476069450378418,3.0491085052490234,0.06711292266845703,-0.05113410949707031,-0.031958580017089844,-0.23931312561035156,-0.7830228805541992,0.20659828186035156,-0.5356388092041016
55,7325677.0,9.176057815551758,-1.5957832336425781,3.0778398513793945,0.06711292266845703,-0.05113410949707031,-0.031958580017089844,-0.23931312561035156,-0.7830228805541992,0.20659828186035156,-0.5356388092041016
56,7325677.0,9.176057815551758,-1.5957832336425781,3.0778398513793945,0.06711292266845703,-0.05113410949707031,-0.031958580017089844,-0.23931312561035156,-0.7830228805541992,0.20659828186035156,-0.5356388092041016
57,7325697.0,9.202394485473633,-1.638880729675293,3.039531707763672,0.06711292266845703,-0.05113410949707031,-0.031958580017089844,-0.23931312561035156,-0.7830228805541992,0.20659828186035156,-0.5356388092041016
58,7325697.0,9.202394485473633,-1.638880729675293,3.039531707763672,0.06711292266845703,-0.05113410949707031,-0.031958580017089844,-0.23931312561035156,-0.7830228805541992,0.20659828186035156,-0.5356388092041016
59,7325717.0,9.209577560424805,-1.4736757278442383,3.093402862548828,0.06711292266845703,-0.05113410949707031,-0.031958580017089844,-0.23931312561035156,-0.7830228805541992,0.20659828186035156,-0.5356388092041016
60,7325717.0,9.209577560424805,-1.4736757278442383,3.093402862548828,0.06711292266845703,-0.05113410949707031,-0.031958580017089844,-0.23931312561035156,-0.7830228805541992,0.20659828186035156,-0.5356388092041016
61,7325736.0,9.232322692871094,-1.4221982955932617,3.028757095336914,0.06711292266845703,-0.05113410949707031,-0.031958580017089844,-0.23931312561035156,-0.7830228805541992,0.20659828186035156,-0.5356388092041016
62,7325736.0,9.232322692871094,-1.4221982955932617,3.028757095336914,0.06711292266845703,-0.05113410949707031,-0.031958580017089844,-0.23931312561035156,-0.7830228805541992,0.20659828186035156,-0.5356388092041016
63,7325965.0,9.226337432861328,-1.544306755065918,3.0239686965942383,-0.010652542114257812,0.009587287902832031,-0.0063915252685546875,-0.23452281951904297,-0.7830657958984375,0.1999950408935547,-0.5401706695556641
64,7325975.0,9.26464557647705,-1.5036039352416992,3.0048141479492188,0.024501800537109375,-0.013848304748535156,-0.010652542114257812,-0.23452281951904297,-0.7830657958984375,0.1999950408935547,-0.5401706695556641
65,7325985.0,9.252674102783203,-1.4964208602905273,3.003617286682129,0.024501800537109375,-0.013848304748535156,-0.010652542114257812,-0.23452281951904297,-0.7830657958984375,0.1999950408935547,-0.5401706695556641
66,7325995.0,9.250279426574707,-1.5383214950561523,2.997631072998047,-0.022370338439941406,-0.007456779479980469,0.004261016845703125,-0.23452281951904297,-0.7830657958984375,0.1999950408935547,-0.5401706695556641
67,7326005.0,9.23711109161377,-1.570643424987793,2.9832658767700195,-0.022370338439941406,-0.007456779479980469,0.004261016845703125,-0.23452281951904297,-0.7830657958984375,0.1999950408935547,-0.5401706695556641
68,7326015.0,9.191619873046875,-1.5969810485839844,3.0096025466918945,-0.03515434265136719,-0.0021305084228515625,0.00852203369140625,-0.23452281951904297,-0.7830657958984375,0.1999950408935547,-0.5401706695556641
69,7326025.0,9.132960319519043,-1.6101493835449219,3.0826282501220703,-0.03515434265136719,-0.0021305084228515625,0.00852203369140625,-0.23452281951904297,-0.7830657958984375,0.1999950408935547,-0.5401706695556641
70,7326035.0,9.124580383300781,-1.5981779098510742,3.0670652389526367,0.0,0.0010652542114257812,0.020239830017089844,-0.23452281951904297,-0.7830657958984375,0.1999950408935547,-0.5401706695556641
71,7326044.0,9.131763458251953,-1.537123680114746,3.0347423553466797,0.0,0.0010652542114257812,0.020239830017089844,-0.23452281951904297,-0.7830657958984375,0.1999950408935547,-0.5401706695556641
72,7326055.0,9.091060638427734,-1.5036039352416992,2.9940404891967773,0.0,0.0010652542114257812,0.020239830017089844,-0.23452281951904297,-0.7830657958984375,0.1999950408935547,-0.5401706695556641
73,7326075.0,9.061132431030273,-1.5251522064208984,2.9545345306396484,0.0,0.0010652542114257812,0.020239830017089844,-0.23452281951904297,-0.7830657958984375,0.1999950408935547,-0.5401706695556641
74,7326095.0,9.126975059509277,-1.5239553451538086,2.900663375854492,0.0,0.0010652542114257812,0.020239830017089844,-0.23452281951904297,-0.7830657958984375,0.1999950408935547,-0.5401706695556641
75,7326115.0,9.107820510864258,-1.5059986114501953,2.935379981994629,0.0,0.0010652542114257812,0.020239830017089844,-0.23452281951904297,-0.7830657958984375,0.1999950408935547,-0.5401706695556641
76,7326135.0,9.160494804382324,-1.4150161743164062,2.8551721572875977,0.0,0.0010652542114257812,0.020239830017089844,-0.23452281951904297,-0.7830657958984375,0.1999950408935547,-0.5401706695556641
77,7326255.0,9.258659362792969,-1.5526866912841797,2.8575668334960938,0.061786651611328125,-0.05539512634277344,-0.061786651611328125,-0.22722911834716797,-0.7823753356933594,0.1974925994873047,-0.5452203750610352
78,7326275.0,9.310136795043945,-1.5227584838867188,2.936577796936035,0.061786651611328125,-0.05539512634277344,-0.061786651611328125,-0.22722911834716797,-0.7823753356933594,0.1974925994873047,-0.5452203750610352
79,7326295.0,9.347248077392578,-1.4365644454956055,2.9521398544311523,0.061786651611328125,-0.05539512634277344,-0.061786651611328125,-0.22722911834716797,-0.7823753356933594,0.1974925994873047,-0.5452203750610352
80,7326315.0,9.268237113952637,-1.4365644454956055,2.992842674255371,0.061786651611328125,-0.05539512634277344,-0.061786651611328125,-0.22722911834716797,-0.7823753356933594,0.1974925994873047,-0.5452203750610352
81,7326335.0,9.28619384765625,-1.4904356002807617,3.0718536376953125,0.061786651611328125,-0.05539512634277344,-0.061786651611328125,-0.22722911834716797,-0.7823753356933594,0.1974925994873047,-0.5452203750610352
82,7326453.0,9.288588523864746,-1.332413673400879,3.0131940841674805,0.05006885528564453,-0.00852203369140625,0.005326271057128906,-0.2256326675415039,-0.7809944152832031,0.19559288024902344,-0.5485429763793945
83,7326473.0,9.241899490356445,-1.3312158584594727,3.007208824157715,0.05006885528564453,-0.00852203369140625,0.005326271057128906,-0.2256326675415039,-0.7809944152832031,0.19559288024902344,-0.5485429763793945
84,7326493.0,9.226337432861328,-1.4377613067626953,2.948549270629883,0.05006885528564453,-0.00852203369140625,0.005326271057128906,-0.2256326675415039,-0.7809944152832031,0.19559288024902344,-0.5485429763793945
85,7326513.0,9.311333656311035,-1.4844493865966797,2.9246063232421875,0.05006885528564453,-0.00852203369140625,0.005326271057128906,-0.2256326675415039,-0.7809944152832031,0.19559288024902344,-0.5485429763793945
86,7326533.0,9.346051216125488,-1.4018478393554688,2.9234085083007812,0.05006885528564453,-0.00852203369140625,0.005326271057128906,-0.2256326675415039,-0.7809944152832031,0.19559288024902344,-0.5485429763793945
87,7326653.0,9.219154357910156,-1.3934669494628906,2.8815088272094727,-0.01597881317138672,0.005326271057128906,0.019174575805664062,-0.22653865814208984,-0.7812099456787109,0.19563674926757812,-0.5478096008300781
88,7326673.0,9.233519554138184,-1.4018478393554688,2.871932029724121,0.0021305084228515625,-0.0010652542114257812,0.00852203369140625,-0.22653865814208984,-0.7812099456787109,0.19563674926757812,-0.5478096008300781
89,7326693.0,9.275420188903809,-1.298893928527832,2.836017608642578,0.012783050537109375,-0.0063915252685546875,-0.0010652542114257812,-0.22653865814208984,-0.7812099456787109,0.19563674926757812,-0.5478096008300781
90,7326713.0,9.251477241516113,-1.3659334182739258,2.8958749771118164,-0.010652542114257812,-0.004261016845703125,-0.010652542114257812,-0.22653865814208984,-0.7812099456787109,0.19563674926757812,-0.5478096008300781
91,7326733.0,9.207182884216309,-1.4473390579223633,2.8862972259521484,-0.007456779479980469,-0.00852203369140625,-0.013848304748535156,-0.22653865814208984,-0.7812099456787109,0.19563674926757812,-0.5478096008300781
92,7326754.0,9.180846214294434,-1.389876365661621,2.9102401733398438,-0.007456779479980469,-0.00852203369140625,-0.013848304748535156,-0.22653865814208984,-0.7812099456787109,0.19563674926757812,-0.5478096008300781
93,7326773.0,9.253870964050293,-1.3755102157592773,2.882706642150879,-0.007456779479980469,-0.00852203369140625,-0.013848304748535156,-0.22653865814208984,-0.7812099456787109,0.19563674926757812,-0.5478096008300781
94,7326793.0,9.359219551086426,-1.3683271408081055,2.909043312072754,-0.007456779479980469,-0.00852203369140625,-0.013848304748535156,-0.22653865814208984,-0.7812099456787109,0.19563674926757812,-0.5478096008300781
95,7326813.0,9.325699806213379,-1.4054384231567383,2.901860237121582,-0.007456779479980469,-0.00852203369140625,-0.013848304748535156,-0.22653865814208984,-0.7812099456787109,0.19563674926757812,-0.5478096008300781
96,7326833.0,9.269433975219727,-1.3970584869384766,2.909043312072754,-0.007456779479980469,-0.00852203369140625,-0.013848304748535156,-0.22653865814208984,-0.7812099456787109,0.19563674926757812,-0.5478096008300781
97,7326953.0,9.258659362792969,-1.3455820083618164,2.9533376693725586,0.02982807159423828,-0.009587287902832031,-0.0063915252685546875,-0.2241649627685547,-0.7808647155761719,0.19624042510986328,-0.5490608215332031
98,7326953.0,9.258659362792969,-1.3455820083618164,2.9533376693725586,0.02982807159423828,-0.009587287902832031,-0.0063915252685546875,-0.2241649627685547,-0.7808647155761719,0.19624042510986328,-0.5490608215332031
99,7326972.0,9.293376922607422,-1.3503704071044922,2.9210147857666016,0.0,-0.0021305084228515625,-0.004261016845703125,-0.2241649627685547,-0.7808647155761719,0.19624042510986328,-0.5490608215332031
100,7326972.0,9.293376922607422,-1.3503704071044922,2.9210147857666016,0.0,-0.0021305084228515625,-0.004261016845703125,-0.2241649627685547,-0.7808647155761719,0.19624042510986328,-0.5490608215332031
101,7326992.0,9.21436595916748,-1.3934669494628906,2.9533376693725586,-0.020239830017089844,0.007456779479980469,-0.0010652542114257812,-0.2241649627685547,-0.7808647155761719,0.19624042510986328,-0.5490608215332031
102,7326992.0,9.21436595916748,-1.3934669494628906,2.9533376693725586,-0.020239830017089844,0.007456779479980469,-0.0010652542114257812,-0.2241649627685547,-0.7808647155761719,0.19624042510986328,-0.5490608215332031
103,7327012.0,9.23471736907959,-1.442549705505371,2.9150285720825195,-0.0010652542114257812,0.004261016845703125,0.0031957626342773438,-0.2241649627685547,-0.7808647155761719,0.19624042510986328,-0.5490608215332031
104,7327012.0,9.23471736907959,-1.442549705505371,2.9150285720825195,-0.0010652542114257812,0.004261016845703125,0.0031957626342773438,-0.2241649627685547,-0.7808647155761719,0.19624042510986328,-0.5490608215332031
105,7327032.0,9.280208587646484,-1.4102277755737305,2.91143798828125,0.030893325805664062,-0.0010652542114257812,0.005326271057128906,-0.2241649627685547,-0.7808647155761719,0.19624042510986328,-0.5490608215332031
106,7327032.0,9.280208587646484,-1.4102277755737305,2.91143798828125,0.030893325805664062,-0.0010652542114257812,0.005326271057128906,-0.2241649627685547,-0.7808647155761719,0.19624042510986328,-0.5490608215332031
107,7327052.0,9.302953720092773,-1.3671302795410156,2.8958749771118164,0.03621959686279297,-0.0010652542114257812,0.004261016845703125,-0.2241649627685547,-0.7808647155761719,0.19624042510986328,-0.5490608215332031
108,7327052.0,9.302953720092773,-1.3671302795410156,2.8958749771118164,0.03621959686279297,-0.0010652542114257812,0.004261016845703125,-0.2241649627685547,-0.7808647155761719,0.19624042510986328,-0.5490608215332031
109,7327071.0,9.26584243774414,-1.391073226928711,2.935379981994629,0.030893325805664062,0.004261016845703125,-0.0010652542114257812,-0.2241649627685547,-0.7808647155761719,0.19624042510986328,-0.5490608215332031
110,7327071.0,9.26584243774414,-1.391073226928711,2.935379981994629,0.030893325805664062,0.004261016845703125,-0.0010652542114257812,-0.2241649627685547,-0.7808647155761719,0.19624042510986328,-0.5490608215332031
111,7327091.0,9.258659362792969,-1.383890151977539,2.942563056945801,0.031958580017089844,0.0,-0.0021305084228515625,-0.2241649627685547,-0.7808647155761719,0.19624042510986328,-0.5490608215332031
112,7327091.0,9.258659362792969,-1.383890151977539,2.942563056945801,0.031958580017089844,0.0,-0.0021305084228515625,-0.2241649627685547,-0.7808647155761719,0.19624042510986328,-0.5490608215332031
113,7327111.0,9.276617050170898,-1.3767070770263672,2.8898887634277344,0.033023834228515625,0.0,0.0031957626342773438,-0.2241649627685547,-0.7808647155761719,0.19624042510986328,-0.5490608215332031
114,7327111.0,9.276617050170898,-1.3767070770263672,2.8898887634277344,0.033023834228515625,0.0,0.0031957626342773438,-0.2241649627685547,-0.7808647155761719,0.19624042510986328,-0.5490608215332031
115,7327131.0,9.269433975219727,-1.3563566207885742,2.8635520935058594,0.01810932159423828,0.005326271057128906,0.004261016845703125,-0.2241649627685547,-0.7808647155761719,0.19624042510986328,-0.5490608215332031
116,7327131.0,9.269433975219727,-1.3563566207885742,2.8635520935058594,0.01810932159423828,0.005326271057128906,0.004261016845703125,-0.2241649627685547,-0.7808647155761719,0.19624042510986328,-0.5490608215332031
117,7327252.0,9.239505767822266,-1.446141242980957,2.8551721572875977,0.011717796325683594,-0.0021305084228515625,0.00852203369140625,-0.2241649627685547,-0.7808647155761719,0.19624042510986328,-0.5490608215332031
118,7327252.0,9.239505767822266,-1.446141242980957,2.8551721572875977,0.011717796325683594,-0.0021305084228515625,0.00852203369140625,-0.2241649627685547,-0.7808647155761719,0.19624042510986328,-0.5490608215332031
119,7327271.0,9.259857177734375,-1.4018478393554688,2.9030580520629883,0.030893325805664062,-0.009587287902832031,0.011717796325683594,-0.2241649627685547,-0.7808647155761719,0.19624042510986328,-0.5490608215332031
120,7327271.0,9.259857177734375,-1.4018478393554688,2.9030580520629883,0.030893325805664062,-0.009587287902832031,0.011717796325683594,-0.2241649627685547,-0.7808647155761719,0.19624042510986328,-0.5490608215332031
121,7327291.0,9.298165321350098,-1.3491735458374023,2.901860237121582,0.030893325805664062,-0.009587287902832031,0.01597881317138672,-0.2241649627685547,-0.7808647155761719,0.19624042510986328,-0.5490608215332031
122,7327291.0,9.298165321350098,-1.3491735458374023,2.901860237121582,0.030893325805664062,-0.009587287902832031,0.01597881317138672,-0.2241649627685547,-0.7808647155761719,0.19624042510986328,-0.5490608215332031
123,7327311.0,9.239505767822266,-1.3695249557495117,2.9210147857666016,0.007456779479980469,-0.0010652542114257812,0.01810932159423828,-0.2241649627685547,-0.7808647155761719,0.19624042510986328,-0.5490608215332031
124,7327311.0,9.239505767822266,-1.3695249557495117,2.9210147857666016,0.007456779479980469,-0.0010652542114257812,0.01810932159423828,-0.2241649627685547,-0.7808647155761719,0.19624042510986328,-0.5490608215332031
125,7327331.0,9.246688842773438,-1.4126214981079102,2.930591583251953,0.009587287902832031,-0.004261016845703125,0.021305084228515625,-0.2241649627685547,-0.7808647155761719,0.19624042510986328,-0.5490608215332031
126,7327331.0,9.246688842773438,-1.4126214981079102,2.930591583251953,0.009587287902832031,-0.004261016845703125,0.021305084228515625,-0.2241649627685547,-0.7808647155761719,0.19624042510986328,-0.5490608215332031
127,7327351.0,9.281405448913574,-1.3383989334106445,2.931788444519043,0.022370338439941406,-0.0063915252685546875,0.021305084228515625,-0.2241649627685547,-0.7808647155761719,0.19624042510986328,-0.5490608215332031
128,7327370.0,9.299362182617188,-1.3395957946777344,2.9234085083007812,0.014913558959960938,-0.007456779479980469,0.0170440673828125,-0.2241649627685547,-0.7808647155761719,0.19624042510986328,-0.5490608215332031
129,7327390.0,9.244294166564941,-1.3623418807983398,2.9581260681152344,-0.0010652542114257812,-0.0021305084228515625,0.010652542114257812,-0.2241649627685547,-0.7808647155761719,0.19624042510986328,-0.5490608215332031
130,7327410.0,9.183239936828613,-1.383890151977539,2.936577796936035,0.0063915252685546875,0.0,0.011717796325683594,-0.2241649627685547,-0.7808647155761719,0.19624042510986328,-0.5490608215332031
131,7327430.0,9.207182884216309,-1.387481689453125,2.9150285720825195,0.024501800537109375,-0.005326271057128906,0.010652542114257812,-0.2241649627685547,-0.7808647155761719,0.19624042510986328,-0.5490608215332031
132,7327450.0,9.173663139343262,-1.2498111724853516,2.8851003646850586,0.024501800537109375,-0.005326271057128906,0.010652542114257812,-0.2241649627685547,-0.7808647155761719,0.19624042510986328,-0.5490608215332031
133,7327469.0,9.344853401184082,-1.2773447036743164,2.813272476196289,0.024501800537109375,-0.005326271057128906,0.010652542114257812,-0.2241649627685547,-0.7808647155761719,0.19624042510986328,-0.5490608215332031
134,7327489.0,9.390344619750977,-1.322835922241211,2.836017608642578,0.024501800537109375,-0.005326271057128906,0.010652542114257812,-0.2241649627685547,-0.7808647155761719,0.19624042510986328,-0.5490608215332031
135,7327509.0,9.267040252685547,-1.351567268371582,2.8635520935058594,0.024501800537109375,-0.005326271057128906,0.010652542114257812,-0.2241649627685547,-0.7808647155761719,0.19624042510986328,-0.5490608215332031
136,7327529.0,9.290982246398926,-1.3743133544921875,2.8240461349487305,0.024501800537109375,-0.005326271057128906,0.010652542114257812,-0.2241649627685547,-0.7808647155761719,0.19624042510986328,-0.5490608215332031
137,7327550.0,9.308939933776855,-1.3072738647460938,2.8587636947631836,0.024501800537109375,-0.005326271057128906,0.010652542114257812,-0.2241649627685547,-0.7808647155761719,0.19624042510986328,-0.5490608215332031
138,7327570.0,9.240702629089355,-1.2617826461791992,2.871932029724121,0.024501800537109375,-0.005326271057128906,0.010652542114257812,-0.2241649627685547,-0.7808647155761719,0.19624042510986328,-0.5490608215332031
139,7327589.0,9.21556282043457,-1.2821340560913086,2.900663375854492,0.024501800537109375,-0.005326271057128906,0.010652542114257812,-0.2241649627685547,-0.7808647155761719,0.19624042510986328,-0.5490608215332031
140,7327609.0,9.275420188903809,-1.3348073959350586,2.9150285720825195,0.024501800537109375,-0.005326271057128906,0.010652542114257812,-0.2241649627685547,-0.7808647155761719,0.19624042510986328,-0.5490608215332031
141,7327629.0,9.26584243774414,-1.328822135925293,2.906648635864258,0.024501800537109375,-0.005326271057128906,0.010652542114257812,-0.2241649627685547,-0.7808647155761719,0.19624042510986328,-0.5490608215332031
142,7327750.0,9.282602310180664,-1.3407936096191406,2.901860237121582,0.0,-0.0063915252685546875,-0.012783050537109375,-0.2241649627685547,-0.7808647155761719,0.19624042510986328,-0.5490608215332031
143,7327770.0,9.245491027832031,-1.3886785507202148,2.909043312072754,0.0010652542114257812,0.0,-0.012783050537109375,-0.2241649627685547,-0.7808647155761719,0.19624042510986328,-0.5490608215332031
144,7327789.0,9.252674102783203,-1.3922700881958008,2.8898887634277344,0.014913558959960938,-0.004261016845703125,-0.005326271057128906,-0.2241649627685547,-0.7808647155761719,0.19624042510986328,-0.5490608215332031
145,7327809.0,9.28619384765625,-1.3168506622314453,2.8707351684570312,0.022370338439941406,-0.005326271057128906,-0.0031957626342773438,-0.2241649627685547,-0.7808647155761719,0.19624042510986328,-0.5490608215332031
146,7327829.0,9.277813911437988,-1.332413673400879,2.880311965942383,-0.0021305084228515625,0.0,-0.0010652542114257812,-0.2241649627685547,-0.7808647155761719,0.19624042510986328,-0.5490608215332031
147,7327949.0,9.28380012512207,-1.3635387420654297,2.8779172897338867,0.05646038055419922,-0.0010652542114257812,0.024501800537109375,-0.21751880645751953,-0.7819433212280273,0.18955135345458984,-0.5525999069213867
148,7327969.0,9.271828651428223,-1.2881193161010742,2.8587636947631836,0.052199363708496094,-0.0010652542114257812,0.0287628173828125,-0.21721649169921875,-0.7821159362792969,0.18903350830078125,-0.552642822265625
149,7327988.0,9.299362182617188,-1.2917108535766602,2.8707351684570312,0.04367637634277344,-0.005326271057128906,0.031958580017089844,-0.21700096130371094,-0.7822456359863281,0.18847179412841797,-0.5526866912841797
150,7328008.0,9.329291343688965,-1.2258682250976562,2.869537353515625,0.030893325805664062,-0.005326271057128906,0.026632308959960938,-0.2168283462524414,-0.7824182510375977,0.18804073333740234,-0.5526866912841797
151,7328028.0,9.293376922607422,-1.2845277786254883,2.84200382232666,0.0063915252685546875,-0.0021305084228515625,0.023435592651367188,-0.2168283462524414,-0.7825050354003906,0.18769550323486328,-0.5526866912841797
152,7328049.0,9.26464557647705,-1.3120622634887695,2.8635520935058594,0.0063915252685546875,-0.0021305084228515625,0.023435592651367188,-0.21691417694091797,-0.7825479507446289,0.18747901916503906,-0.5525999069213867
153,7328049.0,9.26464557647705,-1.3120622634887695,2.8635520935058594,0.0063915252685546875,-0.0021305084228515625,0.023435592651367188,-0.21691417694091797,-0.7825479507446289,0.18747901916503906,-0.5525999069213867
154,7328069.0,9.288588523864746,-1.2426280975341797,2.864748954772949,0.0063915252685546875,-0.0021305084228515625,0.023435592651367188,-0.21691417694091797,-0.7825479507446289,0.18747901916503906,-0.5525999069213867
155,7328069.0,9.288588523864746,-1.2426280975341797,2.864748954772949,0.0063915252685546875,-0.0021305084228515625,0.023435592651367188,-0.21691417694091797,-0.7825479507446289,0.18747901916503906,-0.5525999069213867
156,7328088.0,9.33527660369873,-1.2414312362670898,2.936577796936035,0.0063915252685546875,-0.0021305084228515625,0.023435592651367188,-0.21691417694091797,-0.7825479507446289,0.18747901916503906,-0.5525999069213867
157,7328088.0,9.33527660369873,-1.2414312362670898,2.936577796936035,0.0063915252685546875,-0.0021305084228515625,0.023435592651367188,-0.21691417694091797,-0.7825479507446289,0.18747901916503906,-0.5525999069213867
158,7328108.0,9.210774421691895,-1.3336105346679688,2.743838310241699,0.0063915252685546875,-0.0021305084228515625,0.023435592651367188,-0.21691417694091797,-0.7825479507446289,0.18747901916503906,-0.5525999069213867
159,7328108.0,9.210774421691895,-1.3336105346679688,2.743838310241699,0.0063915252685546875,-0.0021305084228515625,0.023435592651367188,-0.21691417694091797,-0.7825479507446289,0.18747901916503906,-0.5525999069213867
160,7328128.0,9.203591346740723,-1.4676895141601562,3.0167856216430664,0.0063915252685546875,-0.0021305084228515625,0.023435592651367188,-0.21691417694091797,-0.7825479507446289,0.18747901916503906,-0.5525999069213867
161,7328128.0,9.203591346740723,-1.4676895141601562,3.0167856216430664,0.0063915252685546875,-0.0021305084228515625,0.023435592651367188,-0.21691417694091797,-0.7825479507446289,0.18747901916503906,-0.5525999069213867
162,7328347.0,9.259857177734375,-1.2761478424072266,2.9653091430664062,0.052199363708496094,-0.031958580017089844,0.04474163055419922,-0.2083263397216797,-0.7847061157226562,0.1742725372314453,-0.5572185516357422
163,7328347.0,9.259857177734375,-1.2761478424072266,2.9653091430664062,0.052199363708496094,-0.031958580017089844,0.04474163055419922,-0.2083263397216797,-0.7847061157226562,0.1742725372314453,-0.5572185516357422
164,7328366.0,9.275420188903809,-1.4054384231567383,2.916226387023926,0.054329872131347656,-0.026632308959960938,0.03621959686279297,-0.2083263397216797,-0.7847061157226562,0.1742725372314453,-0.5572185516357422
165,7328366.0,9.275420188903809,-1.4054384231567383,2.916226387023926,0.054329872131347656,-0.026632308959960938,0.03621959686279297,-0.2083263397216797,-0.7847061157226562,0.1742725372314453,-0.5572185516357422
166,7328386.0,9.290982246398926,-1.351567268371582,2.937774658203125,0.0862884521484375,-0.033023834228515625,0.045806884765625,-0.2083263397216797,-0.7847061157226562,0.1742725372314453,-0.5572185516357422
167,7328386.0,9.290982246398926,-1.351567268371582,2.937774658203125,0.0862884521484375,-0.033023834228515625,0.045806884765625,-0.2083263397216797,-0.7847061157226562,0.1742725372314453,-0.5572185516357422
168,7328406.0,9.360416412353516,-1.266571044921875,3.025165557861328,0.09907245635986328,-0.033023834228515625,0.030893325805664062,-0.2083263397216797,-0.7847061157226562,0.1742725372314453,-0.5572185516357422
169,7328406.0,9.360416412353516,-1.266571044921875,3.025165557861328,0.09907245635986328,-0.033023834228515625,0.030893325805664062,-0.2083263397216797,-0.7847061157226562,0.1742725372314453,-0.5572185516357422
170,7328426.0,9.28499698638916,-1.1600255966186523,2.9724912643432617,0.05965614318847656,-0.025567054748535156,0.03941535949707031,-0.2083263397216797,-0.7847061157226562,0.1742725372314453,-0.5572185516357422
171,7328426.0,9.28499698638916,-1.1600255966186523,2.9724912643432617,0.05965614318847656,-0.025567054748535156,0.03941535949707031,-0.2083263397216797,-0.7847061157226562,0.1742725372314453,-0.5572185516357422
172,7328447.0,9.30534839630127,-1.3443851470947266,2.904254913330078,0.05965614318847656,-0.025567054748535156,0.03941535949707031,-0.2083263397216797,-0.7847061157226562,0.1742725372314453,-0.5572185516357422
173,7328466.0,9.274222373962402,-1.358750343322754,2.875523567199707,0.05965614318847656,-0.025567054748535156,0.03941535949707031,-0.2083263397216797,-0.7847061157226562,0.1742725372314453,-0.5572185516357422
174,7328486.0,9.280208587646484,-1.2749509811401367,2.84320068359375,0.05965614318847656,-0.025567054748535156,0.03941535949707031,-0.2083263397216797,-0.7847061157226562,0.1742725372314453,-0.5572185516357422
175,7328506.0,9.245491027832031,-1.3623418807983398,2.8551721572875977,0.05965614318847656,-0.025567054748535156,0.03941535949707031,-0.2083263397216797,-0.7847061157226562,0.1742725372314453,-0.5572185516357422
176,7328526.0,9.361613273620605,-1.2282629013061523,2.8970718383789062,0.05965614318847656,-0.025567054748535156,0.03941535949707031,-0.2083263397216797,-0.7847061157226562,0.1742725372314453,-0.5572185516357422
177,7328548.0,9.325699806213379,-1.3084707260131836,2.869537353515625,0.05965614318847656,-0.025567054748535156,0.03941535949707031,-0.2083263397216797,-0.7847061157226562,0.1742725372314453,-0.5572185516357422
178,7328548.0,9.325699806213379,-1.3084707260131836,2.869537353515625,0.05965614318847656,-0.025567054748535156,0.03941535949707031,-0.2083263397216797,-0.7847061157226562,0.1742725372314453,-0.5572185516357422
179,7328567.0,9.28619384765625,-1.4365644454956055,2.8994665145874023,0.05965614318847656,-0.025567054748535156,0.03941535949707031,-0.2083263397216797,-0.7847061157226562,0.1742725372314453,-0.5572185516357422
180,7328567.0,9.28619384765625,-1.4365644454956055,2.8994665145874023,0.05965614318847656,-0.025567054748535156,0.03941535949707031,-0.2083263397216797,-0.7847061157226562,0.1742725372314453,-0.5572185516357422
181,7328587.0,9.328093528747559,-1.4018478393554688,2.8994665145874023,0.05965614318847656,-0.025567054748535156,0.03941535949707031,-0.2083263397216797,-0.7847061157226562,0.1742725372314453,-0.5572185516357422
182,7328587.0,9.328093528747559,-1.4018478393554688,2.8994665145874023,0.05965614318847656,-0.025567054748535156,0.03941535949707031,-0.2083263397216797,-0.7847061157226562,0.1742725372314453,-0.5572185516357422
183,7328607.0,9.361613273620605,-1.3443851470947266,2.9521398544311523,0.05965614318847656,-0.025567054748535156,0.03941535949707031,-0.2083263397216797,-0.7847061157226562,0.1742725372314453,-0.5572185516357422
184,7328607.0,9.361613273620605,-1.3443851470947266,2.9521398544311523,0.05965614318847656,-0.025567054748535156,0.03941535949707031,-0.2083263397216797,-0.7847061157226562,0.1742725372314453,-0.5572185516357422
185,7328627.0,9.222745895385742,-1.2797393798828125,2.8635520935058594,0.05965614318847656,-0.025567054748535156,0.03941535949707031,-0.2083263397216797,-0.7847061157226562,0.1742725372314453,-0.5572185516357422
186,7328627.0,9.222745895385742,-1.2797393798828125,2.8635520935058594,0.05965614318847656,-0.025567054748535156,0.03941535949707031,-0.2083263397216797,-0.7847061157226562,0.1742725372314453,-0.5572185516357422
187,7328647.0,9.262250900268555,-1.321639060974121,2.8252439498901367,0.007456779479980469,-0.012783050537109375,0.05113410949707031,-0.2083263397216797,-0.7847061157226562,0.1742725372314453,-0.5572185516357422
188,7328666.0,9.318516731262207,-1.4114246368408203,2.784541130065918,0.040480613708496094,-0.014913558959960938,0.031958580017089844,-0.2083263397216797,-0.7847061157226562,0.1742725372314453,-0.5572185516357422
189,7328686.0,9.360416412353516,-1.4377613067626953,2.839609146118164,0.08415794372558594,-0.004261016845703125,0.05539512634277344,-0.2083263397216797,-0.7847061157226562,0.1742725372314453,-0.5572185516357422
190,7328706.0,9.28619384765625,-1.4916324615478516,2.904254913330078,0.0628519058227539,0.0010652542114257812,0.0745706558227539,-0.2083263397216797,-0.7847061157226562,0.1742725372314453,-0.5572185516357422
191,7328726.0,9.241899490356445,-1.4844493865966797,2.7965126037597656,0.031958580017089844,-0.013848304748535156,0.0628519058227539,-0.2083263397216797,-0.7847061157226562,0.1742725372314453,-0.5572185516357422
192,7328747.0,9.296968460083008,-1.3970584869384766,2.8336238861083984,0.03621959686279297,-0.012783050537109375,0.05539512634277344,-0.2083263397216797,-0.7847061157226562,0.1742725372314453,-0.5572185516357422
193,7328766.0,9.331685066223145,-1.4102277755737305,2.850383758544922,0.03621959686279297,-0.012783050537109375,0.05539512634277344,-0.2083263397216797,-0.7847061157226562,0.1742725372314453,-0.5572185516357422
194,7328786.0,9.232322692871094,-1.3419904708862305,2.79172420501709,0.07350540161132812,-0.0010652542114257812,0.052199363708496094,-0.2083263397216797,-0.7847061157226562,0.1742725372314453,-0.5572185516357422
195,7328806.0,9.231125831604004,-1.4329729080200195,2.904254913330078,0.04687213897705078,-0.010652542114257812,0.053264617919921875,-0.2083263397216797,-0.7847061157226562,0.1742725372314453,-0.5572185516357422
196,7328826.0,9.189226150512695,-1.5838127136230469,2.880311965942383,0.0170440673828125,-0.0010652542114257812,0.05539512634277344,-0.2083263397216797,-0.7847061157226562,0.1742725372314453,-0.5572185516357422
197,7328946.0,9.292180061340332,-1.2115020751953125,2.72109317779541,0.0170440673828125,-0.0010652542114257812,0.05539512634277344,-0.20267200469970703,-0.7882452011108398,0.15528297424316406,-0.5598506927490234
198,7328965.0,9.293376922607422,-1.5299406051635742,2.821652412414551,0.0170440673828125,-0.0010652542114257812,0.05539512634277344,-0.20267200469970703,-0.7882452011108398,0.15528297424316406,-0.5598506927490234
199,7328985.0,9.331685066223145,-1.6460638046264648,3.1400909423828125,0.0170440673828125,-0.0010652542114257812,0.05539512634277344,-0.20267200469970703,-0.7882452011108398,0.15528297424316406,-0.5598506927490234
200,7329005.0,9.111412048339844,-1.3671302795410156,2.5750417709350586,0.0170440673828125,-0.0010652542114257812,0.05539512634277344,-0.20267200469970703,-0.7882452011108398,0.15528297424316406,-0.5598506927490234
201,7329025.0,9.28739070892334,-1.4832525253295898,2.7055301666259766,0.0170440673828125,-0.0010652542114257812,0.05539512634277344,-0.20267200469970703,-0.7882452011108398,0.15528297424316406,-0.5598506927490234
202,7329046.0,9.282602310180664,-1.4102277755737305,2.030344009399414,0.5635414123535156,0.04474163055419922,-0.042611122131347656,-0.20267200469970703,-0.7882452011108398,0.15528297424316406,-0.5598506927490234
203,7329046.0,9.282602310180664,-1.4102277755737305,2.030344009399414,0.5635414123535156,0.04474163055419922,-0.042611122131347656,-0.20267200469970703,-0.7882452011108398,0.15528297424316406,-0.5598506927490234
204,7329046.0,9.282602310180664,-1.4102277755737305,2.030344009399414,0.5635414123535156,0.04474163055419922,-0.042611122131347656,-0.20267200469970703,-0.7882452011108398,0.15528297424316406,-0.5598506927490234
205,7329065.0,9.277813911437988,-3.053896903991699,2.8036956787109375,0.7499685287475586,0.19388389587402344,0.1619243621826172,-0.20267200469970703,-0.7882452011108398,0.15528297424316406,-0.5598506927490234
206,7329065.0,9.277813911437988,-3.053896903991699,2.8036956787109375,0.7499685287475586,0.19388389587402344,0.1619243621826172,-0.20267200469970703,-0.7882452011108398,0.15528297424316406,-0.5598506927490234
207,7329065.0,9.277813911437988,-3.053896903991699,2.8036956787109375,0.7499685287475586,0.19388389587402344,0.1619243621826172,-0.20267200469970703,-0.7882452011108398,0.15528297424316406,-0.5598506927490234
208,7329085.0,9.37597942352295,0.1843585968017578,4.355185508728027,0.8522367477416992,0.03941535949707031,0.007456779479980469,-0.20267200469970703,-0.7882452011108398,0.15528297424316406,-0.5598506927490234
209,7329085.0,9.37597942352295,0.1843585968017578,4.355185508728027,0.8522367477416992,0.03941535949707031,0.007456779479980469,-0.20267200469970703,-0.7882452011108398,0.15528297424316406,-0.5598506927490234
210,7329085.0,9.37597942352295,0.1843585968017578,4.355185508728027,0.8522367477416992,0.03941535949707031,0.007456779479980469,-0.20267200469970703,-0.7882452011108398,0.15528297424316406,-0.5598506927490234
211,7329105.0,9.112608909606934,-0.6979303359985352,2.9174232482910156,0.22264671325683594,0.09907245635986328,0.17044734954833984,-0.20267200469970703,-0.7882452011108398,0.15528297424316406,-0.5598506927490234
212,7329105.0,9.112608909606934,-0.6979303359985352,2.9174232482910156,0.22264671325683594,0.09907245635986328,0.17044734954833984,-0.20267200469970703,-0.7882452011108398,0.15528297424316406,-0.5598506927490234
213,7329105.0,9.112608909606934,-0.6979303359985352,2.9174232482910156,0.22264671325683594,0.09907245635986328,0.17044734954833984,-0.20267200469970703,-0.7882452011108398,0.15528297424316406,-0.5598506927490234
214,7329125.0,9.409499168395996,-2.6756019592285156,1.977670669555664,0.5869779586791992,0.1033334732055664,0.15127182006835938,-0.20267200469970703,-0.7882452011108398,0.15528297424316406,-0.5598506927490234
215,7329125.0,9.409499168395996,-2.6756019592285156,1.977670669555664,0.5869779586791992,0.1033334732055664,0.15127182006835938,-0.20267200469970703,-0.7882452011108398,0.15528297424316406,-0.5598506927490234
216,7329125.0,9.409499168395996,-2.6756019592285156,1.977670669555664,0.5869779586791992,0.1033334732055664,0.15127182006835938,-0.20267200469970703,-0.7882452011108398,0.15528297424316406,-0.5598506927490234
217,7329344.0,7.485699653625488,-0.8332071304321289,1.4054384231567383,-1.4754362106323242,0.4889707565307617,-0.34195995330810547,-0.20267200469970703,-0.7882452011108398,0.15528297424316406,-0.5598506927490234
218,7329363.0,10.585087776184082,-1.5586719512939453,2.72109317779541,-1.4754362106323242,0.4889707565307617,-0.34195995330810547,-0.20543384552001953,-0.8050765991210938,0.13033771514892578,-0.5410337448120117
219,7329383.0,9.713571548461914,-2.2697715759277344,3.590214729309082,-1.4754362106323242,0.4889707565307617,-0.34195995330810547,-0.1999959945678711,-0.8052492141723633,0.13016510009765625,-0.542759895324707
220,7329403.0,8.394326210021973,-0.855952262878418,2.932986259460449,-1.4754362106323242,0.4889707565307617,-0.34195995330810547,-0.18924999237060547,-0.8071908950805664,0.12865447998046875,-0.544097900390625
221,7329423.0,9.28619384765625,-1.109745979309082,2.661235809326172,-1.4754362106323242,0.4889707565307617,-0.34195995330810547,-0.17975521087646484,-0.8092632293701172,0.1262378692626953,-0.5448751449584961
222,7329444.0,9.709980964660645,-1.884293556213379,2.3020944595336914,-0.1619243621826172,-0.07883167266845703,-0.07244014739990234,-0.17751121520996094,-0.8091335296630859,0.12610816955566406,-0.5458240509033203
223,7329463.0,9.191619873046875,-1.7023286819458008,2.663630485534668,0.09694194793701172,-0.12890052795410156,-0.10865974426269531,-0.17751121520996094,-0.8091335296630859,0.12610816955566406,-0.5458240509033203
224,7329483.0,9.16767692565918,-1.1576309204101562,3.062276840209961,0.08948421478271484,-0.21199321746826172,-0.07563591003417969,-0.17751121520996094,-0.8091335296630859,0.12610816955566406,-0.5458240509033203
225,7329503.0,9.0970458984375,-1.3300189971923828,2.9246063232421875,0.04687213897705078,-0.14594554901123047,-0.10439872741699219,-0.17751121520996094,-0.8091335296630859,0.12610816955566406,-0.5458240509033203
226,7329523.0,8.912687301635742,-1.1193227767944336,2.539128303527832,-0.021305084228515625,-0.1672515869140625,-0.10120296478271484,-0.17751121520996094,-0.8091335296630859,0.12610816955566406,-0.5458240509033203
227,7329544.0,9.04676628112793,-1.1612224578857422,2.22188663482666,-0.13955307006835938,-0.15979385375976562,-0.08841896057128906,-0.17751121520996094,-0.8091335296630859,0.12610816955566406,-0.5458240509033203
228,7329563.0,9.204788208007812,-1.107351303100586,1.9668960571289062,-0.1789693832397461,-0.14594554901123047,-0.09587669372558594,-0.17751121520996094,-0.8091335296630859,0.12610816955566406,-0.5458240509033203
229,7329583.0,9.259857177734375,-1.1408710479736328,2.008795738220215,-0.1331615447998047,-0.1374225616455078,-0.09374523162841797,-0.17751121520996094,-0.8091335296630859,0.12610816955566406,-0.5458240509033203
230,7329603.0,9.289785385131836,-1.2773447036743164,2.3858938217163086,-0.01810932159423828,-0.12570476531982422,-0.08841896057128906,-0.17751121520996094,-0.8091335296630859,0.12610816955566406,-0.5458240509033203
231,7329623.0,9.332881927490234,-1.194742202758789,2.7462329864501953,0.0745706558227539,-0.12463951110839844,-0.07244014739990234,-0.17751121520996094,-0.8091335296630859,0.12610816955566406,-0.5458240509033203
232,7329644.0,9.311333656311035,-1.204319953918457,2.869537353515625,0.0745706558227539,-0.12463951110839844,-0.07244014739990234,-0.17751121520996094,-0.8091335296630859,0.12610816955566406,-0.5458240509033203
233,7329664.0,9.301756858825684,-1.3719186782836914,2.9557313919067383,0.0745706558227539,-0.12463951110839844,-0.07244014739990234,-0.17751121520996094,-0.8091335296630859,0.12610816955566406,-0.5458240509033203
234,7329683.0,9.302953720092773,-1.4006500244140625,3.0862197875976562,0.0745706558227539,-0.12463951110839844,-0.07244014739990234,-0.17751121520996094,-0.8091335296630859,0.12610816955566406,-0.5458240509033203
235,7329703.0,9.314925193786621,-1.2330513000488281,3.2238903045654297,0.0745706558227539,-0.12463951110839844,-0.07244014739990234,-0.17751121520996094,-0.8091335296630859,0.12610816955566406,-0.5458240509033203
236,7329723.0,9.308939933776855,-1.2354450225830078,3.219101905822754,0.0745706558227539,-0.12463951110839844,-0.07244014739990234,-0.17751121520996094,-0.8091335296630859,0.12610816955566406,-0.5458240509033203
237,7329743.0,9.268237113952637,-1.389876365661621,3.160442352294922,-0.11185550689697266,-0.0980072021484375,0.0170440673828125,-0.17751121520996094,-0.8091335296630859,0.12610816955566406,-0.5458240509033203
238,7329763.0,9.273025512695312,-1.4329729080200195,3.1101627349853516,-0.09481048583984375,-0.0980072021484375,0.020239830017089844,-0.17751121520996094,-0.8091335296630859,0.12610816955566406,-0.5458240509033203
239,7329782.0,9.331685066223145,-1.4449443817138672,3.1448793411254883,-0.05539512634277344,-0.09907245635986328,0.022370338439941406,-0.17751121520996094,-0.8091335296630859,0.12610816955566406,-0.5458240509033203
240,7329802.0,9.350839614868164,-1.3563566207885742,3.0562915802001953,-0.012783050537109375,-0.08415794372558594,0.019174575805664062,-0.17751121520996094,-0.8091335296630859,0.12610816955566406,-0.5458240509033203
241,7329822.0,9.312531471252441,-1.3407936096191406,3.03115177154541,0.0021305084228515625,-0.07563591003417969,0.010652542114257812,-0.17751121520996094,-0.8091335296630859,0.12610816955566406,-0.5458240509033203
242,7329842.0,9.320911407470703,-1.4245929718017578,3.0431222915649414,0.0021305084228515625,-0.06817817687988281,0.005326271057128906,-0.17751121520996094,-0.8091335296630859,0.12610816955566406,-0.5458240509033203
243,7329842.0,9.320911407470703,-1.4245929718017578,3.0431222915649414,0.0021305084228515625,-0.06817817687988281,0.005326271057128906,-0.17751121520996094,-0.8091335296630859,0.12610816955566406,-0.5458240509033203
244,7329862.0,9.318516731262207,-1.419804573059082,3.0562915802001953,0.01597881317138672,-0.061786651611328125,-0.0031957626342773438,-0.17751121520996094,-0.8091335296630859,0.12610816955566406,-0.5458240509033203
245,7329862.0,9.318516731262207,-1.419804573059082,3.0562915802001953,0.01597881317138672,-0.061786651611328125,-0.0031957626342773438,-0.17751121520996094,-0.8091335296630859,0.12610816955566406,-0.5458240509033203
246,7329881.0,9.30654525756836,-1.332413673400879,3.1125564575195312,0.010652542114257812,-0.05859088897705078,-0.0031957626342773438,-0.17751121520996094,-0.8091335296630859,0.12610816955566406,-0.5458240509033203
247,7329881.0,9.30654525756836,-1.332413673400879,3.1125564575195312,0.010652542114257812,-0.05859088897705078,-0.0031957626342773438,-0.17751121520996094,-0.8091335296630859,0.12610816955566406,-0.5458240509033203
248,7329901.0,9.317319869995117,-1.2976961135864258,3.0718536376953125,-0.033023834228515625,-0.05006885528564453,0.005326271057128906,-0.17751121520996094,-0.8091335296630859,0.12610816955566406,-0.5458240509033203
249,7329901.0,9.317319869995117,-1.2976961135864258,3.0718536376953125,-0.033023834228515625,-0.05006885528564453,0.005326271057128906,-0.17751121520996094,-0.8091335296630859,0.12610816955566406,-0.5458240509033203
250,7329921.0,9.296968460083008,-1.3563566207885742,2.9808712005615234,-0.0862884521484375,-0.040480613708496094,0.012783050537109375,-0.17751121520996094,-0.8091335296630859,0.12610816955566406,-0.5458240509033203
251,7329921.0,9.296968460083008,-1.3563566207885742,2.9808712005615234,-0.0862884521484375,-0.040480613708496094,0.012783050537109375,-0.17751121520996094,-0.8091335296630859,0.12610816955566406,-0.5458240509033203
252,7330042.0,9.304150581359863,-1.4186077117919922,2.9138317108154297,-0.0862884521484375,-0.040480613708496094,0.012783050537109375,-0.18053150177001953,-0.7957544326782227,0.1340494155883789,-0.5623111724853516
253,7330062.0,9.257462501525879,-1.3671302795410156,2.905451774597168,-0.0862884521484375,-0.040480613708496094,0.012783050537109375,-0.18053150177001953,-0.7957544326782227,0.1340494155883789,-0.5623111724853516
254,7330081.0,9.30654525756836,-1.3659334182739258,2.9030580520629883,-0.0862884521484375,-0.040480613708496094,0.012783050537109375,-0.18053150177001953,-0.7957544326782227,0.1340494155883789,-0.5623111724853516
255,7330101.0,9.295770645141602,-1.36114501953125,2.849186897277832,-0.0862884521484375,-0.040480613708496094,0.012783050537109375,-0.18053150177001953,-0.7957544326782227,0.1340494155883789,-0.5623111724853516
256,7330121.0,9.256265640258789,-1.3743133544921875,2.853975296020508,-0.0862884521484375,-0.040480613708496094,0.012783050537109375,-0.18053150177001953,-0.7957544326782227,0.1340494155883789,-0.5623111724853516
257,7330141.0,9.279010772705078,-1.4102277755737305,2.8024978637695312,-0.030893325805664062,-0.00852203369140625,-0.005326271057128906,-0.18053150177001953,-0.7957544326782227,0.1340494155883789,-0.5623111724853516
258,7330141.0,9.279010772705078,-1.4102277755737305,2.8024978637695312,-0.030893325805664062,-0.00852203369140625,-0.005326271057128906,-0.18053150177001953,-0.7957544326782227,0.1340494155883789,-0.5623111724853516
259,7330161.0,9.279010772705078,-1.4509296417236328,2.807286262512207,-0.014913558959960938,-0.009587287902832031,0.0010652542114257812,-0.18053150177001953,-0.7957544326782227,0.1340494155883789,-0.5623111724853516
260,7330161.0,9.279010772705078,-1.4509296417236328,2.807286262512207,-0.014913558959960938,-0.009587287902832031,0.0010652542114257812,-0.18053150177001953,-0.7957544326782227,0.1340494155883789,-0.5623111724853516
261,7330180.0,9.30654525756836,-1.423396110534668,2.783344268798828,0.004261016845703125,-0.004261016845703125,-0.0031957626342773438,-0.18053150177001953,-0.7957544326782227,0.1340494155883789,-0.5623111724853516
262,7330180.0,9.30654525756836,-1.423396110534668,2.783344268798828,0.004261016845703125,-0.004261016845703125,-0.0031957626342773438,-0.18053150177001953,-0.7957544326782227,0.1340494155883789,-0.5623111724853516
263,7330200.0,9.257462501525879,-1.3372020721435547,2.7725696563720703,0.021305084228515625,-0.0031957626342773438,-0.010652542114257812,-0.18053150177001953,-0.7957544326782227,0.1340494155883789,-0.5623111724853516
264,7330200.0,9.257462501525879,-1.3372020721435547,2.7725696563720703,0.021305084228515625,-0.0031957626342773438,-0.010652542114257812,-0.18053150177001953,-0.7957544326782227,0.1340494155883789,-0.5623111724853516
265,7330220.0,9.28619384765625,-1.36114501953125,2.7354583740234375,0.0021305084228515625,-0.00852203369140625,-0.010652542114257812,-0.18053150177001953,-0.7957544326782227,0.1340494155883789,-0.5623111724853516
266,7330220.0,9.28619384765625,-1.36114501953125,2.7354583740234375,0.0021305084228515625,-0.00852203369140625,-0.010652542114257812,-0.18053150177001953,-0.7957544326782227,0.1340494155883789,-0.5623111724853516
267,7330241.0,9.258659362792969,-1.3814964294433594,2.782146453857422,0.0021305084228515625,-0.00852203369140625,-0.010652542114257812,-0.18053150177001953,-0.7957544326782227,0.1340494155883789,-0.5623111724853516
268,7330261.0,9.324501991271973,-1.3994531631469727,2.717501640319824,0.0021305084228515625,-0.00852203369140625,-0.010652542114257812,-0.18053150177001953,-0.7957544326782227,0.1340494155883789,-0.5623111724853516
269,7330280.0,9.387950897216797,-1.4210014343261719,2.749823570251465,0.0021305084228515625,-0.00852203369140625,-0.010652542114257812,-0.18053150177001953,-0.7957544326782227,0.1340494155883789,-0.5623111724853516
270,7330300.0,9.308939933776855,-1.3982563018798828,2.748626708984375,0.0021305084228515625,-0.00852203369140625,-0.010652542114257812,-0.18053150177001953,-0.7957544326782227,0.1340494155883789,-0.5623111724853516
271,7330320.0,9.314925193786621,-1.4018478393554688,2.755809783935547,0.0021305084228515625,-0.00852203369140625,-0.010652542114257812,-0.18053150177001953,-0.7957544326782227,0.1340494155883789,-0.5623111724853516
272,7330340.0,9.317319869995117,-1.423396110534668,2.741443634033203,0.0021305084228515625,-0.01597881317138672,-0.0021305084228515625,-0.18053150177001953,-0.7957544326782227,0.1340494155883789,-0.5623111724853516
273,7330360.0,9.295770645141602,-1.3731164932250977,2.7378530502319336,0.0,-0.01810932159423828,-0.005326271057128906,-0.18053150177001953,-0.7957544326782227,0.1340494155883789,-0.5623111724853516
274,7330379.0,9.317319869995117,-1.4078330993652344,2.812075614929199,0.0,-0.022370338439941406,0.0,-0.18053150177001953,-0.7957544326782227,0.1340494155883789,-0.5623111724853516
275,7330399.0,9.35443115234375,-1.3563566207885742,2.7941179275512695,0.00852203369140625,-0.020239830017089844,0.0,-0.18053150177001953,-0.7957544326782227,0.1340494155883789,-0.5623111724853516
276,7330419.0,9.319713592529297,-1.3934669494628906,2.777358055114746,-0.014913558959960938,-0.019174575805664062,0.010652542114257812,-0.18053150177001953,-0.7957544326782227,0.1340494155883789,-0.5623111724853516
277,7330441.0,9.300559997558594,-1.383890151977539,2.780949592590332,-0.014913558959960938,-0.019174575805664062,0.010652542114257812,-0.18053150177001953,-0.7957544326782227,0.1340494155883789,-0.5623111724853516
278,7330441.0,9.300559997558594,-1.383890151977539,2.780949592590332,-0.014913558959960938,-0.019174575805664062,0.010652542114257812,-0.18053150177001953,-0.7957544326782227,0.1340494155883789,-0.5623111724853516
279,7330461.0,9.28739070892334,-1.4006500244140625,2.777358055114746,-0.014913558959960938,-0.019174575805664062,0.010652542114257812,-0.18053150177001953,-0.7957544326782227,0.1340494155883789,-0.5623111724853516
280,7330461.0,9.28739070892334,-1.4006500244140625,2.777358055114746,-0.014913558959960938,-0.019174575805664062,0.010652542114257812,-0.18053150177001953,-0.7957544326782227,0.1340494155883789,-0.5623111724853516
281,7330480.0,9.319713592529297,-1.3779048919677734,2.806089401245117,-0.014913558959960938,-0.019174575805664062,0.010652542114257812,-0.18053150177001953,-0.7957544326782227,0.1340494155883789,-0.5623111724853516
282,7330480.0,9.319713592529297,-1.3779048919677734,2.806089401245117,-0.014913558959960938,-0.019174575805664062,0.010652542114257812,-0.18053150177001953,-0.7957544326782227,0.1340494155883789,-0.5623111724853516
283,7330500.0,9.311333656311035,-1.3383989334106445,2.7953147888183594,-0.014913558959960938,-0.019174575805664062,0.010652542114257812,-0.18053150177001953,-0.7957544326782227,0.1340494155883789,-0.5623111724853516
284,7330500.0,9.311333656311035,-1.3383989334106445,2.7953147888183594,-0.014913558959960938,-0.019174575805664062,0.010652542114257812,-0.18053150177001953,-0.7957544326782227,0.1340494155883789,-0.5623111724853516
285,7330520.0,9.308939933776855,-1.3120622634887695,2.8228492736816406,-0.014913558959960938,-0.019174575805664062,0.010652542114257812,-0.18053150177001953,-0.7957544326782227,0.1340494155883789,-0.5623111724853516
286,7330520.0,9.308939933776855,-1.3120622634887695,2.8228492736816406,-0.014913558959960938,-0.019174575805664062,0.010652542114257812,-0.18053150177001953,-0.7957544326782227,0.1340494155883789,-0.5623111724853516
287,7330540.0,9.344853401184082,-1.364736557006836,2.839609146118164,-0.00852203369140625,-0.009587287902832031,-0.00852203369140625,-0.18053150177001953,-0.7957544326782227,0.1340494155883789,-0.5623111724853516
288,7330560.0,9.317319869995117,-1.3922700881958008,2.8599605560302734,0.0,-0.004261016845703125,-0.010652542114257812,-0.18053150177001953,-0.7957544326782227,0.1340494155883789,-0.5623111724853516
289,7330579.0,9.275420188903809,-1.36114501953125,2.8252439498901367,0.007456779479980469,-0.005326271057128906,-0.004261016845703125,-0.18053150177001953,-0.7957544326782227,0.1340494155883789,-0.5623111724853516
290,7330599.0,9.326896667480469,-1.3491735458374023,2.7713727951049805,0.004261016845703125,-0.0031957626342773438,-0.007456779479980469,-0.18053150177001953,-0.7957544326782227,0.1340494155883789,-0.5623111724853516
291,7330619.0,9.295770645141602,-1.4066362380981445,2.8013010025024414,-0.007456779479980469,0.004261016845703125,-0.0063915252685546875,-0.18053150177001953,-0.7957544326782227,0.1340494155883789,-0.5623111724853516
292,7330839.0,9.338868141174316,-1.3719186782836914,2.778554916381836,-0.0170440673828125,0.005326271057128906,-0.0063915252685546875,-0.1813516616821289,-0.7938117980957031,0.13417911529541016,-0.5647706985473633
293,7330859.0,9.311333656311035,-1.36114501953125,2.758204460144043,-0.0170440673828125,0.005326271057128906,-0.0063915252685546875,-0.1813516616821289,-0.7938117980957031,0.13417911529541016,-0.5647706985473633
294,7330879.0,9.316122055053711,-1.4281845092773438,2.6995439529418945,-0.0170440673828125,0.005326271057128906,-0.0063915252685546875,-0.1813516616821289,-0.7938117980957031,0.13417911529541016,-0.5647706985473633
295,7330898.0,9.311333656311035,-1.4317760467529297,2.759401321411133,-0.0170440673828125,0.005326271057128906,-0.0063915252685546875,-0.1813516616821289,-0.7938117980957031,0.13417911529541016,-0.5647706985473633
296,7330918.0,9.330488204956055,-1.3934669494628906,2.7378530502319336,-0.0170440673828125,0.005326271057128906,-0.0063915252685546875,-0.1813516616821289,-0.7938117980957031,0.13417911529541016,-0.5647706985473633
297,7330939.0,9.245491027832031,-1.3000907897949219,2.821652412414551,0.02769756317138672,0.0,-0.007456779479980469,-0.1813516616821289,-0.7938117980957031,0.13417911529541016,-0.5647706985473633
298,7330939.0,9.245491027832031,-1.3000907897949219,2.821652412414551,0.02769756317138672,0.0,-0.007456779479980469,-0.1813516616821289,-0.7938117980957031,0.13417911529541016,-0.5647706985473633
299,7330959.0,9.276617050170898,-1.351567268371582,2.748626708984375,-0.0021305084228515625,-0.010652542114257812,0.0,-0.1813516616821289,-0.7938117980957031,0.13417911529541016,-0.5647706985473633
300,7330959.0,9.276617050170898,-1.351567268371582,2.748626708984375,-0.0021305084228515625,-0.010652542114257812,0.0,-0.1813516616821289,-0.7938117980957031,0.13417911529541016,-0.5647706985473633
301,7330979.0,9.408302307128906,-1.3934669494628906,2.749823570251465,-0.012783050537109375,-0.010652542114257812,-0.007456779479980469,-0.1813516616821289,-0.7938117980957031,0.13417911529541016,-0.5647706985473633
302,7330979.0,9.408302307128906,-1.3934669494628906,2.749823570251465,-0.012783050537109375,-0.010652542114257812,-0.007456779479980469,-0.1813516616821289,-0.7938117980957031,0.13417911529541016,-0.5647706985473633
303,7330998.0,9.33647346496582,-1.423396110534668,2.7689781188964844,0.0063915252685546875,0.0,-0.011717796325683594,-0.1813516616821289,-0.7938117980957031,0.13417911529541016,-0.5647706985473633
304,7330998.0,9.33647346496582,-1.423396110534668,2.7689781188964844,0.0063915252685546875,0.0,-0.011717796325683594,-0.1813516616821289,-0.7938117980957031,0.13417911529541016,-0.5647706985473633
305,7331018.0,9.33647346496582,-1.3862848281860352,2.7929210662841797,0.03515434265136719,-0.00852203369140625,-0.013848304748535156,-0.1813516616821289,-0.7938117980957031,0.13417911529541016,-0.5647706985473633
306,7331018.0,9.33647346496582,-1.3862848281860352,2.7929210662841797,0.03515434265136719,-0.00852203369140625,-0.013848304748535156,-0.1813516616821289,-0.7938117980957031,0.13417911529541016,-0.5647706985473633
307,7331038.0,9.331685066223145,-1.3096675872802734,2.8001041412353516,0.03515434265136719,-0.00852203369140625,-0.013848304748535156,-0.1813516616821289,-0.7938117980957031,0.13417911529541016,-0.5647706985473633
308,7331058.0,9.28499698638916,-1.332413673400879,2.788132667541504,0.03515434265136719,-0.00852203369140625,-0.013848304748535156,-0.1801004409790039,-0.7935962677001953,0.1343088150024414,-0.5654182434082031
309,7331078.0,9.314925193786621,-1.4006500244140625,2.782146453857422,0.03515434265136719,-0.00852203369140625,-0.013848304748535156,-0.1801433563232422,-0.793553352355957,0.13443756103515625,-0.5654611587524414
310,7331097.0,9.328093528747559,-1.4102277755737305,2.8001041412353516,0.03515434265136719,-0.00852203369140625,-0.013848304748535156,-0.18031597137451172,-0.7935104370117188,0.13448143005371094,-0.5654611587524414
311,7331117.0,9.349641799926758,-1.413818359375,2.780949592590332,0.03515434265136719,-0.00852203369140625,-0.013848304748535156,-0.18035888671875,-0.7935104370117188,0.1345672607421875,-0.5654182434082031
312,7331138.0,9.350839614868164,-1.36114501953125,2.7725696563720703,0.013848304748535156,0.0010652542114257812,0.0170440673828125,-0.18031597137451172,-0.7935104370117188,0.13448143005371094,-0.5654611587524414
313,7331158.0,9.280208587646484,-1.322835922241211,2.7689781188964844,0.004261016845703125,0.011717796325683594,0.024501800537109375,-0.18031597137451172,-0.7935104370117188,0.13448143005371094,-0.5654611587524414
314,7331178.0,9.280208587646484,-1.321639060974121,2.7749643325805664,-0.011717796325683594,0.010652542114257812,0.023435592651367188,-0.18031597137451172,-0.7935104370117188,0.13448143005371094,-0.5654611587524414
315,7331197.0,9.323305130004883,-1.3431873321533203,2.7725696563720703,-0.0063915252685546875,0.00852203369140625,0.014913558959960938,-0.18031597137451172,-0.7935104370117188,0.13448143005371094,-0.5654611587524414
316,7331217.0,9.348444938659668,-1.325230598449707,2.758204460144043,0.00852203369140625,0.005326271057128906,0.0063915252685546875,-0.18031597137451172,-0.7935104370117188,0.13448143005371094,-0.5654611587524414
317,7331337.0,9.28619384765625,-1.3060760498046875,2.8048925399780273,0.01810932159423828,0.00852203369140625,-0.0010652542114257812,-0.18031597137451172,-0.7935104370117188,0.13448143005371094,-0.5654611587524414
318,7331357.0,9.304150581359863,-1.385087013244629,2.7689781188964844,0.01810932159423828,0.00852203369140625,-0.0010652542114257812,-0.18031597137451172,-0.7935104370117188,0.13448143005371094,-0.5654611587524414
319,7331377.0,9.301756858825684,-1.3419904708862305,2.7390499114990234,0.01810932159423828,0.00852203369140625,-0.0010652542114257812,-0.18031597137451172,-0.7935104370117188,0.13448143005371094,-0.5654611587524414
320,7331396.0,9.296968460083008,-1.3383989334106445,2.719895362854004,0.01810932159423828,0.00852203369140625,-0.0010652542114257812,-0.18031597137451172,-0.7935104370117188,0.13448143005371094,-0.5654611587524414
321,7331416.0,9.308939933776855,-1.3695249557495117,2.759401321411133,0.01810932159423828,0.00852203369140625,-0.0010652542114257812,-0.18031597137451172,-0.7935104370117188,0.13448143005371094,-0.5654611587524414
322,7331436.0,9.294573783874512,-1.389876365661621,2.7318668365478516,0.01810932159423828,0.00852203369140625,-0.0010652542114257812,-0.18031597137451172,-0.7935104370117188,0.13448143005371094,-0.5654611587524414
323,7331456.0,9.295770645141602,-1.3659334182739258,2.687572479248047,0.01810932159423828,0.00852203369140625,-0.0010652542114257812,-0.18031597137451172,-0.7935104370117188,0.13448143005371094,-0.5654611587524414
324,7331466.0,9.28499698638916,-1.3276252746582031,2.7043323516845703,0.012783050537109375,0.0021305084228515625,0.00852203369140625,-0.18031597137451172,-0.7935104370117188,0.13448143005371094,-0.5654611587524414
325,7331476.0,9.293376922607422,-1.321639060974121,2.716303825378418,0.012783050537109375,0.0021305084228515625,0.00852203369140625,-0.18031597137451172,-0.7935104370117188,0.13448143005371094,-0.5654611587524414
326,7331486.0,9.313728332519531,-1.3455820083618164,2.725881576538086,-0.013848304748535156,-0.0031957626342773438,0.01597881317138672,-0.18031597137451172,-0.7935104370117188,0.13448143005371094,-0.5654611587524414
327,7331496.0,9.30774211883545,-1.3467788696289062,2.7067270278930664,-0.013848304748535156,-0.0031957626342773438,0.01597881317138672,-0.18031597137451172,-0.7935104370117188,0.13448143005371094,-0.5654611587524414
328,7331505.0,9.323305130004883,-1.36114501953125,2.692361831665039,-0.010652542114257812,-0.004261016845703125,0.009587287902832031,-0.18031597137451172,-0.7935104370117188,0.13448143005371094,-0.5654611587524414
329,7331515.0,9.318516731262207,-1.3527650833129883,2.692361831665039,-0.010652542114257812,-0.004261016845703125,0.009587287902832031,-0.18031597137451172,-0.7935104370117188,0.13448143005371094,-0.5654611587524414
330,7331525.0,9.308939933776855,-1.3395957946777344,2.6959524154663086,0.0010652542114257812,-0.00852203369140625,0.0063915252685546875,-0.18031597137451172,-0.7935104370117188,0.13448143005371094,-0.5654611587524414
331,7331546.0,9.323305130004883,-1.289316177368164,2.715106964111328,0.0010652542114257812,-0.00852203369140625,0.0063915252685546875,-0.18031597137451172,-0.7935104370117188,0.13448143005371094,-0.5654611587524414
332,7331546.0,9.323305130004883,-1.289316177368164,2.715106964111328,0.0010652542114257812,-0.00852203369140625,0.0063915252685546875,-0.18031597137451172,-0.7935104370117188,0.13448143005371094,-0.5654611587524414
333,7331566.0,9.313728332519531,-1.3132591247558594,2.717501640319824,0.0010652542114257812,-0.00852203369140625,0.0063915252685546875,-0.18031597137451172,-0.7935104370117188,0.13448143005371094,-0.5654611587524414
334,7331566.0,9.313728332519531,-1.3132591247558594,2.717501640319824,0.0010652542114257812,-0.00852203369140625,0.0063915252685546875,-0.18031597137451172,-0.7935104370117188,0.13448143005371094,-0.5654611587524414
335,7331586.0,9.317319869995117,-1.36114501953125,2.715106964111328,0.0010652542114257812,-0.00852203369140625,0.0063915252685546875,-0.18031597137451172,-0.7935104370117188,0.13448143005371094,-0.5654611587524414
336,7331586.0,9.317319869995117,-1.36114501953125,2.715106964111328,0.0010652542114257812,-0.00852203369140625,0.0063915252685546875,-0.18031597137451172,-0.7935104370117188,0.13448143005371094,-0.5654611587524414
337,7331605.0,9.311333656311035,-1.3791017532348633,2.747429847717285,0.0010652542114257812,-0.00852203369140625,0.0063915252685546875,-0.18031597137451172,-0.7935104370117188,0.13448143005371094,-0.5654611587524414
338,7331605.0,9.311333656311035,-1.3791017532348633,2.747429847717285,0.0010652542114257812,-0.00852203369140625,0.0063915252685546875,-0.18031597137451172,-0.7935104370117188,0.13448143005371094,-0.5654611587524414
339,7331625.0,9.28380012512207,-1.2773447036743164,2.770174980163574,0.0010652542114257812,-0.00852203369140625,0.0063915252685546875,-0.18031597137451172,-0.7935104370117188,0.13448143005371094,-0.5654611587524414
340,7331625.0,9.28380012512207,-1.2773447036743164,2.770174980163574,0.0010652542114257812,-0.00852203369140625,0.0063915252685546875,-0.18031597137451172,-0.7935104370117188,0.13448143005371094,-0.5654611587524414
341,7331645.0,9.23711109161377,-1.2426280975341797,2.7905263900756836,0.0010652542114257812,-0.00852203369140625,0.0063915252685546875,-0.18031597137451172,-0.7935104370117188,0.13448143005371094,-0.5654611587524414
342,7331645.0,9.23711109161377,-1.2426280975341797,2.7905263900756836,0.0010652542114257812,-0.00852203369140625,0.0063915252685546875,-0.18031597137451172,-0.7935104370117188,0.13448143005371094,-0.5654611587524414
343,7331666.0,9.360416412353516,-1.3144559860229492,2.7342615127563477,0.0010652542114257812,-0.00852203369140625,0.0063915252685546875,-0.18031597137451172,-0.7935104370117188,0.13448143005371094,-0.5654611587524414
344,7331686.0,9.38675308227539,-1.364736557006836,2.770174980163574,0.0010652542114257812,-0.00852203369140625,0.0063915252685546875,-0.18031597137451172,-0.7935104370117188,0.13448143005371094,-0.5654611587524414
345,7331705.0,9.294573783874512,-1.3204421997070312,2.780949592590332,0.0010652542114257812,-0.00852203369140625,0.0063915252685546875,-0.18031597137451172,-0.7935104370117188,0.13448143005371094,-0.5654611587524414
346,7331725.0,9.378373146057129,-1.2917108535766602,2.77376651763916,0.0010652542114257812,-0.00852203369140625,0.0063915252685546875,-0.18031597137451172,-0.7935104370117188,0.13448143005371094,-0.5654611587524414
347,7331745.0,9.364007949829102,-1.3048791885375977,2.818060874938965,0.0010652542114257812,-0.00852203369140625,0.0063915252685546875,-0.18031597137451172,-0.7935104370117188,0.13448143005371094,-0.5654611587524414
348,7331866.0,9.288588523864746,-1.3383989334106445,2.725881576538086,-0.010652542114257812,0.0063915252685546875,0.007456779479980469,-0.17867565155029297,-0.7926034927368164,0.13236618041992188,-0.5677919387817383
349,7331886.0,9.349641799926758,-1.3407936096191406,2.7402467727661133,-0.010652542114257812,0.0063915252685546875,0.007456779479980469,-0.17867565155029297,-0.7926034927368164,0.13236618041992188,-0.5677919387817383
350,7331905.0,9.340065002441406,-1.357553482055664,2.7761611938476562,-0.010652542114257812,0.0063915252685546875,0.007456779479980469,-0.17867565155029297,-0.7926034927368164,0.13236618041992188,-0.5677919387817383
351,7331925.0,9.337671279907227,-1.2809362411499023,2.72348690032959,-0.010652542114257812,0.0063915252685546875,0.007456779479980469,-0.17867565155029297,-0.7926034927368164,0.13236618041992188,-0.5677919387817383
352,7331945.0,9.342459678649902,-1.3192453384399414,2.7378530502319336,-0.010652542114257812,0.0063915252685546875,0.007456779479980469,-0.17867565155029297,-0.7926034927368164,0.13236618041992188,-0.5677919387817383
353,7331965.0,9.268237113952637,-1.3779048919677734,2.7306699752807617,-0.010652542114257812,0.0063915252685546875,0.007456779479980469,-0.17867565155029297,-0.7926034927368164,0.13236618041992188,-0.5677919387817383
354,7331985.0,9.300559997558594,-1.3934669494628906,2.7055301666259766,0.010652542114257812,-0.0021305084228515625,-0.00852203369140625,-0.17867565155029297,-0.7926034927368164,0.13236618041992188,-0.5677919387817383
355,7332005.0,9.326896667480469,-1.355158805847168,2.700741767883301,0.026632308959960938,-0.005326271057128906,-0.0010652542114257812,-0.17867565155029297,-0.7926034927368164,0.13236618041992188,-0.5677919387817383
356,7332024.0,9.348444938659668,-1.3204421997070312,2.719895362854004,0.025567054748535156,-0.0021305084228515625,0.005326271057128906,-0.17867565155029297,-0.7926034927368164,0.13236618041992188,-0.5677919387817383
357,7332044.0,9.344853401184082,-1.351567268371582,2.693558692932129,-0.0010652542114257812,-0.0010652542114257812,0.009587287902832031,-0.17867565155029297,-0.7926034927368164,0.13236618041992188,-0.5677919387817383
358,7332065.0,9.35682487487793,-1.3719186782836914,2.691164016723633,-0.0170440673828125,-0.004261016845703125,0.010652542114257812,-0.17867565155029297,-0.7926034927368164,0.13236618041992188,-0.5677919387817383
359,7332085.0,9.300559997558594,-1.3755102157592773,2.716303825378418,-0.0170440673828125,-0.004261016845703125,0.010652542114257812,-0.17867565155029297,-0.7926034927368164,0.13236618041992188,-0.5677919387817383
360,7332105.0,9.325699806213379,-1.3300189971923828,2.691164016723633,-0.0170440673828125,-0.004261016845703125,0.010652542114257812,-0.17867565155029297,-0.7926034927368164,0.13236618041992188,-0.5677919387817383
361,7332124.0,9.342459678649902,-1.3240337371826172,2.716303825378418,-0.0170440673828125,-0.004261016845703125,0.010652542114257812,-0.17867565155029297,-0.7926034927368164,0.13236618041992188,-0.5677919387817383
362,7332144.0,9.299362182617188,-1.3455820083618164,2.7139101028442383,-0.0170440673828125,-0.004261016845703125,0.010652542114257812,-0.17867565155029297,-0.7926034927368164,0.13236618041992188,-0.5677919387817383
363,7332164.0,9.295770645141602,-1.3372020721435547,2.7306699752807617,-0.0170440673828125,-0.004261016845703125,0.010652542114257812,-0.17867565155029297,-0.7926034927368164,0.13236618041992188,-0.5677919387817383
364,7332184.0,9.308939933776855,-1.3814964294433594,2.759401321411133,0.012783050537109375,-0.01810932159423828,-0.004261016845703125,-0.17867565155029297,-0.7926034927368164,0.13236618041992188,-0.5677919387817383
365,7332204.0,9.349641799926758,-1.3707218170166016,2.785737991333008,0.021305084228515625,-0.021305084228515625,0.0063915252685546875,-0.17867565155029297,-0.7926034927368164,0.13236618041992188,-0.5677919387817383
366,7332223.0,9.326896667480469,-1.3108654022216797,2.7306699752807617,0.02982807159423828,-0.020239830017089844,0.007456779479980469,-0.17867565155029297,-0.7926034927368164,0.13236618041992188,-0.5677919387817383
367,7332243.0,9.317319869995117,-1.3192453384399414,2.7366552352905273,0.012783050537109375,-0.0170440673828125,0.00852203369140625,-0.17867565155029297,-0.7926034927368164,0.13236618041992188,-0.5677919387817383
368,7332264.0,9.332881927490234,-1.3012876510620117,2.7330636978149414,0.01810932159423828,-0.01597881317138672,0.0,-0.17867565155029297,-0.7926034927368164,0.13236618041992188,-0.5677919387817383
369,7332284.0,9.342459678649902,-1.3108654022216797,2.7402467727661133,0.0170440673828125,-0.00852203369140625,0.0,-0.17867565155029297,-0.7926034927368164,0.13236618041992188,-0.5677919387817383
370,7332304.0,9.348444938659668,-1.321639060974121,2.780949592590332,0.0170440673828125,-0.01597881317138672,-0.0021305084228515625,-0.17867565155029297,-0.7926034927368164,0.13236618041992188,-0.5677919387817383
371,7332323.0,9.349641799926758,-1.2486133575439453,2.7713727951049805,0.02769756317138672,-0.009587287902832031,0.0010652542114257812,-0.17867565155029297,-0.7926034927368164,0.13236618041992188,-0.5677919387817383
372,7332343.0,9.273025512695312,-1.3012876510620117,2.759401321411133,-0.0010652542114257812,-0.009587287902832031,0.005326271057128906,-0.17867565155029297,-0.7926034927368164,0.13236618041992188,-0.5677919387817383
373,7332363.0,9.311333656311035,-1.347975730895996,2.7222900390625,-0.024501800537109375,-0.0010652542114257812,0.005326271057128906,-0.17867565155029297,-0.7926034927368164,0.13236618041992188,-0.5677919387817383
374,7332383.0,9.420273780822754,-1.3348073959350586,2.700741767883301,-0.012783050537109375,-0.011717796325683594,0.004261016845703125,-0.17867565155029297,-0.7926034927368164,0.13236618041992188,-0.5677919387817383
375,7332403.0,9.343656539916992,-1.3407936096191406,2.7605981826782227,0.025567054748535156,-0.004261016845703125,-0.004261016845703125,-0.17867565155029297,-0.7926034927368164,0.13236618041992188,-0.5677919387817383
376,7332422.0,9.359219551086426,-1.2976961135864258,2.7342615127563477,0.03515434265136719,-0.004261016845703125,-0.0063915252685546875,-0.17867565155029297,-0.7926034927368164,0.13236618041992188,-0.5677919387817383
377,7332442.0,9.366402626037598,-1.321639060974121,2.717501640319824,0.014913558959960938,-0.0063915252685546875,-0.0031957626342773438,-0.17867565155029297,-0.7926034927368164,0.13236618041992188,-0.5677919387817383
378,7332464.0,9.341261863708496,-1.357553482055664,2.7127132415771484,-0.009587287902832031,-0.004261016845703125,0.0063915252685546875,-0.17867565155029297,-0.7926034927368164,0.13236618041992188,-0.5677919387817383
379,7332484.0,9.343656539916992,-1.3802986145019531,2.697150230407715,-0.009587287902832031,-0.004261016845703125,0.0063915252685546875,-0.17867565155029297,-0.7926034927368164,0.13236618041992188,-0.5677919387817383
380,7332504.0,9.346051216125488,-1.3276252746582031,2.7103185653686523,-0.009587287902832031,-0.004261016845703125,0.0063915252685546875,-0.17867565155029297,-0.7926034927368164,0.13236618041992188,-0.5677919387817383
381,7332523.0,9.332881927490234,-1.3108654022216797,2.779752731323242,-0.009587287902832031,-0.004261016845703125,0.0063915252685546875,-0.17867565155029297,-0.7926034927368164,0.13236618041992188,-0.5677919387817383
382,7332543.0,9.30654525756836,-1.2976961135864258,2.7043323516845703,-0.009587287902832031,-0.004261016845703125,0.0063915252685546875,-0.17867565155029297,-0.7926034927368164,0.13236618041992188,-0.5677919387817383
383,7332562.0,9.302953720092773,-1.4030447006225586,2.657644271850586,-0.009587287902832031,-0.004261016845703125,0.0063915252685546875,-0.17867565155029297,-0.7926034927368164,0.13236618041992188,-0.5677919387817383
384,7332582.0,9.332881927490234,-1.2857246398925781,2.6983470916748047,0.023435592651367188,0.0,0.021305084228515625,-0.17867565155029297,-0.7926034927368164,0.13236618041992188,-0.5677919387817383
385,7332602.0,9.347248077392578,-1.321639060974121,2.717501640319824,0.020239830017089844,-0.005326271057128906,0.012783050537109375,-0.17867565155029297,-0.7926034927368164,0.13236618041992188,-0.5677919387817383
386,7332621.0,9.340065002441406,-1.3407936096191406,2.691164016723633,0.01597881317138672,-0.0010652542114257812,0.0063915252685546875,-0.17867565155029297,-0.7926034927368164,0.13236618041992188,-0.5677919387817383
387,7332641.0,9.364007949829102,-1.3036823272705078,2.727078437805176,0.04367637634277344,-0.0063915252685546875,0.0,-0.17867565155029297,-0.7926034927368164,0.13236618041992188,-0.5677919387817383
388,7332662.0,9.338868141174316,-1.2474164962768555,2.7354583740234375,0.0287628173828125,-0.0063915252685546875,-0.0031957626342773438,-0.17867565155029297,-0.7926034927368164,0.13236618041992188,-0.5677919387817383
389,7332682.0,9.302953720092773,-1.347975730895996,2.6803903579711914,0.0287628173828125,-0.0063915252685546875,-0.0031957626342773438,-0.17867565155029297,-0.7926034927368164,0.13236618041992188,-0.5677919387817383
390,7332702.0,9.319713592529297,-1.3826932907104492,2.711515426635742,0.0287628173828125,-0.0063915252685546875,-0.0031957626342773438,-0.17867565155029297,-0.7926034927368164,0.13236618041992188,-0.5677919387817383
391,7332721.0,9.33407974243164,-1.3443851470947266,2.6839818954467773,0.0287628173828125,-0.0063915252685546875,-0.0031957626342773438,-0.17867565155029297,-0.7926034927368164,0.13236618041992188,-0.5677919387817383
392,7332741.0,9.342459678649902,-1.3360052108764648,2.7031354904174805,0.0287628173828125,-0.0063915252685546875,-0.0031957626342773438,-0.17867565155029297,-0.7926034927368164,0.13236618041992188,-0.5677919387817383
393,7332762.0,9.346051216125488,-1.2617826461791992,2.691164016723633,0.0287628173828125,-0.0063915252685546875,-0.0031957626342773438,-0.17867565155029297,-0.7926034927368164,0.13236618041992188,-0.5677919387817383
394,7332782.0,9.343656539916992,-1.3024845123291016,2.7079238891601562,0.0010652542114257812,-0.0031957626342773438,0.0063915252685546875,-0.17651844024658203,-0.7919559478759766,0.12921524047851562,-0.5700359344482422
395,7332802.0,9.338868141174316,-1.3755102157592773,2.693558692932129,-0.00852203369140625,-0.005326271057128906,0.0031957626342773438,-0.17651844024658203,-0.7919559478759766,0.12921524047851562,-0.5700359344482422
396,7332821.0,9.342459678649902,-1.347975730895996,2.6959524154663086,0.005326271057128906,-0.007456779479980469,-0.0031957626342773438,-0.17651844024658203,-0.7919559478759766,0.12921524047851562,-0.5700359344482422
397,7332841.0,9.367599487304688,-1.3048791885375977,2.6779956817626953,0.023435592651367188,-0.011717796325683594,-0.0031957626342773438,-0.1763458251953125,-0.7919559478759766,0.12912940979003906,-0.5701227188110352
398,7332861.0,9.349641799926758,-1.3300189971923828,2.6839818954467773,0.010652542114257812,-0.009587287902832031,0.0,-0.17621612548828125,-0.7919559478759766,0.1290426254272461,-0.5701656341552734
399,7332881.0,9.331685066223145,-1.3072738647460938,2.7103185653686523,0.010652542114257812,-0.009587287902832031,0.0,-0.17621612548828125,-0.7919559478759766,0.1290426254272461,-0.5701656341552734
400,7332901.0,9.322108268737793,-1.3779048919677734,2.711515426635742,0.010652542114257812,-0.009587287902832031,0.0,-0.17621612548828125,-0.7919559478759766,0.1290426254272461,-0.5701656341552734
401,7332921.0,9.318516731262207,-1.3360052108764648,2.715106964111328,0.010652542114257812,-0.009587287902832031,0.0,-0.17621612548828125,-0.7919559478759766,0.1290426254272461,-0.5701656341552734
402,7332940.0,9.33647346496582,-1.2869224548339844,2.7354583740234375,0.010652542114257812,-0.009587287902832031,0.0,-0.17621612548828125,-0.7919559478759766,0.1290426254272461,-0.5701656341552734
403,7332961.0,9.352036476135254,-1.3084707260131836,2.7246837615966797,0.010652542114257812,-0.009587287902832031,0.0,-0.17621612548828125,-0.7919559478759766,0.1290426254272461,-0.5701656341552734
404,7332981.0,9.326896667480469,-1.3539619445800781,2.7031354904174805,-0.010652542114257812,-0.007456779479980469,-0.00852203369140625,-0.17621612548828125,-0.7919559478759766,0.1290426254272461,-0.5701656341552734
405,7333001.0,9.341261863708496,-1.3563566207885742,2.7079238891601562,-0.00852203369140625,-0.00852203369140625,-0.005326271057128906,-0.17621612548828125,-0.7919559478759766,0.1290426254272461,-0.5701656341552734
406,7333021.0,9.365204811096191,-1.3503704071044922,2.717501640319824,0.0,-0.005326271057128906,-0.0021305084228515625,-0.17621612548828125,-0.7919559478759766,0.1290426254272461,-0.5701656341552734
407,7333040.0,9.319713592529297,-1.3192453384399414,2.72109317779541,0.004261016845703125,-0.00852203369140625,0.004261016845703125,-0.17621612548828125,-0.7919559478759766,0.1290426254272461,-0.5701656341552734
408,7333060.0,9.249082565307617,-1.3192453384399414,2.6720104217529297,-0.012783050537109375,-0.0031957626342773438,0.009587287902832031,-0.17621612548828125,-0.7919559478759766,0.1290426254272461,-0.5701656341552734
409,7333080.0,9.40471076965332,-1.3407936096191406,2.685178756713867,-0.012783050537109375,-0.0031957626342773438,0.009587287902832031,-0.17621612548828125,-0.7919559478759766,0.1290426254272461,-0.5701656341552734
410,7333100.0,9.387950897216797,-1.3192453384399414,2.729473114013672,-0.012783050537109375,-0.0031957626342773438,0.009587287902832031,-0.17621612548828125,-0.7919559478759766,0.1290426254272461,-0.5701656341552734
411,7333120.0,9.316122055053711,-1.3060760498046875,2.717501640319824,-0.012783050537109375,-0.0031957626342773438,0.009587287902832031,-0.17621612548828125,-0.7919559478759766,0.1290426254272461,-0.5701656341552734
412,7333139.0,9.368796348571777,-1.3419904708862305,2.7091217041015625,-0.012783050537109375,-0.0031957626342773438,0.009587287902832031,-0.17621612548828125,-0.7919559478759766,0.1290426254272461,-0.5701656341552734
413,7333260.0,9.308939933776855,-1.2797393798828125,2.711515426635742,0.004261016845703125,-0.007456779479980469,0.011717796325683594,-0.1765613555908203,-0.7916107177734375,0.12921524047851562,-0.5705108642578125
414,7333280.0,9.28739070892334,-1.296499252319336,2.711515426635742,0.004261016845703125,-0.007456779479980469,0.011717796325683594,-0.1765613555908203,-0.7916107177734375,0.12921524047851562,-0.5705108642578125
415,7333300.0,9.360416412353516,-1.3623418807983398,2.6947555541992188,0.004261016845703125,-0.007456779479980469,0.011717796325683594,-0.1765613555908203,-0.7916107177734375,0.12921524047851562,-0.5705108642578125
416,7333320.0,9.35562801361084,-1.332413673400879,2.7019386291503906,0.004261016845703125,-0.007456779479980469,0.011717796325683594,-0.1765613555908203,-0.7916107177734375,0.12921524047851562,-0.5705108642578125
417,7333339.0,9.40590763092041,-1.29290771484375,2.6696157455444336,0.004261016845703125,-0.007456779479980469,0.011717796325683594,-0.1765613555908203,-0.7916107177734375,0.12921524047851562,-0.5705108642578125
418,7333360.0,9.371191024780273,-1.3144559860229492,2.6839818954467773,0.004261016845703125,-0.007456779479980469,0.011717796325683594,-0.1765613555908203,-0.7916107177734375,0.12921524047851562,-0.5705108642578125
419,7333380.0,9.347248077392578,-1.347975730895996,2.7079238891601562,-0.0031957626342773438,-0.0031957626342773438,-0.011717796325683594,-0.1765613555908203,-0.7916107177734375,0.12921524047851562,-0.5705108642578125
420,7333400.0,9.330488204956055,-1.3802986145019531,2.6432790756225586,-0.009587287902832031,-0.005326271057128906,-0.0031957626342773438,-0.1765613555908203,-0.7916107177734375,0.12921524047851562,-0.5705108642578125
421,7333420.0,9.324501991271973,-1.4078330993652344,2.664827346801758,0.007456779479980469,-0.0063915252685546875,0.0010652542114257812,-0.1765613555908203,-0.7916107177734375,0.12921524047851562,-0.5705108642578125
422,7333439.0,9.367599487304688,-1.3467788696289062,2.727078437805176,0.033023834228515625,-0.007456779479980469,0.007456779479980469,-0.1765613555908203,-0.7916107177734375,0.12921524047851562,-0.5705108642578125
423,7333459.0,9.365204811096191,-1.3300189971923828,2.6756019592285156,0.026632308959960938,-0.0021305084228515625,0.007456779479980469,-0.1765613555908203,-0.7916107177734375,0.12921524047851562,-0.5705108642578125
424,7333479.0,9.326896667480469,-1.385087013244629,2.6959524154663086,-0.007456779479980469,-0.0031957626342773438,0.007456779479980469,-0.1765613555908203,-0.7916107177734375,0.12921524047851562,-0.5705108642578125
425,7333499.0,9.328093528747559,-1.3060760498046875,2.7366552352905273,-0.011717796325683594,0.0063915252685546875,0.00852203369140625,-0.1765613555908203,-0.7916107177734375,0.12921524047851562,-0.5705108642578125
426,7333519.0,9.308939933776855,-1.3264274597167969,2.846792221069336,0.00852203369140625,0.0021305084228515625,-0.010652542114257812,-0.1765613555908203,-0.7916107177734375,0.12921524047851562,-0.5705108642578125
427,7333538.0,9.323305130004883,-1.4928302764892578,2.650461196899414,-0.05539512634277344,-0.012783050537109375,0.020239830017089844,-0.1765613555908203,-0.7916107177734375,0.12921524047851562,-0.5705108642578125
428,7333559.0,9.280208587646484,-1.4485359191894531,2.4505395889282227,-0.0010652542114257812,-0.013848304748535156,0.009587287902832031,-0.1765613555908203,-0.7916107177734375,0.12921524047851562,-0.5705108642578125
429,7333579.0,9.416682243347168,-1.2222766876220703,2.5510988235473633,-0.0010652542114257812,-0.013848304748535156,0.009587287902832031,-0.1765613555908203,-0.7916107177734375,0.12921524047851562,-0.5705108642578125
430,7333599.0,9.298165321350098,-1.2677679061889648,2.4804677963256836,-0.0010652542114257812,-0.013848304748535156,0.009587287902832031,-0.1765613555908203,-0.7916107177734375,0.12921524047851562,-0.5705108642578125
431,7333619.0,9.38675308227539,-1.1899538040161133,2.537930488586426,-0.0010652542114257812,-0.013848304748535156,0.009587287902832031,-0.1765613555908203,-0.7916107177734375,0.12921524047851562,-0.5705108642578125
432,7333638.0,9.346051216125488,-1.2282629013061523,2.7067270278930664,-0.0010652542114257812,-0.013848304748535156,0.009587287902832031,-0.1765613555908203,-0.7916107177734375,0.12921524047851562,-0.5705108642578125
433,7333658.0,9.458581924438477,-1.7573966979980469,2.84320068359375,-0.0010652542114257812,-0.013848304748535156,0.009587287902832031,-0.1765613555908203,-0.7916107177734375,0.12921524047851562,-0.5705108642578125
434,7333678.0,9.384359359741211,-1.5287437438964844,2.944957733154297,0.12783527374267578,0.012783050537109375,0.10120296478271484,-0.1765613555908203,-0.7916107177734375,0.12921524047851562,-0.5705108642578125
435,7333698.0,9.325699806213379,-1.227065086364746,2.778554916381836,0.12357425689697266,0.0063915252685546875,0.07137489318847656,-0.1765613555908203,-0.7916107177734375,0.12921524047851562,-0.5705108642578125
436,7333718.0,9.320911407470703,-1.3120622634887695,2.6624326705932617,0.025567054748535156,-0.0021305084228515625,0.060721397399902344,-0.1765613555908203,-0.7916107177734375,0.12921524047851562,-0.5705108642578125
437,7333737.0,9.262250900268555,-1.3814964294433594,2.782146453857422,0.05859088897705078,0.009587287902832031,0.014913558959960938,-0.1765613555908203,-0.7916107177734375,0.12921524047851562,-0.5705108642578125
438,7333759.0,9.340065002441406,-1.3455820083618164,2.7426414489746094,0.06498241424560547,-0.0063915252685546875,0.031958580017089844,-0.1765613555908203,-0.7916107177734375,0.12921524047851562,-0.5705108642578125
439,7333759.0,9.340065002441406,-1.3455820083618164,2.7426414489746094,0.06498241424560547,-0.0063915252685546875,0.031958580017089844,-0.1765613555908203,-0.7916107177734375,0.12921524047851562,-0.5705108642578125
440,7333779.0,9.301756858825684,-1.5395183563232422,2.836017608642578,0.06498241424560547,-0.0063915252685546875,0.031958580017089844,-0.16944026947021484,-0.7926034927368164,0.11734676361083984,-0.5738344192504883
441,7333779.0,9.301756858825684,-1.5395183563232422,2.836017608642578,0.06498241424560547,-0.0063915252685546875,0.031958580017089844,-0.16944026947021484,-0.7926034927368164,0.11734676361083984,-0.5738344192504883
442,7333799.0,9.366402626037598,-1.3539619445800781,2.6624326705932617,0.06498241424560547,-0.0063915252685546875,0.031958580017089844,-0.1693105697631836,-0.7928628921508789,0.11682891845703125,-0.5736179351806641
443,7333799.0,9.366402626037598,-1.3539619445800781,2.6624326705932617,0.06498241424560547,-0.0063915252685546875,0.031958580017089844,-0.1693105697631836,-0.7928628921508789,0.11682891845703125,-0.5736179351806641
444,7333819.0,9.411893844604492,-1.4928302764892578,2.60257625579834,0.06498241424560547,-0.0063915252685546875,0.031958580017089844,-0.16883563995361328,-0.7931652069091797,0.11626815795898438,-0.5734891891479492
445,7333819.0,9.411893844604492,-1.4928302764892578,2.60257625579834,0.06498241424560547,-0.0063915252685546875,0.031958580017089844,-0.16883563995361328,-0.7931652069091797,0.11626815795898438,-0.5734891891479492
446,7333838.0,9.310136795043945,-1.204319953918457,2.6815872192382812,0.06498241424560547,-0.0063915252685546875,0.031958580017089844,-0.1680164337158203,-0.7935104370117188,0.11531829833984375,-0.5734453201293945
447,7333838.0,9.310136795043945,-1.204319953918457,2.6815872192382812,0.06498241424560547,-0.0063915252685546875,0.031958580017089844,-0.1680164337158203,-0.7935104370117188,0.11531829833984375,-0.5734453201293945
448,7333957.0,8.991698265075684,-0.7661676406860352,1.5862064361572266,0.3185234069824219,0.11824703216552734,0.11718177795410156,-0.16672134399414062,-0.7937688827514648,0.11419677734375,-0.5736179351806641
449,7333957.0,8.991698265075684,-0.7661676406860352,1.5862064361572266,0.3185234069824219,0.11824703216552734,0.11718177795410156,-0.16672134399414062,-0.7937688827514648,0.11419677734375,-0.5736179351806641
450,7333977.0,9.52681827545166,-1.7166948318481445,3.733870506286621,0.3185234069824219,0.11824703216552734,0.11718177795410156,-0.16672134399414062,-0.7937688827514648,0.11419677734375,-0.5736179351806641
451,7333977.0,9.52681827545166,-1.7166948318481445,3.733870506286621,0.3185234069824219,0.11824703216552734,0.11718177795410156,-0.16672134399414062,-0.7937688827514648,0.11419677734375,-0.5736179351806641
452,7333997.0,9.132960319519043,-1.0343265533447266,3.2202987670898438,0.3185234069824219,0.11824703216552734,0.11718177795410156,-0.16672134399414062,-0.7937688827514648,0.11419677734375,-0.5736179351806641
453,7333997.0,9.132960319519043,-1.0343265533447266,3.2202987670898438,0.3185234069824219,0.11824703216552734,0.11718177795410156,-0.16672134399414062,-0.7937688827514648,0.11419677734375,-0.5736179351806641
454,7334017.0,9.40590763092041,-2.3619518280029297,2.5463104248046875,0.3185234069824219,0.11824703216552734,0.11718177795410156,-0.16672134399414062,-0.7937688827514648,0.11419677734375,-0.5736179351806641
455,7334017.0,9.40590763092041,-2.3619518280029297,2.5463104248046875,0.3185234069824219,0.11824703216552734,0.11718177795410156,-0.16672134399414062,-0.7937688827514648,0.11419677734375,-0.5736179351806641
456,7334036.0,9.294573783874512,-1.822042465209961,1.7466230392456055,0.3185234069824219,0.11824703216552734,0.11718177795410156,-0.16672134399414062,-0.7937688827514648,0.11419677734375,-0.5736179351806641
457,7334036.0,9.294573783874512,-1.822042465209961,1.7466230392456055,0.3185234069824219,0.11824703216552734,0.11718177795410156,-0.16672134399414062,-0.7937688827514648,0.11419677734375,-0.5736179351806641
458,7334057.0,9.313728332519531,-1.2031221389770508,3.2250871658325195,0.3185234069824219,0.11824703216552734,0.11718177795410156,-0.16672134399414062,-0.7937688827514648,0.11419677734375,-0.5736179351806641
459,7334077.0,9.26464557647705,-0.6392707824707031,3.8954849243164062,1.2847480773925781,0.12250900268554688,0.19707965850830078,-0.16672134399414062,-0.7937688827514648,0.11419677734375,-0.5736179351806641
460,7334097.0,8.998881340026855,-0.5099802017211914,3.3280410766601562,0.5965662002563477,0.08841896057128906,0.23969173431396484,-0.16672134399414062,-0.7937688827514648,0.11419677734375,-0.5736179351806641
461,7334117.0,8.962966918945312,-1.077423095703125,1.4090299606323242,0.019174575805664062,0.02769756317138672,0.2077322006225586,-0.16672134399414062,-0.7937688827514648,0.11419677734375,-0.5736179351806641
462,7334136.0,9.128171920776367,-1.2761478424072266,0.8727130889892578,0.2886953353881836,0.0,0.19707965850830078,-0.16672134399414062,-0.7937688827514648,0.11419677734375,-0.5736179351806641
463,7334157.0,10.114612579345703,-2.6803903579711914,4.130123138427734,0.7797966003417969,0.021305084228515625,0.196014404296875,-0.16672134399414062,-0.7937688827514648,0.11419677734375,-0.5736179351806641
464,7334177.0,9.276617050170898,0.0921792984008789,5.361977577209473,0.2194509506225586,0.17683887481689453,0.3110666275024414,-0.16672134399414062,-0.7937688827514648,0.11419677734375,-0.5736179351806641
465,7334197.0,4.290539741516113,11.182459831237793,-22.878490447998047,-1.0099010467529297,0.26845455169677734,0.2471485137939453,-0.16672134399414062,-0.7937688827514648,0.11419677734375,-0.5736179351806641
466,7334217.0,19.811424255371094,-14.812179565429688,26.37413215637207,4.041735649108887,0.8660860061645508,-1.6884956359863281,-0.16672134399414062,-0.7937688827514648,0.11419677734375,-0.5736179351806641
467,7334237.0,5.134521484375,2.9234085083007812,-4.120546340942383,-3.8574399948120117,1.7886333465576172,0.42292213439941406,-0.16672134399414062,-0.7937688827514648,0.11419677734375,-0.5736179351806641
468,7334256.0,10.095458984375,0.5554714202880859,4.118151664733887,-2.767641067504883,-1.3390779495239258,1.4232358932495117,-0.16672134399414062,-0.7937688827514648,0.11419677734375,-0.5736179351806641
469,7334276.0,6.994873046875,-4.598203659057617,2.018373489379883,-1.7023439407348633,0.2194509506225586,-0.4101390838623047,-0.16672134399414062,-0.7937688827514648,0.11419677734375,-0.5736179351806641
470,7334296.0,7.6604814529418945,0.17238712310791016,0.7649698257446289,0.5113420486450195,0.007456779479980469,-0.2705850601196289,-0.16672134399414062,-0.7937688827514648,0.11419677734375,-0.5736179351806641
471,7334316.0,10.980143547058105,-0.610539436340332,3.8212623596191406,0.6157407760620117,-0.3185234069824219,-0.36646175384521484,-0.16672134399414062,-0.7937688827514648,0.11419677734375,-0.5736179351806641
472,7334336.0,9.489706993103027,-1.8639421463012695,3.900273323059082,-0.3451557159423828,0.06391716003417969,-0.35474300384521484,-0.16672134399414062,-0.7937688827514648,0.11419677734375,-0.5736179351806641
473,7334356.0,8.083070755004883,-1.4724788665771484,3.0814313888549805,-0.30786991119384766,0.1214437484741211,-0.4665994644165039,-0.16672134399414062,-0.7937688827514648,0.11419677734375,-0.5736179351806641
474,7334376.0,9.435835838317871,-1.6831750869750977,2.2147035598754883,-0.30786991119384766,0.1214437484741211,-0.4665994644165039,-0.16672134399414062,-0.7937688827514648,0.11419677734375,-0.5736179351806641
475,7334396.0,9.730332374572754,-1.9704875946044922,1.6412744522094727,-0.30786991119384766,0.1214437484741211,-0.4665994644165039,-0.16672134399414062,-0.7937688827514648,0.11419677734375,-0.5736179351806641
476,7334416.0,9.571112632751465,-1.828028678894043,2.4613142013549805,-0.30786991119384766,0.1214437484741211,-0.4665994644165039,-0.16672134399414062,-0.7937688827514648,0.11419677734375,-0.5736179351806641
477,7334436.0,9.392739295959473,-1.7585945129394531,2.973689079284668,-0.30786991119384766,0.1214437484741211,-0.4665994644165039,-0.16672134399414062,-0.7937688827514648,0.11419677734375,-0.5736179351806641
478,7334456.0,9.128171920776367,-1.7669744491577148,2.067455291748047,-0.30786991119384766,0.1214437484741211,-0.4665994644165039,-0.16672134399414062,-0.7937688827514648,0.11419677734375,-0.5736179351806641
479,7334476.0,8.892335891723633,-1.5059986114501953,1.886688232421875,0.030893325805664062,-0.09907245635986328,-0.14594554901123047,-0.16672134399414062,-0.7937688827514648,0.11419677734375,-0.5736179351806641
480,7334496.0,9.154508590698242,-0.9732723236083984,2.123721122741699,0.2950868606567383,-0.11505126953125,-0.16831684112548828,-0.16672134399414062,-0.7937688827514648,0.11419677734375,-0.5736179351806641
481,7334516.0,9.390344619750977,-0.956512451171875,2.3116722106933594,0.12037849426269531,-0.1331615447998047,-0.1331615447998047,-0.16672134399414062,-0.7937688827514648,0.11419677734375,-0.5736179351806641
482,7334536.0,9.372387886047363,-1.3491735458374023,2.3858938217163086,-0.12677001953125,-0.09374523162841797,-0.1097249984741211,-0.16672134399414062,-0.7937688827514648,0.11419677734375,-0.5736179351806641
483,7334555.0,9.447807312011719,-1.6400775909423828,2.5199737548828125,-0.15766334533691406,-0.1033334732055664,-0.09054946899414062,-0.16672134399414062,-0.7937688827514648,0.11419677734375,-0.5736179351806641
484,7334575.0,9.492101669311523,-1.7035255432128906,2.622927665710449,-0.15766334533691406,-0.1033334732055664,-0.09054946899414062,-0.16672134399414062,-0.7937688827514648,0.11419677734375,-0.5736179351806641
485,7334595.0,9.444215774536133,-1.7873258590698242,2.591801643371582,-0.15766334533691406,-0.1033334732055664,-0.09054946899414062,-0.16672134399414062,-0.7937688827514648,0.11419677734375,-0.5736179351806641
486,7334615.0,9.408302307128906,-1.7454261779785156,2.6839818954467773,-0.15766334533691406,-0.1033334732055664,-0.09054946899414062,-0.16672134399414062,-0.7937688827514648,0.11419677734375,-0.5736179351806641
487,7334635.0,9.358022689819336,-1.4377613067626953,2.8240461349487305,-0.15766334533691406,-0.1033334732055664,-0.09054946899414062,-0.16672134399414062,-0.7937688827514648,0.11419677734375,-0.5736179351806641
488,7334854.0,9.238308906555176,-1.511983871459961,2.751021385192871,0.0021305084228515625,-0.03515434265136719,-0.054329872131347656,-0.18126583099365234,-0.7873382568359375,0.10595321655273438,-0.5796175003051758
489,7334854.0,9.238308906555176,-1.511983871459961,2.751021385192871,0.0021305084228515625,-0.03515434265136719,-0.054329872131347656,-0.18126583099365234,-0.7873382568359375,0.10595321655273438,-0.5796175003051758
490,7334864.0,9.223942756652832,-1.5359268188476562,2.72348690032959,-0.03941535949707031,-0.014913558959960938,-0.022370338439941406,-0.18126583099365234,-0.7873382568359375,0.10595321655273438,-0.5796175003051758
491,7334874.0,9.226337432861328,-1.5718412399291992,2.711515426635742,-0.03941535949707031,-0.014913558959960938,-0.022370338439941406,-0.18126583099365234,-0.7873382568359375,0.10595321655273438,-0.5796175003051758
492,7334874.0,9.226337432861328,-1.5718412399291992,2.711515426635742,-0.03941535949707031,-0.014913558959960938,-0.022370338439941406,-0.18126583099365234,-0.7873382568359375,0.10595321655273438,-0.5796175003051758
493,7334884.0,9.271828651428223,-1.5490951538085938,2.693558692932129,-0.05006885528564453,-0.020239830017089844,-0.025567054748535156,-0.18126583099365234,-0.7873382568359375,0.10595321655273438,-0.5796175003051758
494,7334894.0,9.294573783874512,-1.5287437438964844,2.664827346801758,-0.05006885528564453,-0.020239830017089844,-0.025567054748535156,-0.18126583099365234,-0.7873382568359375,0.10595321655273438,-0.5796175003051758
495,7334894.0,9.294573783874512,-1.5287437438964844,2.664827346801758,-0.05006885528564453,-0.020239830017089844,-0.025567054748535156,-0.18126583099365234,-0.7873382568359375,0.10595321655273438,-0.5796175003051758
496,7334904.0,9.269433975219727,-1.5610666275024414,2.7091217041015625,-0.031958580017089844,-0.021305084228515625,-0.03621959686279297,-0.18126583099365234,-0.7873382568359375,0.10595321655273438,-0.5796175003051758
497,7334914.0,9.28619384765625,-1.5790233612060547,2.692361831665039,-0.031958580017089844,-0.021305084228515625,-0.03621959686279297,-0.18126583099365234,-0.7873382568359375,0.10595321655273438,-0.5796175003051758
498,7334914.0,9.28619384765625,-1.5790233612060547,2.692361831665039,-0.031958580017089844,-0.021305084228515625,-0.03621959686279297,-0.18126583099365234,-0.7873382568359375,0.10595321655273438,-0.5796175003051758
499,7334924.0,9.290982246398926,-1.5574750900268555,2.6815872192382812,-0.007456779479980469,-0.022370338439941406,-0.040480613708496094,-0.18126583099365234,-0.7873382568359375,0.10595321655273438,-0.5796175003051758
500,7334934.0,9.295770645141602,-1.570643424987793,2.7342615127563477,-0.007456779479980469,-0.022370338439941406,-0.040480613708496094,-0.18126583099365234,-0.7873382568359375,0.10595321655273438,-0.5796175003051758
501,7334934.0,9.295770645141602,-1.570643424987793,2.7342615127563477,-0.007456779479980469,-0.022370338439941406,-0.040480613708496094,-0.18126583099365234,-0.7873382568359375,0.10595321655273438,-0.5796175003051758
502,7335054.0,9.304150581359863,-1.5897979736328125,2.6432790756225586,0.0010652542114257812,-0.024501800537109375,-0.022370338439941406,-0.18126583099365234,-0.7873382568359375,0.10595321655273438,-0.5796175003051758
503,7335074.0,9.359219551086426,-1.5550813674926758,2.6085615158081055,0.0010652542114257812,-0.024501800537109375,-0.022370338439941406,-0.18126583099365234,-0.7873382568359375,0.10595321655273438,-0.5796175003051758
504,7335094.0,9.371191024780273,-1.547898292541504,2.663630485534668,0.0010652542114257812,-0.024501800537109375,-0.022370338439941406,-0.18126583099365234,-0.7873382568359375,0.10595321655273438,-0.5796175003051758
505,7335114.0,9.358022689819336,-1.5263500213623047,2.6803903579711914,0.0010652542114257812,-0.024501800537109375,-0.022370338439941406,-0.18126583099365234,-0.7873382568359375,0.10595321655273438,-0.5796175003051758
506,7335134.0,9.369993209838867,-1.4868440628051758,2.685178756713867,0.0010652542114257812,-0.024501800537109375,-0.022370338439941406,-0.18126583099365234,-0.7873382568359375,0.10595321655273438,-0.5796175003051758
507,7335263.0,9.393936157226562,-1.4652957916259766,2.5822248458862305,0.005326271057128906,-0.004261016845703125,0.05113410949707031,-0.18126583099365234,-0.7873382568359375,0.10595321655273438,-0.5796175003051758
508,7335283.0,9.358022689819336,-1.442549705505371,2.590604782104492,0.024501800537109375,0.0,0.04367637634277344,-0.18126583099365234,-0.7873382568359375,0.10595321655273438,-0.5796175003051758
509,7335303.0,9.28380012512207,-1.452127456665039,2.634899139404297,0.031958580017089844,-0.009587287902832031,0.03941535949707031,-0.18126583099365234,-0.7873382568359375,0.10595321655273438,-0.5796175003051758
510,7335323.0,9.361613273620605,-1.3395957946777344,2.6097593307495117,0.00852203369140625,-0.009587287902832031,0.030893325805664062,-0.18126583099365234,-0.7873382568359375,0.10595321655273438,-0.5796175003051758
511,7335343.0,9.372387886047363,-1.413818359375,2.591801643371582,-0.03835010528564453,-0.00852203369140625,0.024501800537109375,-0.18126583099365234,-0.7873382568359375,0.10595321655273438,-0.5796175003051758
512,7335352.0,9.366402626037598,-1.4868440628051758,2.6217308044433594,-0.03835010528564453,-0.00852203369140625,0.024501800537109375,-0.18126583099365234,-0.7873382568359375,0.10595321655273438,-0.5796175003051758
513,7335362.0,9.362811088562012,-1.504800796508789,2.625321388244629,-0.053264617919921875,-0.007456779479980469,0.020239830017089844,-0.18126583099365234,-0.7873382568359375,0.10595321655273438,-0.5796175003051758
514,7335372.0,9.368796348571777,-1.5191669464111328,2.60257625579834,-0.053264617919921875,-0.007456779479980469,0.020239830017089844,-0.18126583099365234,-0.7873382568359375,0.10595321655273438,-0.5796175003051758
515,7335382.0,9.368796348571777,-1.5287437438964844,2.6193361282348633,-0.012783050537109375,-0.010652542114257812,0.00852203369140625,-0.18126583099365234,-0.7873382568359375,0.10595321655273438,-0.5796175003051758
516,7335392.0,9.37478256225586,-1.5155754089355469,2.6157445907592773,-0.012783050537109375,-0.010652542114257812,0.00852203369140625,-0.18126583099365234,-0.7873382568359375,0.10595321655273438,-0.5796175003051758
517,7335402.0,9.378373146057129,-1.4952239990234375,2.6468706130981445,0.01810932159423828,-0.011717796325683594,0.012783050537109375,-0.18126583099365234,-0.7873382568359375,0.10595321655273438,-0.5796175003051758
518,7335412.0,9.378373146057129,-1.4437475204467773,2.685178756713867,0.01810932159423828,-0.011717796325683594,0.012783050537109375,-0.18126583099365234,-0.7873382568359375,0.10595321655273438,-0.5796175003051758
519,7335422.0,9.367599487304688,-1.4221982955932617,2.6696157455444336,-0.0021305084228515625,-0.011717796325683594,0.01597881317138672,-0.18126583099365234,-0.7873382568359375,0.10595321655273438,-0.5796175003051758
520,7335432.0,9.33527660369873,-1.4545211791992188,2.657644271850586,-0.0021305084228515625,-0.011717796325683594,0.01597881317138672,-0.18126583099365234,-0.7873382568359375,0.10595321655273438,-0.5796175003051758
521,7335452.0,9.296968460083008,-1.517970085144043,2.6360960006713867,-0.0021305084228515625,-0.011717796325683594,0.01597881317138672,-0.18126583099365234,-0.7873382568359375,0.10595321655273438,-0.5796175003051758
522,7335452.0,9.296968460083008,-1.517970085144043,2.6360960006713867,-0.0021305084228515625,-0.011717796325683594,0.01597881317138672,-0.18126583099365234,-0.7873382568359375,0.10595321655273438,-0.5796175003051758
523,7335472.0,9.343656539916992,-1.5071954727172852,2.6157445907592773,-0.0021305084228515625,-0.011717796325683594,0.01597881317138672,-0.18126583099365234,-0.7873382568359375,0.10595321655273438,-0.5796175003051758
524,7335472.0,9.343656539916992,-1.5071954727172852,2.6157445907592773,-0.0021305084228515625,-0.011717796325683594,0.01597881317138672,-0.18126583099365234,-0.7873382568359375,0.10595321655273438,-0.5796175003051758
525,7335492.0,9.35682487487793,-1.5215606689453125,2.660038948059082,-0.0021305084228515625,-0.011717796325683594,0.01597881317138672,-0.18126583099365234,-0.7873382568359375,0.10595321655273438,-0.5796175003051758
526,7335492.0,9.35682487487793,-1.5215606689453125,2.660038948059082,-0.0021305084228515625,-0.011717796325683594,0.01597881317138672,-0.18126583099365234,-0.7873382568359375,0.10595321655273438,-0.5796175003051758
527,7335512.0,9.338868141174316,-1.4569158554077148,2.6815872192382812,-0.0021305084228515625,-0.011717796325683594,0.01597881317138672,-0.18126583099365234,-0.7873382568359375,0.10595321655273438,-0.5796175003051758
528,7335512.0,9.338868141174316,-1.4569158554077148,2.6815872192382812,-0.0021305084228515625,-0.011717796325683594,0.01597881317138672,-0.18126583099365234,-0.7873382568359375,0.10595321655273438,-0.5796175003051758
529,7335532.0,9.35562801361084,-1.442549705505371,2.5750417709350586,-0.0021305084228515625,-0.011717796325683594,0.01597881317138672,-0.18126583099365234,-0.7873382568359375,0.10595321655273438,-0.5796175003051758
530,7335532.0,9.35562801361084,-1.442549705505371,2.5750417709350586,-0.0021305084228515625,-0.011717796325683594,0.01597881317138672,-0.18126583099365234,-0.7873382568359375,0.10595321655273438,-0.5796175003051758
531,7335552.0,9.35443115234375,-1.4880409240722656,2.5738449096679688,-0.0021305084228515625,-0.011717796325683594,0.01597881317138672,-0.18126583099365234,-0.7873382568359375,0.10595321655273438,-0.5796175003051758
532,7335572.0,9.30774211883545,-1.5538835525512695,2.5786333084106445,-0.0021305084228515625,-0.011717796325683594,0.01597881317138672,-0.18126583099365234,-0.7873382568359375,0.10595321655273438,-0.5796175003051758
533,7335592.0,9.341261863708496,-1.4844493865966797,2.620532989501953,-0.0021305084228515625,-0.011717796325683594,0.01597881317138672,-0.18126583099365234,-0.7873382568359375,0.10595321655273438,-0.5796175003051758
534,7335612.0,9.308939933776855,-1.479660987854004,2.6360960006713867,-0.0021305084228515625,-0.011717796325683594,0.01597881317138672,-0.18126583099365234,-0.7873382568359375,0.10595321655273438,-0.5796175003051758
535,7335632.0,9.318516731262207,-1.511983871459961,2.597787857055664,-0.0021305084228515625,-0.011717796325683594,0.01597881317138672,-0.18126583099365234,-0.7873382568359375,0.10595321655273438,-0.5796175003051758
536,7335652.0,9.340065002441406,-1.5275468826293945,2.5487051010131836,-0.0021305084228515625,-0.011717796325683594,0.01597881317138672,-0.18126583099365234,-0.7873382568359375,0.10595321655273438,-0.5796175003051758
537,7335672.0,9.35562801361084,-1.5838127136230469,2.564268112182617,-0.0021305084228515625,-0.011717796325683594,0.01597881317138672,-0.18126583099365234,-0.7873382568359375,0.10595321655273438,-0.5796175003051758
538,7335692.0,9.350839614868164,-1.5299406051635742,2.5822248458862305,-0.0021305084228515625,-0.011717796325683594,0.01597881317138672,-0.18126583099365234,-0.7873382568359375,0.10595321655273438,-0.5796175003051758
539,7335712.0,9.367599487304688,-1.4988155364990234,2.5678586959838867,-0.0021305084228515625,-0.011717796325683594,0.01597881317138672,-0.18126583099365234,-0.7873382568359375,0.10595321655273438,-0.5796175003051758
540,7335732.0,9.395133018493652,-1.5646581649780273,2.558281898498535,-0.0021305084228515625,-0.011717796325683594,0.01597881317138672,-0.18126583099365234,-0.7873382568359375,0.10595321655273438,-0.5796175003051758
541,7335842.0,9.33527660369873,-1.5383214950561523,2.6145477294921875,-0.03515434265136719,-0.0031957626342773438,-0.009587287902832031,-0.18178367614746094,-0.7864751815795898,0.1063852310180664,-0.58056640625
542,7335861.0,9.319713592529297,-1.5886011123657227,2.6181392669677734,-0.020239830017089844,-0.0063915252685546875,-0.00852203369140625,-0.18178367614746094,-0.7864751815795898,0.1063852310180664,-0.58056640625
543,7335881.0,9.30654525756836,-1.540715217590332,2.6360960006713867,-0.0021305084228515625,-0.004261016845703125,-0.0010652542114257812,-0.18178367614746094,-0.7864751815795898,0.1063852310180664,-0.58056640625
544,7335901.0,9.366402626037598,-1.547898292541504,2.6360960006713867,0.0063915252685546875,-0.007456779479980469,0.005326271057128906,-0.18178367614746094,-0.7864751815795898,0.1063852310180664,-0.58056640625
545,7335921.0,9.389147758483887,-1.5311384201049805,2.6121530532836914,0.0010652542114257812,-0.004261016845703125,0.0031957626342773438,-0.18178367614746094,-0.7864751815795898,0.1063852310180664,-0.58056640625
546,7335941.0,9.344853401184082,-1.5155754089355469,2.650461196899414,-0.0021305084228515625,-0.0021305084228515625,-0.0031957626342773438,-0.18178367614746094,-0.7864751815795898,0.1063852310180664,-0.58056640625
547,7335941.0,9.344853401184082,-1.5155754089355469,2.650461196899414,-0.0021305084228515625,-0.0021305084228515625,-0.0031957626342773438,-0.18178367614746094,-0.7864751815795898,0.1063852310180664,-0.58056640625
548,7335960.0,9.23591423034668,-1.5323352813720703,2.6372928619384766,-0.0021305084228515625,-0.0021305084228515625,-0.0031957626342773438,-0.18178367614746094,-0.7864751815795898,0.1063852310180664,-0.58056640625
549,7335960.0,9.23591423034668,-1.5323352813720703,2.6372928619384766,-0.0021305084228515625,-0.0021305084228515625,-0.0031957626342773438,-0.18178367614746094,-0.7864751815795898,0.1063852310180664,-0.58056640625
550,7335980.0,9.37478256225586,-1.5431098937988281,2.60137939453125,-0.0021305084228515625,-0.0021305084228515625,-0.0031957626342773438,-0.18178367614746094,-0.7864751815795898,0.1063852310180664,-0.58056640625
551,7335980.0,9.37478256225586,-1.5431098937988281,2.60137939453125,-0.0021305084228515625,-0.0021305084228515625,-0.0031957626342773438,-0.18178367614746094,-0.7864751815795898,0.1063852310180664,-0.58056640625
552,7336000.0,9.42625904083252,-1.5514898300170898,2.60137939453125,-0.0021305084228515625,-0.0021305084228515625,-0.0031957626342773438,-0.18178367614746094,-0.7864751815795898,0.1063852310180664,-0.58056640625
553,7336000.0,9.42625904083252,-1.5514898300170898,2.60137939453125,-0.0021305084228515625,-0.0021305084228515625,-0.0031957626342773438,-0.18178367614746094,-0.7864751815795898,0.1063852310180664,-0.58056640625
554,7336020.0,9.323305130004883,-1.567051887512207,2.620532989501953,-0.0021305084228515625,-0.0021305084228515625,-0.0031957626342773438,-0.18178367614746094,-0.7864751815795898,0.1063852310180664,-0.58056640625
555,7336020.0,9.323305130004883,-1.567051887512207,2.620532989501953,-0.0021305084228515625,-0.0021305084228515625,-0.0031957626342773438,-0.18178367614746094,-0.7864751815795898,0.1063852310180664,-0.58056640625
556,7336041.0,9.35562801361084,-1.5897979736328125,2.656447410583496,-0.0021305084228515625,-0.0021305084228515625,-0.0031957626342773438,-0.18178367614746094,-0.7864751815795898,0.1063852310180664,-0.58056640625
557,7336060.0,9.383162498474121,-1.5024070739746094,2.627716064453125,0.034089088439941406,-0.0021305084228515625,-0.010652542114257812,-0.18178367614746094,-0.7864751815795898,0.1063852310180664,-0.58056640625
558,7336080.0,9.344853401184082,-1.5299406051635742,2.654052734375,0.020239830017089844,-0.0021305084228515625,-0.005326271057128906,-0.18178367614746094,-0.7864751815795898,0.1063852310180664,-0.58056640625
559,7336100.0,9.368796348571777,-1.5718412399291992,2.65285587310791,-0.007456779479980469,-0.0021305084228515625,0.0,-0.18178367614746094,-0.7864751815795898,0.1063852310180664,-0.58056640625
560,7336120.0,9.35443115234375,-1.5718412399291992,2.6803903579711914,-0.005326271057128906,0.0,0.007456779479980469,-0.18178367614746094,-0.7864751815795898,0.1063852310180664,-0.58056640625
561,7336141.0,9.324501991271973,-1.580221176147461,2.6432790756225586,0.00852203369140625,0.0021305084228515625,0.0170440673828125,-0.18178367614746094,-0.7864751815795898,0.1063852310180664,-0.58056640625
562,7336160.0,9.372387886047363,-1.544306755065918,2.692361831665039,0.00852203369140625,0.0021305084228515625,0.0170440673828125,-0.18178367614746094,-0.7864751815795898,0.1063852310180664,-0.58056640625
563,7336180.0,9.325699806213379,-1.4832525253295898,2.6456727981567383,0.00852203369140625,0.0021305084228515625,0.0170440673828125,-0.18178367614746094,-0.7864751815795898,0.1063852310180664,-0.58056640625
564,7336200.0,9.330488204956055,-1.5251522064208984,2.661235809326172,0.00852203369140625,0.0021305084228515625,0.0170440673828125,-0.18178367614746094,-0.7864751815795898,0.1063852310180664,-0.58056640625
