,timestamp,accel_x,accel_y,accel_z,gyro_x,gyro_y,gyro_z,ori_scalar,ori_x,ori_y,ori_z
0,6780140.0,9.055146217346191,-1.4820556640625,3.562680244445801,-0.11824703216552734,-0.05113410949707031,0.2812376022338867,-0.18955230712890625,-0.7989912033081055,0.1466083526611328,-0.5515642166137695
1,6780160.0,9.135354995727539,-1.389876365661621,3.5351457595825195,-0.14807605743408203,-0.045806884765625,0.2578010559082031,-0.18955230712890625,-0.7989912033081055,0.1466083526611328,-0.5515642166137695
2,6780180.0,9.09584903717041,-1.3048791885375977,3.4202213287353516,-0.2130584716796875,-0.031958580017089844,0.23436450958251953,-0.18955230712890625,-0.7989912033081055,0.1466083526611328,-0.5515642166137695
3,6780200.0,9.004866600036621,-1.3467788696289062,3.226284980773926,-0.28017234802246094,-0.042611122131347656,0.20027542114257812,-0.18955230712890625,-0.7989912033081055,0.1466083526611328,-0.5515642166137695
4,6780219.0,9.110215187072754,-1.4018478393554688,3.246636390686035,-0.29189109802246094,-0.0628519058227539,0.15872859954833984,-0.18955230712890625,-0.7989912033081055,0.1466083526611328,-0.5515642166137695
5,6780239.0,9.275420188903809,-1.4210014343261719,3.210721969604492,-0.2641935348510742,-0.08415794372558594,0.11931324005126953,-0.18955230712890625,-0.7989912033081055,0.1466083526611328,-0.5515642166137695
6,6780258.0,9.241899490356445,-1.3934669494628906,3.142484664916992,-0.2641935348510742,-0.08415794372558594,0.11931324005126953,-0.18955230712890625,-0.7989912033081055,0.1466083526611328,-0.5515642166137695
7,6780278.0,9.150917053222656,-1.4664926528930664,3.053896903991699,-0.2641935348510742,-0.08415794372558594,0.11931324005126953,-0.18955230712890625,-0.7989912033081055,0.1466083526611328,-0.5515642166137695
8,6780298.0,9.269433975219727,-1.4317760467529297,2.964111328125,-0.2641935348510742,-0.08415794372558594,0.11931324005126953,-0.19153690338134766,-0.7983436584472656,0.1469106674194336,-0.5517368316650391
9,6780317.0,9.282602310180664,-1.3683271408081055,3.0718536376953125,-0.2641935348510742,-0.08415794372558594,0.11931324005126953,-0.1929616928100586,-0.7976961135864258,0.14695358276367188,-0.5521249771118164
10,6780458.0,9.132960319519043,-1.5287437438964844,2.8084840774536133,-0.05113410949707031,-0.042611122131347656,0.0031957626342773438,-0.19883060455322266,-0.7949771881103516,0.1469106674194336,-0.5539379119873047
11,6780478.0,9.21675968170166,-1.5790233612060547,2.882706642150879,0.04900360107421875,-0.04687213897705078,-0.031958580017089844,-0.19913291931152344,-0.7946758270263672,0.14695358276367188,-0.554326057434082
12,6780498.0,9.45499038696289,-1.5251522064208984,3.0467138290405273,0.08735370635986328,-0.042611122131347656,-0.07030868530273438,-0.1984853744506836,-0.7944164276123047,0.14678096771240234,-0.5548877716064453
13,6780518.0,9.729134559631348,-1.3383989334106445,2.9796743392944336,0.026632308959960938,-0.02769756317138672,-0.10759449005126953,-0.19753646850585938,-0.7942438125610352,0.1468677520751953,-0.5554914474487305
14,6780537.0,9.458581924438477,-1.3300189971923828,2.876720428466797,-0.1097249984741211,0.033023834228515625,-0.11292076110839844,-0.19701862335205078,-0.7939844131469727,0.14773082733154297,-0.5558366775512695
15,6780758.0,9.256265640258789,-1.7214832305908203,2.847989082336426,0.021305084228515625,-0.06391716003417969,-0.09054946899414062,-0.2067718505859375,-0.7936830520629883,0.14777374267578125,-0.552729606628418
16,6780777.0,9.26584243774414,-1.7454261779785156,2.8001041412353516,-0.030893325805664062,-0.05539512634277344,-0.12677001953125,-0.2067718505859375,-0.7936830520629883,0.14777374267578125,-0.552729606628418
17,6780797.0,9.344853401184082,-1.7921142578125,2.8611574172973633,-0.04900360107421875,-0.05646038055419922,-0.1374225616455078,-0.2067718505859375,-0.7936830520629883,0.14777374267578125,-0.552729606628418
18,6780817.0,9.35682487487793,-1.7514114379882812,2.839609146118164,-0.06498241424560547,-0.052199363708496094,-0.12890052795410156,-0.2067718505859375,-0.7936830520629883,0.14777374267578125,-0.552729606628418
19,6780837.0,9.391542434692383,-1.8076772689819336,2.818060874938965,-0.08841896057128906,-0.04367637634277344,-0.10546398162841797,-0.2067718505859375,-0.7936830520629883,0.14777374267578125,-0.552729606628418
20,6781056.0,9.378373146057129,-1.510787010192871,2.864748954772949,-0.08841896057128906,-0.04367637634277344,-0.10546398162841797,-0.2150583267211914,-0.789280891418457,0.1587362289428711,-0.552729606628418
21,6781076.0,9.269433975219727,-1.5323352813720703,2.8623552322387695,-0.08841896057128906,-0.04367637634277344,-0.10546398162841797,-0.21518802642822266,-0.7894535064697266,0.15908145904541016,-0.5524272918701172
22,6781095.0,9.210774421691895,-1.7226800918579102,2.936577796936035,-0.08841896057128906,-0.04367637634277344,-0.10546398162841797,-0.2156200408935547,-0.7894964218139648,0.15981483459472656,-0.5519962310791016
23,6781115.0,9.180846214294434,-1.8304224014282227,2.813272476196289,-0.08841896057128906,-0.04367637634277344,-0.10546398162841797,-0.21613788604736328,-0.7894535064697266,0.16063499450683594,-0.5516510009765625
24,6781135.0,9.104228973388672,-1.848379135131836,2.752218246459961,-0.08841896057128906,-0.04367637634277344,-0.10546398162841797,-0.2165689468383789,-0.7894964218139648,0.16102313995361328,-0.5513057708740234
25,6781255.0,9.06592082977295,-1.880702018737793,2.8264408111572266,-0.04900360107421875,-0.0010652542114257812,-0.06391716003417969,-0.21514511108398438,-0.790186882019043,0.16059207916259766,-0.5510034561157227
26,6781275.0,9.228731155395508,-1.877110481262207,2.8192577362060547,-0.030893325805664062,-0.013848304748535156,-0.05965614318847656,-0.21514511108398438,-0.790186882019043,0.16059207916259766,-0.5510034561157227
27,6781295.0,9.342459678649902,-1.7945079803466797,2.743838310241699,-0.034089088439941406,-0.0031957626342773438,-0.04900360107421875,-0.21514511108398438,-0.790186882019043,0.16059207916259766,-0.5510034561157227
28,6781315.0,9.210774421691895,-1.7585945129394531,2.806089401245117,-0.06498241424560547,0.010652542114257812,-0.034089088439941406,-0.21514511108398438,-0.790186882019043,0.16059207916259766,-0.5510034561157227
29,6781334.0,9.188028335571289,-1.8196487426757812,2.8084840774536133,-0.0916147232055664,0.007456779479980469,-0.013848304748535156,-0.21514511108398438,-0.790186882019043,0.16059207916259766,-0.5510034561157227
30,6781454.0,9.124580383300781,-1.5874032974243164,2.7749643325805664,-0.0916147232055664,0.007456779479980469,-0.013848304748535156,-0.2203235626220703,-0.788935661315918,0.16279315948486328,-0.550053596496582
31,6781474.0,9.126975059509277,-1.6245145797729492,2.784541130065918,-0.0916147232055664,0.007456779479980469,-0.013848304748535156,-0.2203235626220703,-0.788935661315918,0.16279315948486328,-0.550053596496582
32,6781494.0,9.120988845825195,-1.6927518844604492,2.868340492248535,-0.0916147232055664,0.007456779479980469,-0.013848304748535156,-0.2203235626220703,-0.788935661315918,0.16279315948486328,-0.550053596496582
33,6781514.0,9.070709228515625,-1.7202863693237305,2.875523567199707,-0.0916147232055664,0.007456779479980469,-0.013848304748535156,-0.2203235626220703,-0.788935661315918,0.16279315948486328,-0.550053596496582
34,6781534.0,9.09345531463623,-1.638880729675293,2.816864013671875,-0.0916147232055664,0.007456779479980469,-0.013848304748535156,-0.2203235626220703,-0.788935661315918,0.16279315948486328,-0.550053596496582
35,6781655.0,9.179648399353027,-1.7849311828613281,2.8934803009033203,0.05859088897705078,-0.03941535949707031,-0.03621959686279297,-0.22105789184570312,-0.7879428863525391,0.16240406036376953,-0.5513057708740234
36,6781674.0,9.207182884216309,-1.8136625289916992,2.906648635864258,0.07350540161132812,-0.034089088439941406,-0.0287628173828125,-0.22105789184570312,-0.7879428863525391,0.16240406036376953,-0.5513057708740234
37,6781694.0,9.259857177734375,-1.7418346405029297,2.948549270629883,0.08735370635986328,-0.03515434265136719,-0.020239830017089844,-0.22105789184570312,-0.7879428863525391,0.16240406036376953,-0.5513057708740234
38,6781714.0,9.290982246398926,-1.7083148956298828,2.873128890991211,0.054329872131347656,-0.026632308959960938,-0.009587287902832031,-0.22105789184570312,-0.7879428863525391,0.16240406036376953,-0.5513057708740234
39,6781734.0,9.191619873046875,-1.7107086181640625,2.850383758544922,0.013848304748535156,-0.011717796325683594,-0.010652542114257812,-0.22105789184570312,-0.7879428863525391,0.16240406036376953,-0.5513057708740234
40,6781754.0,9.173663139343262,-1.8340139389038086,2.8551721572875977,0.013848304748535156,-0.011717796325683594,-0.010652542114257812,-0.21842479705810547,-0.7875537872314453,0.16089344024658203,-0.5533342361450195
41,6781773.0,9.226337432861328,-1.7980995178222656,2.8958749771118164,0.013848304748535156,-0.011717796325683594,-0.010652542114257812,-0.2183818817138672,-0.787510871887207,0.16067790985107422,-0.5534629821777344
42,6781793.0,9.18563461303711,-1.6783857345581055,2.846792221069336,0.013848304748535156,-0.011717796325683594,-0.010652542114257812,-0.21799373626708984,-0.7875537872314453,0.1602029800415039,-0.5536794662475586
43,6781813.0,9.120988845825195,-1.7071170806884766,2.8252439498901367,0.013848304748535156,-0.011717796325683594,-0.010652542114257812,-0.21764850616455078,-0.7876405715942383,0.1599445343017578,-0.5537652969360352
44,6781833.0,9.109017372131348,-1.788522720336914,2.84320068359375,0.013848304748535156,-0.011717796325683594,-0.010652542114257812,-0.21764850616455078,-0.7876405715942383,0.15985774993896484,-0.5537652969360352
45,6781953.0,9.369993209838867,-1.6903572082519531,2.778554916381836,-0.00852203369140625,0.0,0.0170440673828125,-0.21764850616455078,-0.7876405715942383,0.15985774993896484,-0.5537652969360352
46,6781973.0,9.293376922607422,-1.632894515991211,2.780949592590332,-0.00852203369140625,0.0,0.0170440673828125,-0.21764850616455078,-0.7876405715942383,0.15985774993896484,-0.5537652969360352
47,6781992.0,9.18443775177002,-1.6879634857177734,2.8192577362060547,-0.00852203369140625,0.0,0.0170440673828125,-0.21764850616455078,-0.7876405715942383,0.15985774993896484,-0.5537652969360352
48,6782012.0,9.209577560424805,-1.6867656707763672,2.8515806198120117,-0.00852203369140625,0.0,0.0170440673828125,-0.21764850616455078,-0.7876405715942383,0.15985774993896484,-0.5537652969360352
49,6782032.0,9.243097305297852,-1.6197261810302734,2.7953147888183594,-0.00852203369140625,0.0,0.0170440673828125,-0.21764850616455078,-0.7876405715942383,0.15985774993896484,-0.5537652969360352
50,6782053.0,9.14612865447998,-1.5850095748901367,2.7893295288085938,0.013848304748535156,0.009587287902832031,0.04900360107421875,-0.21764850616455078,-0.7876405715942383,0.15985774993896484,-0.5537652969360352
51,6782073.0,9.109017372131348,-1.6005725860595703,2.8312292098999023,0.012783050537109375,-0.0010652542114257812,0.026632308959960938,-0.21764850616455078,-0.7876405715942383,0.15985774993896484,-0.5537652969360352
52,6782093.0,9.100637435913086,-1.6724004745483398,2.8300323486328125,0.031958580017089844,-0.00852203369140625,0.010652542114257812,-0.21764850616455078,-0.7876405715942383,0.15985774993896484,-0.5537652969360352
53,6782112.0,9.110215187072754,-1.6340923309326172,2.816864013671875,0.06391716003417969,-0.014913558959960938,-0.005326271057128906,-0.21764850616455078,-0.7876405715942383,0.15985774993896484,-0.5537652969360352
54,6782132.0,9.085075378417969,-1.6257123947143555,2.816864013671875,0.06604766845703125,-0.013848304748535156,-0.012783050537109375,-0.21764850616455078,-0.7876405715942383,0.15985774993896484,-0.5537652969360352
55,6782152.0,9.135354995727539,-1.6532459259033203,2.8336238861083984,0.06604766845703125,-0.013848304748535156,-0.012783050537109375,-0.21799373626708984,-0.7884607315063477,0.15584468841552734,-0.5535926818847656
56,6782172.0,9.259857177734375,-1.6700057983398438,2.8575668334960938,0.06604766845703125,-0.013848304748535156,-0.012783050537109375,-0.21738910675048828,-0.7884607315063477,0.1556720733642578,-0.5539379119873047
57,6782192.0,9.246688842773438,-1.6185293197631836,2.8252439498901367,0.06604766845703125,-0.013848304748535156,-0.012783050537109375,-0.21669864654541016,-0.7883739471435547,0.1556720733642578,-0.5542831420898438
58,6782211.0,9.267040252685547,-1.605360984802246,2.816864013671875,0.06604766845703125,-0.013848304748535156,-0.012783050537109375,-0.2160511016845703,-0.7883310317993164,0.15588760375976562,-0.5545854568481445
59,6782231.0,9.241899490356445,-1.6759920120239258,2.806089401245117,0.06604766845703125,-0.013848304748535156,-0.012783050537109375,-0.21570587158203125,-0.7882013320922852,0.15627574920654297,-0.5548439025878906
60,6782351.0,9.1868314743042,-1.6855688095092773,2.8336238861083984,-0.0021305084228515625,0.0,0.0010652542114257812,-0.21570587158203125,-0.7882013320922852,0.15627574920654297,-0.5548439025878906
61,6782351.0,9.1868314743042,-1.6855688095092773,2.8336238861083984,-0.0021305084228515625,0.0,0.0010652542114257812,-0.21570587158203125,-0.7882013320922852,0.15627574920654297,-0.5548439025878906
62,6782371.0,9.158100128173828,-1.635289192199707,2.8036956787109375,0.0021305084228515625,-0.004261016845703125,0.0010652542114257812,-0.21570587158203125,-0.7882013320922852,0.15627574920654297,-0.5548439025878906
63,6782371.0,9.158100128173828,-1.635289192199707,2.8036956787109375,0.0021305084228515625,-0.004261016845703125,0.0010652542114257812,-0.21570587158203125,-0.7882013320922852,0.15627574920654297,-0.5548439025878906
64,6782391.0,9.136551856994629,-1.6221208572387695,2.7953147888183594,-0.00852203369140625,-0.00852203369140625,-0.0010652542114257812,-0.21570587158203125,-0.7882013320922852,0.15627574920654297,-0.5548439025878906
65,6782391.0,9.136551856994629,-1.6221208572387695,2.7953147888183594,-0.00852203369140625,-0.00852203369140625,-0.0010652542114257812,-0.21570587158203125,-0.7882013320922852,0.15627574920654297,-0.5548439025878906
66,6782411.0,9.131763458251953,-1.6400775909423828,2.8084840774536133,-0.009587287902832031,-0.013848304748535156,-0.0170440673828125,-0.21570587158203125,-0.7882013320922852,0.15627574920654297,-0.5548439025878906
67,6782411.0,9.131763458251953,-1.6400775909423828,2.8084840774536133,-0.009587287902832031,-0.013848304748535156,-0.0170440673828125,-0.21570587158203125,-0.7882013320922852,0.15627574920654297,-0.5548439025878906
68,6782430.0,9.147326469421387,-1.674795150756836,2.783344268798828,0.01810932159423828,-0.024501800537109375,-0.031958580017089844,-0.21570587158203125,-0.7882013320922852,0.15627574920654297,-0.5548439025878906
69,6782430.0,9.147326469421387,-1.674795150756836,2.783344268798828,0.01810932159423828,-0.024501800537109375,-0.031958580017089844,-0.21570587158203125,-0.7882013320922852,0.15627574920654297,-0.5548439025878906
70,6782451.0,9.159296989440918,-1.6496543884277344,2.7941179275512695,0.01810932159423828,-0.024501800537109375,-0.031958580017089844,-0.21570587158203125,-0.7882013320922852,0.15627574920654297,-0.5548439025878906
71,6782471.0,9.156903266906738,-1.631697654724121,2.8048925399780273,0.01810932159423828,-0.024501800537109375,-0.031958580017089844,-0.21570587158203125,-0.7882013320922852,0.15627574920654297,-0.5548439025878906
72,6782491.0,9.19640827178955,-1.6364860534667969,2.879115104675293,0.01810932159423828,-0.024501800537109375,-0.031958580017089844,-0.21570587158203125,-0.7882013320922852,0.15627574920654297,-0.5548439025878906
73,6782511.0,9.401119232177734,-1.479660987854004,2.755809783935547,0.01810932159423828,-0.024501800537109375,-0.031958580017089844,-0.21570587158203125,-0.7882013320922852,0.15627574920654297,-0.5548439025878906
74,6782530.0,9.277813911437988,-1.5395183563232422,2.7665843963623047,0.01810932159423828,-0.024501800537109375,-0.031958580017089844,-0.21570587158203125,-0.7882013320922852,0.15627574920654297,-0.5548439025878906
75,6782550.0,9.161691665649414,-1.6532459259033203,2.816864013671875,0.01810932159423828,-0.024501800537109375,-0.031958580017089844,-0.21570587158203125,-0.7882013320922852,0.15627574920654297,-0.5548439025878906
76,6782570.0,9.276617050170898,-1.6221208572387695,2.7617950439453125,0.01810932159423828,-0.024501800537109375,-0.031958580017089844,-0.21570587158203125,-0.7882013320922852,0.15627574920654297,-0.5548439025878906
77,6782590.0,9.274222373962402,-1.5814180374145508,2.7689781188964844,0.01810932159423828,-0.024501800537109375,-0.031958580017089844,-0.21570587158203125,-0.7882013320922852,0.15627574920654297,-0.5548439025878906
78,6782610.0,9.33527660369873,-1.4976186752319336,2.751021385192871,0.01810932159423828,-0.024501800537109375,-0.031958580017089844,-0.21570587158203125,-0.7882013320922852,0.15627574920654297,-0.5548439025878906
79,6782630.0,9.258659362792969,-1.4988155364990234,2.778554916381836,0.01810932159423828,-0.024501800537109375,-0.031958580017089844,-0.21570587158203125,-0.7882013320922852,0.15627574920654297,-0.5548439025878906
80,6782650.0,9.171268463134766,-1.574234962463379,2.8192577362060547,0.012783050537109375,-0.026632308959960938,-0.02982807159423828,-0.21570587158203125,-0.7882013320922852,0.15627574920654297,-0.5548439025878906
81,6782650.0,9.171268463134766,-1.574234962463379,2.8192577362060547,0.012783050537109375,-0.026632308959960938,-0.02982807159423828,-0.21570587158203125,-0.7882013320922852,0.15627574920654297,-0.5548439025878906
82,6782670.0,9.263448715209961,-1.537123680114746,2.77376651763916,0.03835010528564453,-0.03621959686279297,-0.025567054748535156,-0.21570587158203125,-0.7882013320922852,0.15627574920654297,-0.5548439025878906
83,6782670.0,9.263448715209961,-1.537123680114746,2.77376651763916,0.03835010528564453,-0.03621959686279297,-0.025567054748535156,-0.21570587158203125,-0.7882013320922852,0.15627574920654297,-0.5548439025878906
84,6782690.0,9.281405448913574,-1.5203638076782227,2.7617950439453125,0.040480613708496094,-0.02769756317138672,-0.023435592651367188,-0.21570587158203125,-0.7882013320922852,0.15627574920654297,-0.5548439025878906
85,6782690.0,9.281405448913574,-1.5203638076782227,2.7617950439453125,0.040480613708496094,-0.02769756317138672,-0.023435592651367188,-0.21570587158203125,-0.7882013320922852,0.15627574920654297,-0.5548439025878906
86,6782710.0,9.261054039001465,-1.5455036163330078,2.780949592590332,0.033023834228515625,-0.024501800537109375,-0.020239830017089844,-0.21570587158203125,-0.7882013320922852,0.15627574920654297,-0.5548439025878906
87,6782710.0,9.261054039001465,-1.5455036163330078,2.780949592590332,0.033023834228515625,-0.024501800537109375,-0.020239830017089844,-0.21570587158203125,-0.7882013320922852,0.15627574920654297,-0.5548439025878906
88,6782730.0,9.231125831604004,-1.5909948348999023,2.749823570251465,0.03835010528564453,-0.024501800537109375,-0.0170440673828125,-0.21570587158203125,-0.7882013320922852,0.15627574920654297,-0.5548439025878906
89,6782730.0,9.231125831604004,-1.5909948348999023,2.749823570251465,0.03835010528564453,-0.024501800537109375,-0.0170440673828125,-0.21570587158203125,-0.7882013320922852,0.15627574920654297,-0.5548439025878906
90,6782850.0,9.261054039001465,-1.4150161743164062,2.657644271850586,0.0809621810913086,-0.007456779479980469,0.03835010528564453,-0.21570587158203125,-0.7882013320922852,0.15627574920654297,-0.5548439025878906
91,6782869.0,9.317319869995117,-1.3743133544921875,2.6420812606811523,0.06817817687988281,-0.012783050537109375,0.033023834228515625,-0.21570587158203125,-0.7882013320922852,0.15627574920654297,-0.5548439025878906
92,6782889.0,9.241899490356445,-1.4413528442382812,2.6372928619384766,0.05965614318847656,-0.01597881317138672,0.022370338439941406,-0.21570587158203125,-0.7882013320922852,0.15627574920654297,-0.5548439025878906
93,6782909.0,9.21436595916748,-1.358750343322754,2.650461196899414,0.06498241424560547,-0.02769756317138672,0.00852203369140625,-0.21570587158203125,-0.7882013320922852,0.15627574920654297,-0.5548439025878906
94,6782929.0,9.279010772705078,-1.3084707260131836,2.590604782104492,0.042611122131347656,-0.03515434265136719,-0.00852203369140625,-0.21570587158203125,-0.7882013320922852,0.15627574920654297,-0.5548439025878906
95,6782949.0,9.28619384765625,-1.3802986145019531,2.606167793273926,-0.00852203369140625,-0.03621959686279297,-0.01810932159423828,-0.21570587158203125,-0.7882013320922852,0.15627574920654297,-0.5548439025878906
96,6782969.0,9.269433975219727,-1.4006500244140625,2.656447410583496,-0.00852203369140625,-0.03621959686279297,-0.01810932159423828,-0.20517539978027344,-0.7844038009643555,0.1561899185180664,-0.5640802383422852
97,6782989.0,9.324501991271973,-1.4593095779418945,2.679192543029785,-0.00852203369140625,-0.03621959686279297,-0.01810932159423828,-0.20526123046875,-0.7841014862060547,0.15649127960205078,-0.5644254684448242
98,6783009.0,9.380767822265625,-1.4186077117919922,2.6444759368896484,-0.00852203369140625,-0.03621959686279297,-0.01810932159423828,-0.20521831512451172,-0.7837562561035156,0.15666484832763672,-0.5649003982543945
99,6783029.0,9.352036476135254,-1.4186077117919922,2.6779956817626953,-0.00852203369140625,-0.03621959686279297,-0.01810932159423828,-0.20517539978027344,-0.7834110260009766,0.15675067901611328,-0.5653753280639648
100,6783050.0,9.310136795043945,-1.4832525253295898,2.7043323516845703,0.004261016845703125,-0.045806884765625,-0.007456779479980469,-0.20517539978027344,-0.7834110260009766,0.15675067901611328,-0.5653753280639648
101,6783070.0,9.316122055053711,-1.4688873291015625,2.7342615127563477,0.03621959686279297,-0.045806884765625,0.007456779479980469,-0.20517539978027344,-0.7834110260009766,0.15675067901611328,-0.5653753280639648
102,6783089.0,9.332881927490234,-1.4629011154174805,2.7318668365478516,0.06391716003417969,-0.04900360107421875,0.01597881317138672,-0.20517539978027344,-0.7834110260009766,0.15675067901611328,-0.5653753280639648
103,6783109.0,9.344853401184082,-1.453324317932129,2.7282752990722656,0.07350540161132812,-0.042611122131347656,0.0170440673828125,-0.20517539978027344,-0.7834110260009766,0.15675067901611328,-0.5653753280639648
104,6783129.0,9.281405448913574,-1.453324317932129,2.779752731323242,0.0692434310913086,-0.03728485107421875,0.020239830017089844,-0.20517539978027344,-0.7834110260009766,0.15675067901611328,-0.5653753280639648
105,6783149.0,9.331685066223145,-1.4952239990234375,2.809680938720703,0.07563591003417969,-0.03728485107421875,0.021305084228515625,-0.20517539978027344,-0.7834110260009766,0.15675067901611328,-0.5653753280639648
106,6783249.0,9.350839614868164,-1.3922700881958008,2.754612922668457,0.07137489318847656,-0.0063915252685546875,0.033023834228515625,-0.2027587890625,-0.7826776504516602,0.15187358856201172,-0.5685691833496094
107,6783269.0,9.446610450744629,-1.3563566207885742,2.693558692932129,0.025567054748535156,0.0010652542114257812,0.031958580017089844,-0.2027587890625,-0.7826776504516602,0.15187358856201172,-0.5685691833496094
108,6783288.0,9.28619384765625,-1.3791017532348633,2.6779956817626953,-0.025567054748535156,0.020239830017089844,0.022370338439941406,-0.2027587890625,-0.7826776504516602,0.15187358856201172,-0.5685691833496094
109,6783308.0,9.192817687988281,-1.5419120788574219,2.6803903579711914,-0.0170440673828125,0.012783050537109375,0.007456779479980469,-0.2027587890625,-0.7826776504516602,0.15187358856201172,-0.5685691833496094
110,6783328.0,9.331685066223145,-1.4664926528930664,2.661235809326172,0.03728485107421875,-0.0031957626342773438,-0.005326271057128906,-0.2027587890625,-0.7826776504516602,0.15187358856201172,-0.5685691833496094
111,6783348.0,9.337671279907227,-1.3563566207885742,2.628912925720215,0.04687213897705078,0.0063915252685546875,-0.012783050537109375,-0.2027587890625,-0.7826776504516602,0.15187358856201172,-0.5685691833496094
112,6783468.0,9.238308906555176,-1.485647201538086,2.6744041442871094,0.04687213897705078,0.0063915252685546875,-0.012783050537109375,-0.2019815444946289,-0.7833681106567383,0.15083789825439453,-0.5681371688842773
113,6783478.0,9.251477241516113,-1.4916324615478516,2.6779956817626953,-0.007456779479980469,0.0063915252685546875,-0.0031957626342773438,-0.2019815444946289,-0.7833681106567383,0.15083789825439453,-0.5681371688842773
114,6783488.0,9.240702629089355,-1.4880409240722656,2.6660242080688477,-0.007456779479980469,0.0063915252685546875,-0.0031957626342773438,-0.2019815444946289,-0.7833681106567383,0.15083789825439453,-0.5681371688842773
115,6783498.0,9.21556282043457,-1.453324317932129,2.6420812606811523,0.030893325805664062,0.0063915252685546875,-0.0063915252685546875,-0.2019815444946289,-0.7833681106567383,0.15083789825439453,-0.5681371688842773
116,6783507.0,9.198802947998047,-1.416213035583496,2.625321388244629,0.030893325805664062,0.0063915252685546875,-0.0063915252685546875,-0.2019815444946289,-0.7833681106567383,0.15083789825439453,-0.5681371688842773
117,6783517.0,9.180846214294434,-1.426987648010254,2.6121530532836914,0.031958580017089844,0.0,-0.012783050537109375,-0.2019815444946289,-0.7833681106567383,0.15083789825439453,-0.5681371688842773
118,6783527.0,9.158100128173828,-1.4018478393554688,2.682784080505371,0.031958580017089844,0.0,-0.012783050537109375,-0.2019815444946289,-0.7833681106567383,0.15083789825439453,-0.5681371688842773
119,6783537.0,9.178451538085938,-1.4485359191894531,2.6360960006713867,0.019174575805664062,-0.0010652542114257812,-0.00852203369140625,-0.2019815444946289,-0.7833681106567383,0.15083789825439453,-0.5681371688842773
120,6783547.0,9.26464557647705,-1.5347299575805664,2.620532989501953,0.019174575805664062,-0.0010652542114257812,-0.00852203369140625,-0.2019815444946289,-0.7833681106567383,0.15083789825439453,-0.5681371688842773
121,6783667.0,9.344853401184082,-1.547898292541504,2.686375617980957,0.019174575805664062,-0.0010652542114257812,-0.00852203369140625,-0.20042800903320312,-0.7840585708618164,0.14833450317382812,-0.5683965682983398
122,6783687.0,9.28380012512207,-1.5287437438964844,2.72109317779541,0.019174575805664062,-0.0010652542114257812,-0.00852203369140625,-0.20060062408447266,-0.7841882705688477,0.1476879119873047,-0.5683097839355469
123,6783707.0,9.225139617919922,-1.5311384201049805,2.7139101028442383,0.019174575805664062,-0.0010652542114257812,-0.00852203369140625,-0.20098876953125,-0.7842311859130859,0.14729881286621094,-0.5681800842285156
124,6783726.0,9.26584243774414,-1.574234962463379,2.7354583740234375,0.019174575805664062,-0.0010652542114257812,-0.00852203369140625,-0.20142078399658203,-0.7843170166015625,0.14695358276367188,-0.5680942535400391
125,6783746.0,9.30654525756836,-1.5215606689453125,2.7103185653686523,0.019174575805664062,-0.0010652542114257812,-0.00852203369140625,-0.2017230987548828,-0.7844038009643555,0.14652252197265625,-0.5679645538330078
126,6783766.0,9.259857177734375,-1.4976186752319336,2.743838310241699,-0.0031957626342773438,0.010652542114257812,0.05646038055419922,-0.2017230987548828,-0.7844038009643555,0.14652252197265625,-0.5679645538330078
127,6783786.0,9.227534294128418,-1.5263500213623047,2.688770294189453,-0.01597881317138672,0.014913558959960938,0.052199363708496094,-0.2017230987548828,-0.7844038009643555,0.14652252197265625,-0.5679645538330078
128,6783806.0,9.262250900268555,-1.5275468826293945,2.729473114013672,-0.0021305084228515625,0.00852203369140625,0.042611122131347656,-0.2017230987548828,-0.7844038009643555,0.14652252197265625,-0.5679645538330078
129,6783826.0,9.316122055053711,-1.4748725891113281,2.72109317779541,0.031958580017089844,0.007456779479980469,0.034089088439941406,-0.2017230987548828,-0.7844038009643555,0.14652252197265625,-0.5679645538330078
130,6783845.0,9.292180061340332,-1.4329729080200195,2.7426414489746094,0.03835010528564453,0.0,0.025567054748535156,-0.2017230987548828,-0.7844038009643555,0.14652252197265625,-0.5679645538330078
131,6783866.0,9.227534294128418,-1.4904356002807617,2.747429847717285,0.026632308959960938,0.0010652542114257812,0.014913558959960938,-0.2017230987548828,-0.7844038009643555,0.14652252197265625,-0.5679645538330078
132,6783886.0,9.21556282043457,-1.5419120788574219,2.741443634033203,0.031958580017089844,0.0,0.0063915252685546875,-0.2017230987548828,-0.7844038009643555,0.14652252197265625,-0.5679645538330078
133,6783906.0,9.28380012512207,-1.4676895141601562,2.7318668365478516,0.06498241424560547,-0.0031957626342773438,0.004261016845703125,-0.2017230987548828,-0.7844038009643555,0.14652252197265625,-0.5679645538330078
134,6783926.0,9.35682487487793,-1.4413528442382812,2.753415107727051,0.0692434310913086,-0.0031957626342773438,0.0,-0.2017230987548828,-0.7844038009643555,0.14652252197265625,-0.5679645538330078
135,6783945.0,9.314925193786621,-1.4545211791992188,2.754612922668457,0.03941535949707031,0.00852203369140625,-0.005326271057128906,-0.2017230987548828,-0.7844038009643555,0.14652252197265625,-0.5679645538330078
136,6783966.0,9.245491027832031,-1.5634613037109375,2.748626708984375,0.01810932159423828,0.014913558959960938,-0.007456779479980469,-0.2017230987548828,-0.7844038009643555,0.14652252197265625,-0.5679645538330078
137,6783986.0,9.281405448913574,-1.476069450378418,2.7390499114990234,0.024501800537109375,0.014913558959960938,-0.0021305084228515625,-0.2017230987548828,-0.7844038009643555,0.14652252197265625,-0.5679645538330078
138,6784006.0,9.317319869995117,-1.4353675842285156,2.6995439529418945,0.025567054748535156,0.014913558959960938,0.0,-0.2017230987548828,-0.7844038009643555,0.14652252197265625,-0.5679645538330078
139,6784026.0,9.276617050170898,-1.4952239990234375,2.6959524154663086,-0.007456779479980469,0.022370338439941406,0.0063915252685546875,-0.2017230987548828,-0.7844038009643555,0.14652252197265625,-0.5679645538330078
140,6784046.0,9.267040252685547,-1.5239553451538086,2.6839818954467773,-0.01810932159423828,0.025567054748535156,0.0031957626342773438,-0.2017230987548828,-0.7844038009643555,0.14652252197265625,-0.5679645538330078
141,6784065.0,9.246688842773438,-1.5502920150756836,2.6744041442871094,0.0,0.02769756317138672,0.0063915252685546875,-0.2017230987548828,-0.7844038009643555,0.14652252197265625,-0.5679645538330078
142,6784085.0,9.289785385131836,-1.4916324615478516,2.6696157455444336,0.023435592651367188,0.020239830017089844,0.0063915252685546875,-0.2017230987548828,-0.7844038009643555,0.14652252197265625,-0.5679645538330078
143,6784105.0,9.26584243774414,-1.4640989303588867,2.616941452026367,0.01810932159423828,0.01597881317138672,0.0031957626342773438,-0.2017230987548828,-0.7844038009643555,0.14652252197265625,-0.5679645538330078
144,6784125.0,9.210774421691895,-1.5299406051635742,2.6396875381469727,-0.012783050537109375,0.022370338439941406,0.0031957626342773438,-0.2017230987548828,-0.7844038009643555,0.14652252197265625,-0.5679645538330078
145,6784145.0,9.232322692871094,-1.5886011123657227,2.6121530532836914,-0.01810932159423828,0.0170440673828125,0.0010652542114257812,-0.2017230987548828,-0.7844038009643555,0.14652252197265625,-0.5679645538330078
146,6784165.0,9.246688842773438,-1.5263500213623047,2.654052734375,0.007456779479980469,0.010652542114257812,0.004261016845703125,-0.2017230987548828,-0.7844038009643555,0.14652252197265625,-0.5679645538330078
147,6784165.0,9.246688842773438,-1.5263500213623047,2.654052734375,0.007456779479980469,0.010652542114257812,0.004261016845703125,-0.2017230987548828,-0.7844038009643555,0.14652252197265625,-0.5679645538330078
148,6784185.0,9.277813911437988,-1.4904356002807617,2.6217308044433594,0.019174575805664062,0.007456779479980469,0.004261016845703125,-0.2017230987548828,-0.7844038009643555,0.14652252197265625,-0.5679645538330078
149,6784185.0,9.277813911437988,-1.4904356002807617,2.6217308044433594,0.019174575805664062,0.007456779479980469,0.004261016845703125,-0.2017230987548828,-0.7844038009643555,0.14652252197265625,-0.5679645538330078
150,6784205.0,9.258659362792969,-1.4964208602905273,2.6121530532836914,-0.014913558959960938,0.005326271057128906,0.005326271057128906,-0.2017230987548828,-0.7844038009643555,0.14652252197265625,-0.5679645538330078
151,6784205.0,9.258659362792969,-1.4964208602905273,2.6121530532836914,-0.014913558959960938,0.005326271057128906,0.005326271057128906,-0.2017230987548828,-0.7844038009643555,0.14652252197265625,-0.5679645538330078
152,6784225.0,9.219154357910156,-1.567051887512207,2.649264335632324,-0.04793834686279297,0.007456779479980469,0.004261016845703125,-0.2017230987548828,-0.7844038009643555,0.14652252197265625,-0.5679645538330078
153,6784225.0,9.219154357910156,-1.567051887512207,2.649264335632324,-0.04793834686279297,0.007456779479980469,0.004261016845703125,-0.2017230987548828,-0.7844038009643555,0.14652252197265625,-0.5679645538330078
154,6784245.0,9.208379745483398,-1.5921926498413086,2.627716064453125,-0.04793834686279297,0.0,0.00852203369140625,-0.2017230987548828,-0.7844038009643555,0.14652252197265625,-0.5679645538330078
155,6784245.0,9.208379745483398,-1.5921926498413086,2.627716064453125,-0.04793834686279297,0.0,0.00852203369140625,-0.2017230987548828,-0.7844038009643555,0.14652252197265625,-0.5679645538330078
156,6784365.0,9.263448715209961,-1.574234962463379,2.7677812576293945,0.023435592651367188,-0.02769756317138672,-0.0031957626342773438,-0.20060062408447266,-0.7861728668212891,0.1428537368774414,-0.5668420791625977
157,6784385.0,9.240702629089355,-1.5323352813720703,2.780949592590332,0.019174575805664062,-0.026632308959960938,0.0031957626342773438,-0.2005138397216797,-0.7860441207885742,0.14272403717041016,-0.5670146942138672
158,6784404.0,9.217957496643066,-1.5897979736328125,2.812075614929199,0.007456779479980469,-0.024501800537109375,0.009587287902832031,-0.20060062408447266,-0.785914421081543,0.14268112182617188,-0.5671873092651367
159,6784424.0,9.238308906555176,-1.5586719512939453,2.807286262512207,0.0,-0.021305084228515625,0.009587287902832031,-0.20060062408447266,-0.78582763671875,0.1425943374633789,-0.5673599243164062
160,6784444.0,9.249082565307617,-1.5933895111083984,2.8336238861083984,0.010652542114257812,-0.01810932159423828,0.009587287902832031,-0.20055770874023438,-0.7857418060302734,0.14242172241210938,-0.5674896240234375
161,6784563.0,9.348444938659668,-1.4605073928833008,2.7641897201538086,0.04474163055419922,-0.007456779479980469,-0.0031957626342773438,-0.20055770874023438,-0.7857418060302734,0.14242172241210938,-0.5674896240234375
162,6784583.0,9.241899490356445,-1.5059986114501953,2.7402467727661133,0.012783050537109375,0.0,-0.009587287902832031,-0.20055770874023438,-0.7857418060302734,0.14242172241210938,-0.5674896240234375
163,6784603.0,9.213168144226074,-1.5921926498413086,2.7246837615966797,-0.01597881317138672,0.004261016845703125,-0.007456779479980469,-0.20055770874023438,-0.7857418060302734,0.14242172241210938,-0.5674896240234375
164,6784622.0,9.229928970336914,-1.5754318237304688,2.689967155456543,0.007456779479980469,0.0021305084228515625,-0.004261016845703125,-0.20055770874023438,-0.7857418060302734,0.14242172241210938,-0.5674896240234375
165,6784642.0,9.275420188903809,-1.5299406051635742,2.715106964111328,0.03941535949707031,0.0,0.0,-0.20055770874023438,-0.7857418060302734,0.14242172241210938,-0.5674896240234375
166,6784663.0,9.279010772705078,-1.4772672653198242,2.6983470916748047,0.03941535949707031,0.0,0.0,-0.20055770874023438,-0.7857418060302734,0.14242172241210938,-0.5674896240234375
167,6784683.0,9.271828651428223,-1.5682497024536133,2.628912925720215,0.03941535949707031,0.0,0.0,-0.20055770874023438,-0.7857418060302734,0.14242172241210938,-0.5674896240234375
168,6784703.0,9.275420188903809,-1.7107086181640625,2.6947555541992188,0.03941535949707031,0.0,0.0,-0.20055770874023438,-0.7857418060302734,0.14242172241210938,-0.5674896240234375
169,6784722.0,9.21675968170166,-1.5622634887695312,2.7318668365478516,0.03941535949707031,0.0,0.0,-0.20055770874023438,-0.7857418060302734,0.14242172241210938,-0.5674896240234375
170,6784742.0,9.30654525756836,-1.4664926528930664,2.5738449096679688,0.03941535949707031,0.0,0.0,-0.20055770874023438,-0.7857418060302734,0.14242172241210938,-0.5674896240234375
171,6784763.0,9.38675308227539,-1.4664926528930664,2.650461196899414,0.04793834686279297,-0.041545867919921875,0.01597881317138672,-0.20055770874023438,-0.7857418060302734,0.14242172241210938,-0.5674896240234375
172,6784783.0,9.244294166564941,-1.6879634857177734,2.594196319580078,-0.010652542114257812,-0.005326271057128906,0.012783050537109375,-0.20055770874023438,-0.7857418060302734,0.14242172241210938,-0.5674896240234375
173,6784803.0,9.213168144226074,-1.3431873321533203,2.689967155456543,0.05646038055419922,-0.014913558959960938,0.00852203369140625,-0.20055770874023438,-0.7857418060302734,0.14242172241210938,-0.5674896240234375
174,6784823.0,9.313728332519531,-1.4904356002807617,2.7330636978149414,0.0021305084228515625,-0.024501800537109375,0.0063915252685546875,-0.20055770874023438,-0.7857418060302734,0.14242172241210938,-0.5674896240234375
175,6784842.0,9.222745895385742,-1.5874032974243164,2.6720104217529297,-0.052199363708496094,-0.0063915252685546875,0.009587287902832031,-0.20055770874023438,-0.7857418060302734,0.14242172241210938,-0.5674896240234375
176,6784863.0,9.268237113952637,-1.5239553451538086,2.682784080505371,-0.02769756317138672,-0.012783050537109375,0.005326271057128906,-0.20055770874023438,-0.7857418060302734,0.14242172241210938,-0.5674896240234375
177,6784883.0,9.232322692871094,-1.5395183563232422,2.747429847717285,-0.010652542114257812,-0.0063915252685546875,0.0010652542114257812,-0.20055770874023438,-0.7857418060302734,0.14242172241210938,-0.5674896240234375
178,6784903.0,9.253870964050293,-1.5694465637207031,2.747429847717285,-0.007456779479980469,-0.0063915252685546875,0.0031957626342773438,-0.20055770874023438,-0.7857418060302734,0.14242172241210938,-0.5674896240234375
179,6784923.0,9.26464557647705,-1.4952239990234375,2.749823570251465,0.005326271057128906,-0.007456779479980469,0.004261016845703125,-0.20055770874023438,-0.7857418060302734,0.14242172241210938,-0.5674896240234375
180,6784942.0,9.274222373962402,-1.544306755065918,2.7019386291503906,-0.010652542114257812,-0.004261016845703125,0.0,-0.20055770874023438,-0.7857418060302734,0.14242172241210938,-0.5674896240234375
181,6785062.0,9.194014549255371,-1.2917108535766602,2.749823570251465,0.1779041290283203,-0.0063915252685546875,0.0063915252685546875,-0.20055770874023438,-0.7857418060302734,0.14242172241210938,-0.5674896240234375
182,6785082.0,9.251477241516113,-1.4868440628051758,2.630110740661621,0.023435592651367188,-0.01597881317138672,-0.013848304748535156,-0.20055770874023438,-0.7857418060302734,0.14242172241210938,-0.5674896240234375
183,6785102.0,9.225139617919922,-1.426987648010254,2.563070297241211,0.005326271057128906,-0.0063915252685546875,-0.01597881317138672,-0.20055770874023438,-0.7857418060302734,0.14242172241210938,-0.5674896240234375
184,6785122.0,9.329291343688965,-1.7705659866333008,2.7055301666259766,-0.011717796325683594,-0.0021305084228515625,-0.014913558959960938,-0.20055770874023438,-0.7857418060302734,0.14242172241210938,-0.5674896240234375
185,6785142.0,9.14493179321289,-1.5658550262451172,2.6732072830200195,0.024501800537109375,0.019174575805664062,0.022370338439941406,-0.20055770874023438,-0.7857418060302734,0.14242172241210938,-0.5674896240234375
186,6785262.0,9.457385063171387,-2.0746383666992188,2.8228492736816406,0.3100013732910156,0.0745706558227539,0.031958580017089844,-0.1859264373779297,-0.7900571823120117,0.1300792694091797,-0.569432258605957
187,6785281.0,9.119791984558105,-1.5886011123657227,2.3942737579345703,0.322784423828125,0.11505126953125,0.1097249984741211,-0.1859264373779297,-0.7900571823120117,0.1300792694091797,-0.569432258605957
188,6785301.0,9.194014549255371,-0.457305908203125,2.443356513977051,0.6040229797363281,0.07883167266845703,-0.04474163055419922,-0.1859264373779297,-0.7900571823120117,0.1300792694091797,-0.569432258605957
189,6785321.0,9.259857177734375,-2.096186637878418,3.678802490234375,0.5656719207763672,0.07670116424560547,-0.0010652542114257812,-0.1859264373779297,-0.7900571823120117,0.1300792694091797,-0.569432258605957
190,6785341.0,9.04556941986084,-1.2869224548339844,2.9569292068481445,0.6381120681762695,0.07883167266845703,0.03941535949707031,-0.1859264373779297,-0.7900571823120117,0.1300792694091797,-0.569432258605957
191,6785460.0,9.008458137512207,-0.7254648208618164,0.9792575836181641,0.6381120681762695,0.07883167266845703,0.03941535949707031,-0.15079593658447266,-0.8003721237182617,0.09783935546875,-0.571934700012207
192,6785460.0,9.008458137512207,-0.7254648208618164,0.9792575836181641,0.6381120681762695,0.07883167266845703,0.03941535949707031,-0.15079593658447266,-0.8003721237182617,0.09783935546875,-0.571934700012207
193,6785480.0,9.201197624206543,-2.0602731704711914,0.5123739242553711,0.6381120681762695,0.07883167266845703,0.03941535949707031,-0.15079593658447266,-0.8003721237182617,0.09783935546875,-0.571934700012207
194,6785480.0,9.201197624206543,-2.0602731704711914,0.5123739242553711,0.6381120681762695,0.07883167266845703,0.03941535949707031,-0.15079593658447266,-0.8003721237182617,0.09783935546875,-0.571934700012207
195,6785499.0,9.482524871826172,-1.8675336837768555,2.997631072998047,0.6381120681762695,0.07883167266845703,0.03941535949707031,-0.15079593658447266,-0.8003721237182617,0.09783935546875,-0.571934700012207
196,6785499.0,9.482524871826172,-1.8675336837768555,2.997631072998047,0.6381120681762695,0.07883167266845703,0.03941535949707031,-0.15079593658447266,-0.8003721237182617,0.09783935546875,-0.571934700012207
197,6785519.0,9.628575325012207,-1.1480541229248047,4.0020294189453125,0.6381120681762695,0.07883167266845703,0.03941535949707031,-0.15079593658447266,-0.8003721237182617,0.09783935546875,-0.571934700012207
198,6785519.0,9.628575325012207,-1.1480541229248047,4.0020294189453125,0.6381120681762695,0.07883167266845703,0.03941535949707031,-0.15079593658447266,-0.8003721237182617,0.09783935546875,-0.571934700012207
199,6785539.0,6.006037712097168,8.423057556152344,-22.02852439880371,0.6381120681762695,0.07883167266845703,0.03941535949707031,-0.15079593658447266,-0.8003721237182617,0.09783935546875,-0.571934700012207
200,6785539.0,6.006037712097168,8.423057556152344,-22.02852439880371,0.6381120681762695,0.07883167266845703,0.03941535949707031,-0.15079593658447266,-0.8003721237182617,0.09783935546875,-0.571934700012207
201,6785660.0,10.970565795898438,-0.7422246932983398,3.1388940811157227,1.1654348373413086,-0.34941673278808594,-0.11824703216552734,-0.15079593658447266,-0.8003721237182617,0.09783935546875,-0.571934700012207
202,6785680.0,10.303760528564453,0.34836673736572266,4.057098388671875,1.1654348373413086,-0.34941673278808594,-0.11824703216552734,-0.15079593658447266,-0.8003721237182617,0.09783935546875,-0.571934700012207
203,6785700.0,8.916278839111328,1.1528425216674805,3.77457332611084,1.1654348373413086,-0.34941673278808594,-0.11824703216552734,-0.15079593658447266,-0.8003721237182617,0.09783935546875,-0.571934700012207
204,6785719.0,8.948601722717285,-0.1867532730102539,2.7617950439453125,1.1654348373413086,-0.34941673278808594,-0.11824703216552734,-0.15079593658447266,-0.8003721237182617,0.09783935546875,-0.571934700012207
205,6785739.0,9.548367500305176,-1.3671302795410156,2.8348207473754883,1.1654348373413086,-0.34941673278808594,-0.11824703216552734,-0.15079593658447266,-0.8003721237182617,0.09783935546875,-0.571934700012207
206,6785760.0,9.504073143005371,-1.5538835525512695,3.158047676086426,-1.3028573989868164,-0.10120296478271484,-0.27378082275390625,-0.15079593658447266,-0.8003721237182617,0.09783935546875,-0.571934700012207
207,6785760.0,9.504073143005371,-1.5538835525512695,3.158047676086426,-1.3028573989868164,-0.10120296478271484,-0.27378082275390625,-0.15079593658447266,-0.8003721237182617,0.09783935546875,-0.571934700012207
208,6785780.0,9.267040252685547,-1.6137409210205078,2.6085615158081055,-1.3614492416381836,-0.18323040008544922,-0.2716503143310547,-0.15079593658447266,-0.8003721237182617,0.09783935546875,-0.571934700012207
209,6785780.0,9.267040252685547,-1.6137409210205078,2.6085615158081055,-1.3614492416381836,-0.18323040008544922,-0.2716503143310547,-0.15079593658447266,-0.8003721237182617,0.09783935546875,-0.571934700012207
210,6785800.0,8.788185119628906,-1.4617042541503906,2.0794267654418945,-1.2250909805297852,-0.14061832427978516,-0.2535400390625,-0.15079593658447266,-0.8003721237182617,0.09783935546875,-0.571934700012207
211,6785800.0,8.788185119628906,-1.4617042541503906,2.0794267654418945,-1.2250909805297852,-0.14061832427978516,-0.2535400390625,-0.15079593658447266,-0.8003721237182617,0.09783935546875,-0.571934700012207
212,6785819.0,8.790578842163086,-1.3276252746582031,1.737046241760254,-0.991790771484375,-0.12996578216552734,-0.23969173431396484,-0.15079593658447266,-0.8003721237182617,0.09783935546875,-0.571934700012207
213,6785819.0,8.790578842163086,-1.3276252746582031,1.737046241760254,-0.991790771484375,-0.12996578216552734,-0.23969173431396484,-0.15079593658447266,-0.8003721237182617,0.09783935546875,-0.571934700012207
214,6785839.0,9.050357818603516,-1.417409896850586,1.357553482055664,-0.7094869613647461,-0.09374523162841797,-0.19175338745117188,-0.15079593658447266,-0.8003721237182617,0.09783935546875,-0.571934700012207
215,6785839.0,9.050357818603516,-1.417409896850586,1.357553482055664,-0.7094869613647461,-0.09374523162841797,-0.19175338745117188,-0.15079593658447266,-0.8003721237182617,0.09783935546875,-0.571934700012207
216,6785959.0,9.257462501525879,-1.0582685470581055,2.8276376724243164,-0.18216514587402344,-0.045806884765625,0.07563591003417969,-0.15079593658447266,-0.8003721237182617,0.09783935546875,-0.571934700012207
217,6785979.0,9.250279426574707,-1.0403118133544922,3.0754451751708984,-0.10865974426269531,-0.06498241424560547,0.09587669372558594,-0.15079593658447266,-0.8003721237182617,0.09783935546875,-0.571934700012207
218,6785999.0,9.26464557647705,-1.0403118133544922,3.1364994049072266,-0.04474163055419922,-0.07137489318847656,0.0916147232055664,-0.15079593658447266,-0.8003721237182617,0.09783935546875,-0.571934700012207
219,6786019.0,9.317319869995117,-1.0702400207519531,3.2238903045654297,-0.004261016845703125,-0.07670116424560547,0.07244014739990234,-0.15079593658447266,-0.8003721237182617,0.09783935546875,-0.571934700012207
220,6786038.0,9.344853401184082,-0.8667268753051758,3.2023420333862305,-0.011717796325683594,-0.0745706558227539,0.034089088439941406,-0.15079593658447266,-0.8003721237182617,0.09783935546875,-0.571934700012207
221,6786058.0,9.326896667480469,-0.8367986679077148,3.026362419128418,-0.011717796325683594,-0.0745706558227539,0.034089088439941406,-0.15079593658447266,-0.8003721237182617,0.09783935546875,-0.571934700012207
222,6786058.0,9.326896667480469,-0.8367986679077148,3.026362419128418,-0.011717796325683594,-0.0745706558227539,0.034089088439941406,-0.15079593658447266,-0.8003721237182617,0.09783935546875,-0.571934700012207
223,6786078.0,9.301756858825684,-1.0462980270385742,2.9533376693725586,-0.011717796325683594,-0.0745706558227539,0.034089088439941406,-0.15079593658447266,-0.8003721237182617,0.09783935546875,-0.571934700012207
224,6786078.0,9.301756858825684,-1.0462980270385742,2.9533376693725586,-0.011717796325683594,-0.0745706558227539,0.034089088439941406,-0.15079593658447266,-0.8003721237182617,0.09783935546875,-0.571934700012207
225,6786098.0,9.314925193786621,-1.1109428405761719,2.9186201095581055,-0.011717796325683594,-0.0745706558227539,0.034089088439941406,-0.15079593658447266,-0.8003721237182617,0.09783935546875,-0.571934700012207
226,6786098.0,9.314925193786621,-1.1109428405761719,2.9186201095581055,-0.011717796325683594,-0.0745706558227539,0.034089088439941406,-0.15079593658447266,-0.8003721237182617,0.09783935546875,-0.571934700012207
227,6786118.0,9.367599487304688,-1.1408710479736328,2.9784774780273438,-0.011717796325683594,-0.0745706558227539,0.034089088439941406,-0.15079593658447266,-0.8003721237182617,0.09783935546875,-0.571934700012207
228,6786118.0,9.367599487304688,-1.1408710479736328,2.9784774780273438,-0.011717796325683594,-0.0745706558227539,0.034089088439941406,-0.15079593658447266,-0.8003721237182617,0.09783935546875,-0.571934700012207
229,6786137.0,9.379570960998535,-1.1205196380615234,2.967702865600586,-0.011717796325683594,-0.0745706558227539,0.034089088439941406,-0.15079593658447266,-0.8003721237182617,0.09783935546875,-0.571934700012207
230,6786137.0,9.379570960998535,-1.1205196380615234,2.967702865600586,-0.011717796325683594,-0.0745706558227539,0.034089088439941406,-0.15079593658447266,-0.8003721237182617,0.09783935546875,-0.571934700012207
231,6786158.0,9.371191024780273,-1.0858030319213867,2.989251136779785,0.024501800537109375,-0.05965614318847656,0.022370338439941406,-0.15079593658447266,-0.8003721237182617,0.09783935546875,-0.571934700012207
232,6786178.0,9.373584747314453,-1.0211572647094727,2.9760828018188477,0.004261016845703125,-0.053264617919921875,0.02769756317138672,-0.15079593658447266,-0.8003721237182617,0.09783935546875,-0.571934700012207
233,6786198.0,9.308939933776855,-1.054677963256836,2.9150285720825195,-0.05859088897705078,-0.04687213897705078,0.0287628173828125,-0.15079593658447266,-0.8003721237182617,0.09783935546875,-0.571934700012207
234,6786218.0,9.249082565307617,-1.143265724182129,2.84320068359375,-0.10226821899414062,-0.04367637634277344,0.023435592651367188,-0.15079593658447266,-0.8003721237182617,0.09783935546875,-0.571934700012207
235,6786238.0,9.23711109161377,-1.2390365600585938,2.8958749771118164,-0.11185550689697266,-0.04900360107421875,0.021305084228515625,-0.15079593658447266,-0.8003721237182617,0.09783935546875,-0.571934700012207
236,6786258.0,9.296968460083008,-1.1791801452636719,2.84200382232666,-0.09054946899414062,-0.04474163055419922,0.012783050537109375,-0.15079593658447266,-0.8003721237182617,0.09783935546875,-0.571934700012207
237,6786278.0,9.30774211883545,-1.0905914306640625,2.820455551147461,-0.057525634765625,-0.04474163055419922,0.009587287902832031,-0.15079593658447266,-0.8003721237182617,0.09783935546875,-0.571934700012207
238,6786298.0,9.274222373962402,-1.1193227767944336,2.7653865814208984,-0.0628519058227539,-0.04367637634277344,0.012783050537109375,-0.15079593658447266,-0.8003721237182617,0.09783935546875,-0.571934700012207
239,6786318.0,9.247885704040527,-1.2031221389770508,2.8084840774536133,-0.054329872131347656,-0.03621959686279297,0.013848304748535156,-0.15079593658447266,-0.8003721237182617,0.09783935546875,-0.571934700012207
240,6786338.0,9.313728332519531,-1.2126998901367188,2.850383758544922,-0.030893325805664062,-0.04367637634277344,0.013848304748535156,-0.15079593658447266,-0.8003721237182617,0.09783935546875,-0.571934700012207
241,6786357.0,9.37597942352295,-1.079817771911621,2.8659467697143555,-0.030893325805664062,-0.04367637634277344,0.013848304748535156,-0.15079593658447266,-0.8003721237182617,0.09783935546875,-0.571934700012207
242,6786377.0,9.274222373962402,-1.012777328491211,2.816864013671875,-0.030893325805664062,-0.04367637634277344,0.013848304748535156,-0.15079593658447266,-0.8003721237182617,0.09783935546875,-0.571934700012207
243,6786397.0,9.249082565307617,-1.0630578994750977,2.8001041412353516,-0.030893325805664062,-0.04367637634277344,0.013848304748535156,-0.15079593658447266,-0.8003721237182617,0.09783935546875,-0.571934700012207
244,6786417.0,9.280208587646484,-1.143265724182129,2.7677812576293945,-0.030893325805664062,-0.04367637634277344,0.013848304748535156,-0.15079593658447266,-0.8003721237182617,0.09783935546875,-0.571934700012207
245,6786437.0,9.295770645141602,-1.1492509841918945,2.7989063262939453,-0.030893325805664062,-0.04367637634277344,0.013848304748535156,-0.15079593658447266,-0.8003721237182617,0.09783935546875,-0.571934700012207
246,6786457.0,9.299362182617188,-1.0594663619995117,2.752218246459961,-0.030893325805664062,-0.04367637634277344,0.013848304748535156,-0.15079593658447266,-0.8003721237182617,0.09783935546875,-0.571934700012207
247,6786457.0,9.299362182617188,-1.0594663619995117,2.752218246459961,-0.030893325805664062,-0.04367637634277344,0.013848304748535156,-0.15079593658447266,-0.8003721237182617,0.09783935546875,-0.571934700012207
248,6786476.0,9.420273780822754,-1.103759765625,2.72109317779541,-0.030893325805664062,-0.04367637634277344,0.013848304748535156,-0.15079593658447266,-0.8003721237182617,0.09783935546875,-0.571934700012207
249,6786476.0,9.420273780822754,-1.103759765625,2.72109317779541,-0.030893325805664062,-0.04367637634277344,0.013848304748535156,-0.15079593658447266,-0.8003721237182617,0.09783935546875,-0.571934700012207
250,6786496.0,9.368796348571777,-1.1743907928466797,2.7282752990722656,-0.030893325805664062,-0.04367637634277344,0.013848304748535156,-0.15079593658447266,-0.8003721237182617,0.09783935546875,-0.571934700012207
251,6786496.0,9.368796348571777,-1.1743907928466797,2.7282752990722656,-0.030893325805664062,-0.04367637634277344,0.013848304748535156,-0.15079593658447266,-0.8003721237182617,0.09783935546875,-0.571934700012207
252,6786516.0,9.296968460083008,-1.2031221389770508,2.753415107727051,-0.030893325805664062,-0.04367637634277344,0.013848304748535156,-0.15079593658447266,-0.8003721237182617,0.09783935546875,-0.571934700012207
253,6786516.0,9.296968460083008,-1.2031221389770508,2.753415107727051,-0.030893325805664062,-0.04367637634277344,0.013848304748535156,-0.15079593658447266,-0.8003721237182617,0.09783935546875,-0.571934700012207
254,6786536.0,9.325699806213379,-1.145660400390625,2.7677812576293945,-0.030893325805664062,-0.04367637634277344,0.013848304748535156,-0.15079593658447266,-0.8003721237182617,0.09783935546875,-0.571934700012207
255,6786536.0,9.325699806213379,-1.145660400390625,2.7677812576293945,-0.030893325805664062,-0.04367637634277344,0.013848304748535156,-0.15079593658447266,-0.8003721237182617,0.09783935546875,-0.571934700012207
256,6786657.0,9.30774211883545,-1.1600255966186523,2.72109317779541,0.004261016845703125,-0.009587287902832031,0.010652542114257812,-0.1524362564086914,-0.7960996627807617,0.11462783813476562,-0.5743522644042969
257,6786676.0,9.269433975219727,-1.2091083526611328,2.685178756713867,0.004261016845703125,-0.009587287902832031,0.010652542114257812,-0.1529541015625,-0.7960128784179688,0.11462783813476562,-0.5743522644042969
258,6786696.0,9.323305130004883,-1.2725563049316406,2.719895362854004,0.004261016845703125,-0.009587287902832031,0.010652542114257812,-0.15338516235351562,-0.7959270477294922,0.11454200744628906,-0.5743522644042969
259,6786716.0,9.323305130004883,-1.2545995712280273,2.689967155456543,0.004261016845703125,-0.009587287902832031,0.010652542114257812,-0.15355777740478516,-0.7958841323852539,0.11423969268798828,-0.5744380950927734
260,6786736.0,9.342459678649902,-1.145660400390625,2.7079238891601562,0.004261016845703125,-0.009587287902832031,0.010652542114257812,-0.15364456176757812,-0.7958402633666992,0.11385154724121094,-0.5745248794555664
261,6786756.0,9.373584747314453,-1.1791801452636719,2.711515426635742,0.004261016845703125,-0.009587287902832031,0.010652542114257812,-0.15364456176757812,-0.7958402633666992,0.11385154724121094,-0.5745248794555664
262,6786776.0,9.269433975219727,-1.1492509841918945,2.7043323516845703,0.004261016845703125,-0.009587287902832031,0.010652542114257812,-0.15364456176757812,-0.7958402633666992,0.11385154724121094,-0.5745248794555664
263,6786795.0,9.269433975219727,-1.230656623840332,2.711515426635742,0.004261016845703125,-0.009587287902832031,0.010652542114257812,-0.15364456176757812,-0.7958402633666992,0.11385154724121094,-0.5745248794555664
264,6786815.0,9.324501991271973,-1.230656623840332,2.7031354904174805,0.004261016845703125,-0.009587287902832031,0.010652542114257812,-0.15364456176757812,-0.7958402633666992,0.11385154724121094,-0.5745248794555664
265,6786835.0,9.337671279907227,-1.1217174530029297,2.6959524154663086,0.004261016845703125,-0.009587287902832031,0.010652542114257812,-0.15364456176757812,-0.7958402633666992,0.11385154724121094,-0.5745248794555664
266,6786856.0,9.331685066223145,-1.1229143142700195,2.6720104217529297,0.0,-0.0063915252685546875,0.014913558959960938,-0.15364456176757812,-0.7958402633666992,0.11385154724121094,-0.5745248794555664
267,6786856.0,9.331685066223145,-1.1229143142700195,2.6720104217529297,0.0,-0.0063915252685546875,0.014913558959960938,-0.15364456176757812,-0.7958402633666992,0.11385154724121094,-0.5745248794555664
268,6786876.0,9.314925193786621,-1.1863622665405273,2.6959524154663086,-0.024501800537109375,-0.0063915252685546875,0.007456779479980469,-0.15364456176757812,-0.7958402633666992,0.11385154724121094,-0.5745248794555664
269,6786876.0,9.314925193786621,-1.1863622665405273,2.6959524154663086,-0.024501800537109375,-0.0063915252685546875,0.007456779479980469,-0.15364456176757812,-0.7958402633666992,0.11385154724121094,-0.5745248794555664
270,6786895.0,9.323305130004883,-1.2294597625732422,2.691164016723633,-0.022370338439941406,-0.004261016845703125,-0.0010652542114257812,-0.15364456176757812,-0.7958402633666992,0.11385154724121094,-0.5745248794555664
271,6786895.0,9.323305130004883,-1.2294597625732422,2.691164016723633,-0.022370338439941406,-0.004261016845703125,-0.0010652542114257812,-0.15364456176757812,-0.7958402633666992,0.11385154724121094,-0.5745248794555664
272,6786915.0,9.390344619750977,-1.1971368789672852,2.667222023010254,-0.0031957626342773438,-0.012783050537109375,0.0,-0.15364456176757812,-0.7958402633666992,0.11385154724121094,-0.5745248794555664
273,6786915.0,9.390344619750977,-1.1971368789672852,2.667222023010254,-0.0031957626342773438,-0.012783050537109375,0.0,-0.15364456176757812,-0.7958402633666992,0.11385154724121094,-0.5745248794555664
274,6786935.0,9.37597942352295,-1.204319953918457,2.6995439529418945,0.00852203369140625,-0.013848304748535156,0.00852203369140625,-0.15364456176757812,-0.7958402633666992,0.11385154724121094,-0.5745248794555664
275,6786935.0,9.37597942352295,-1.204319953918457,2.6995439529418945,0.00852203369140625,-0.013848304748535156,0.00852203369140625,-0.15364456176757812,-0.7958402633666992,0.11385154724121094,-0.5745248794555664
276,6787055.0,9.300559997558594,-1.145660400390625,2.6552505493164062,0.01597881317138672,-0.01810932159423828,0.0170440673828125,-0.15364456176757812,-0.7958402633666992,0.11385154724121094,-0.5745248794555664
277,6787075.0,9.296968460083008,-1.145660400390625,2.6708126068115234,0.013848304748535156,-0.012783050537109375,0.00852203369140625,-0.15364456176757812,-0.7958402633666992,0.11385154724121094,-0.5745248794555664
278,6787095.0,9.323305130004883,-1.1672086715698242,2.6983470916748047,0.011717796325683594,-0.014913558959960938,0.005326271057128906,-0.15364456176757812,-0.7958402633666992,0.11385154724121094,-0.5745248794555664
279,6787114.0,9.35443115234375,-1.1779823303222656,2.6684188842773438,0.0,-0.01810932159423828,0.0,-0.15364456176757812,-0.7958402633666992,0.11385154724121094,-0.5745248794555664
280,6787134.0,9.302953720092773,-1.198333740234375,2.6756019592285156,0.0021305084228515625,-0.014913558959960938,-0.00852203369140625,-0.15364456176757812,-0.7958402633666992,0.11385154724121094,-0.5745248794555664
281,6787154.0,9.275420188903809,-1.1911516189575195,2.6732072830200195,0.0021305084228515625,-0.014913558959960938,-0.00852203369140625,-0.15364456176757812,-0.7958402633666992,0.11385154724121094,-0.5745248794555664
282,6787154.0,9.275420188903809,-1.1911516189575195,2.6732072830200195,0.0021305084228515625,-0.014913558959960938,-0.00852203369140625,-0.15364456176757812,-0.7958402633666992,0.11385154724121094,-0.5745248794555664
283,6787174.0,9.245491027832031,-1.1564340591430664,2.65285587310791,0.0021305084228515625,-0.014913558959960938,-0.00852203369140625,-0.15364456176757812,-0.7958402633666992,0.11385154724121094,-0.5745248794555664
284,6787174.0,9.245491027832031,-1.1564340591430664,2.65285587310791,0.0021305084228515625,-0.014913558959960938,-0.00852203369140625,-0.15364456176757812,-0.7958402633666992,0.11385154724121094,-0.5745248794555664
285,6787194.0,9.399922370910645,-1.2103052139282227,2.6432790756225586,0.0021305084228515625,-0.014913558959960938,-0.00852203369140625,-0.15364456176757812,-0.7958402633666992,0.11385154724121094,-0.5745248794555664
286,6787194.0,9.399922370910645,-1.2103052139282227,2.6432790756225586,0.0021305084228515625,-0.014913558959960938,-0.00852203369140625,-0.15364456176757812,-0.7958402633666992,0.11385154724121094,-0.5745248794555664
287,6787214.0,9.411893844604492,-1.2557964324951172,2.661235809326172,0.0021305084228515625,-0.014913558959960938,-0.00852203369140625,-0.15364456176757812,-0.7958402633666992,0.11385154724121094,-0.5745248794555664
288,6787214.0,9.411893844604492,-1.2557964324951172,2.661235809326172,0.0021305084228515625,-0.014913558959960938,-0.00852203369140625,-0.15364456176757812,-0.7958402633666992,0.11385154724121094,-0.5745248794555664
289,6787233.0,9.316122055053711,-1.289316177368164,2.715106964111328,0.0021305084228515625,-0.014913558959960938,-0.00852203369140625,-0.15364456176757812,-0.7958402633666992,0.11385154724121094,-0.5745248794555664
290,6787233.0,9.316122055053711,-1.289316177368164,2.715106964111328,0.0021305084228515625,-0.014913558959960938,-0.00852203369140625,-0.15364456176757812,-0.7958402633666992,0.11385154724121094,-0.5745248794555664
291,6787453.0,9.369993209838867,-1.2294597625732422,2.6516590118408203,-0.007456779479980469,0.0010652542114257812,0.020239830017089844,-0.15450763702392578,-0.7930784225463867,0.1106576919555664,-0.5786676406860352
292,6787453.0,9.369993209838867,-1.2294597625732422,2.6516590118408203,-0.007456779479980469,0.0010652542114257812,0.020239830017089844,-0.15450763702392578,-0.7930784225463867,0.1106576919555664,-0.5786676406860352
293,6787473.0,9.331685066223145,-1.1492509841918945,2.6815872192382812,-0.007456779479980469,0.0010652542114257812,0.020239830017089844,-0.15450763702392578,-0.7930784225463867,0.1106576919555664,-0.5786676406860352
294,6787473.0,9.331685066223145,-1.1492509841918945,2.6815872192382812,-0.007456779479980469,0.0010652542114257812,0.020239830017089844,-0.15450763702392578,-0.7930784225463867,0.1106576919555664,-0.5786676406860352
295,6787493.0,9.269433975219727,-1.2174882888793945,2.682784080505371,-0.007456779479980469,0.0010652542114257812,0.020239830017089844,-0.15450763702392578,-0.7930784225463867,0.1106576919555664,-0.5786676406860352
296,6787493.0,9.269433975219727,-1.2174882888793945,2.682784080505371,-0.007456779479980469,0.0010652542114257812,0.020239830017089844,-0.15450763702392578,-0.7930784225463867,0.1106576919555664,-0.5786676406860352
297,6787513.0,9.241899490356445,-1.2845277786254883,2.6109561920166016,-0.007456779479980469,0.0010652542114257812,0.020239830017089844,-0.15450763702392578,-0.7930784225463867,0.1106576919555664,-0.5786676406860352
298,6787513.0,9.241899490356445,-1.2845277786254883,2.6109561920166016,-0.007456779479980469,0.0010652542114257812,0.020239830017089844,-0.15450763702392578,-0.7930784225463867,0.1106576919555664,-0.5786676406860352
299,6787533.0,9.304150581359863,-1.1875600814819336,2.6444759368896484,-0.007456779479980469,0.0010652542114257812,0.020239830017089844,-0.15450763702392578,-0.7930784225463867,0.1106576919555664,-0.5786676406860352
300,6787533.0,9.304150581359863,-1.1875600814819336,2.6444759368896484,-0.007456779479980469,0.0010652542114257812,0.020239830017089844,-0.15450763702392578,-0.7930784225463867,0.1106576919555664,-0.5786676406860352
301,6787553.0,9.271828651428223,-1.2318534851074219,2.682784080505371,0.014913558959960938,0.005326271057128906,0.010652542114257812,-0.15450763702392578,-0.7930784225463867,0.1106576919555664,-0.5786676406860352
302,6787553.0,9.271828651428223,-1.2318534851074219,2.682784080505371,0.014913558959960938,0.005326271057128906,0.010652542114257812,-0.15450763702392578,-0.7930784225463867,0.1106576919555664,-0.5786676406860352
303,6787573.0,9.257462501525879,-1.2510080337524414,2.667222023010254,0.004261016845703125,0.009587287902832031,0.012783050537109375,-0.15450763702392578,-0.7930784225463867,0.1106576919555664,-0.5786676406860352
304,6787573.0,9.257462501525879,-1.2510080337524414,2.667222023010254,0.004261016845703125,0.009587287902832031,0.012783050537109375,-0.15450763702392578,-0.7930784225463867,0.1106576919555664,-0.5786676406860352
305,6787593.0,9.359219551086426,-1.2510080337524414,2.679192543029785,0.005326271057128906,0.0,0.01810932159423828,-0.15450763702392578,-0.7930784225463867,0.1106576919555664,-0.5786676406860352
306,6787593.0,9.359219551086426,-1.2510080337524414,2.679192543029785,0.005326271057128906,0.0,0.01810932159423828,-0.15450763702392578,-0.7930784225463867,0.1106576919555664,-0.5786676406860352
307,6787613.0,9.408302307128906,-1.2450227737426758,2.660038948059082,0.011717796325683594,0.004261016845703125,0.024501800537109375,-0.15450763702392578,-0.7930784225463867,0.1106576919555664,-0.5786676406860352
308,6787613.0,9.408302307128906,-1.2450227737426758,2.660038948059082,0.011717796325683594,0.004261016845703125,0.024501800537109375,-0.15450763702392578,-0.7930784225463867,0.1106576919555664,-0.5786676406860352
309,6787633.0,9.384359359741211,-1.262979507446289,2.7079238891601562,0.007456779479980469,0.009587287902832031,0.03515434265136719,-0.15450763702392578,-0.7930784225463867,0.1106576919555664,-0.5786676406860352
310,6787633.0,9.384359359741211,-1.262979507446289,2.7079238891601562,0.007456779479980469,0.009587287902832031,0.03515434265136719,-0.15450763702392578,-0.7930784225463867,0.1106576919555664,-0.5786676406860352
311,6787762.0,9.28619384765625,-1.2534027099609375,2.6468706130981445,0.007456779479980469,0.009587287902832031,0.03515434265136719,-0.1559743881225586,-0.793208122253418,0.10836982727050781,-0.5785818099975586
312,6787782.0,9.328093528747559,-1.2438249588012695,2.6696157455444336,0.007456779479980469,0.009587287902832031,0.03515434265136719,-0.1559743881225586,-0.793208122253418,0.10836982727050781,-0.5785818099975586
313,6787802.0,9.352036476135254,-1.266571044921875,2.6516590118408203,0.007456779479980469,0.009587287902832031,0.03515434265136719,-0.1559743881225586,-0.793208122253418,0.10836982727050781,-0.5785818099975586
314,6787822.0,9.310136795043945,-1.1971368789672852,2.667222023010254,0.007456779479980469,0.009587287902832031,0.03515434265136719,-0.1559743881225586,-0.793208122253418,0.10836982727050781,-0.5785818099975586
315,6787842.0,9.279010772705078,-1.1815738677978516,2.6420812606811523,0.012783050537109375,0.0,0.00852203369140625,-0.15545654296875,-0.7933378219604492,0.1078958511352539,-0.5786676406860352
316,6787861.0,9.219154357910156,-1.194742202758789,2.656447410583496,0.0021305084228515625,0.004261016845703125,0.004261016845703125,-0.15545654296875,-0.7933378219604492,0.1078958511352539,-0.5786676406860352
317,6787881.0,9.239505767822266,-1.1995315551757812,2.597787857055664,-0.0021305084228515625,-0.007456779479980469,0.0,-0.1555004119873047,-0.7932939529418945,0.10785198211669922,-0.5787105560302734
318,6787901.0,9.378373146057129,-1.2426280975341797,2.6217308044433594,0.0,-0.011717796325683594,-0.0031957626342773438,-0.1555004119873047,-0.793208122253418,0.10785198211669922,-0.5787973403930664
319,6787921.0,9.310136795043945,-1.2234735488891602,2.6432790756225586,0.0170440673828125,-0.007456779479980469,-0.005326271057128906,-0.15541362762451172,-0.7932510375976562,0.10780906677246094,-0.5787973403930664
320,6787942.0,9.317319869995117,-1.256993293762207,2.6432790756225586,0.0170440673828125,-0.007456779479980469,-0.005326271057128906,-0.15541362762451172,-0.7932510375976562,0.10780906677246094,-0.5787973403930664
321,6787962.0,9.325699806213379,-1.1851654052734375,2.6696157455444336,0.0170440673828125,-0.007456779479980469,-0.005326271057128906,-0.15541362762451172,-0.7932510375976562,0.10780906677246094,-0.5787973403930664
322,6787981.0,9.324501991271973,-1.2234735488891602,2.632504463195801,0.0170440673828125,-0.007456779479980469,-0.005326271057128906,-0.15541362762451172,-0.7932510375976562,0.10780906677246094,-0.5787973403930664
323,6788001.0,9.311333656311035,-1.2498111724853516,2.6552505493164062,0.0170440673828125,-0.007456779479980469,-0.005326271057128906,-0.15541362762451172,-0.7932510375976562,0.10780906677246094,-0.5787973403930664
324,6788021.0,9.359219551086426,-1.2797393798828125,2.660038948059082,0.0170440673828125,-0.007456779479980469,-0.005326271057128906,-0.15541362762451172,-0.7932510375976562,0.10780906677246094,-0.5787973403930664
325,6788141.0,9.358022689819336,-1.2474164962768555,2.7079238891601562,0.007456779479980469,-0.014913558959960938,0.0,-0.15541362762451172,-0.7932510375976562,0.10780906677246094,-0.5787973403930664
326,6788141.0,9.358022689819336,-1.2474164962768555,2.7079238891601562,0.007456779479980469,-0.014913558959960938,0.0,-0.15541362762451172,-0.7932510375976562,0.10780906677246094,-0.5787973403930664
327,6788161.0,9.377176284790039,-1.2294597625732422,2.6959524154663086,0.007456779479980469,-0.014913558959960938,0.0,-0.15541362762451172,-0.7932510375976562,0.10780906677246094,-0.5787973403930664
328,6788161.0,9.377176284790039,-1.2294597625732422,2.6959524154663086,0.007456779479980469,-0.014913558959960938,0.0,-0.15541362762451172,-0.7932510375976562,0.10780906677246094,-0.5787973403930664
329,6788180.0,9.342459678649902,-1.260584831237793,2.711515426635742,0.007456779479980469,-0.014913558959960938,0.0,-0.15541362762451172,-0.7932510375976562,0.10780906677246094,-0.5787973403930664
330,6788180.0,9.342459678649902,-1.260584831237793,2.711515426635742,0.007456779479980469,-0.014913558959960938,0.0,-0.15541362762451172,-0.7932510375976562,0.10780906677246094,-0.5787973403930664
331,6788200.0,9.314925193786621,-1.2833309173583984,2.682784080505371,0.007456779479980469,-0.014913558959960938,0.0,-0.15541362762451172,-0.7932510375976562,0.10780906677246094,-0.5787973403930664
332,6788200.0,9.314925193786621,-1.2833309173583984,2.682784080505371,0.007456779479980469,-0.014913558959960938,0.0,-0.15541362762451172,-0.7932510375976562,0.10780906677246094,-0.5787973403930664
333,6788220.0,9.289785385131836,-1.3096675872802734,2.6468706130981445,0.007456779479980469,-0.014913558959960938,0.0,-0.15541362762451172,-0.7932510375976562,0.10780906677246094,-0.5787973403930664
334,6788220.0,9.289785385131836,-1.3096675872802734,2.6468706130981445,0.007456779479980469,-0.014913558959960938,0.0,-0.15541362762451172,-0.7932510375976562,0.10780906677246094,-0.5787973403930664
335,6788241.0,9.312531471252441,-1.2653741836547852,2.65285587310791,-0.0031957626342773438,0.0,0.012783050537109375,-0.15541362762451172,-0.7932510375976562,0.10780906677246094,-0.5787973403930664
336,6788261.0,9.338868141174316,-1.2557964324951172,2.6456727981567383,-0.007456779479980469,0.0,0.007456779479980469,-0.15541362762451172,-0.7932510375976562,0.10780906677246094,-0.5787973403930664
337,6788281.0,9.311333656311035,-1.2282629013061523,2.6468706130981445,-0.019174575805664062,-0.0031957626342773438,0.0,-0.15541362762451172,-0.7932510375976562,0.10780906677246094,-0.5787973403930664
338,6788300.0,9.326896667480469,-1.295302391052246,2.634899139404297,-0.033023834228515625,-0.0063915252685546875,0.0,-0.15541362762451172,-0.7932510375976562,0.10780906677246094,-0.5787973403930664
339,6788320.0,9.332881927490234,-1.3000907897949219,2.624124526977539,-0.020239830017089844,-0.0063915252685546875,-0.0021305084228515625,-0.15541362762451172,-0.7932510375976562,0.10780906677246094,-0.5787973403930664
340,6788440.0,9.33647346496582,-1.2809362411499023,2.6372928619384766,-0.010652542114257812,-0.01810932159423828,0.009587287902832031,-0.15683841705322266,-0.7916107177734375,0.1073770523071289,-0.5807390213012695
341,6788460.0,9.314925193786621,-1.266571044921875,2.6181392669677734,-0.010652542114257812,-0.01597881317138672,0.009587287902832031,-0.15683841705322266,-0.7916107177734375,0.1073770523071289,-0.5807390213012695
342,6788480.0,9.310136795043945,-1.2917108535766602,2.634899139404297,-0.009587287902832031,-0.014913558959960938,0.009587287902832031,-0.15683841705322266,-0.7916107177734375,0.1073770523071289,-0.5807390213012695
343,6788499.0,9.328093528747559,-1.266571044921875,2.6432790756225586,0.0021305084228515625,-0.01597881317138672,0.0063915252685546875,-0.15683841705322266,-0.7916107177734375,0.1073770523071289,-0.5807390213012695
344,6788519.0,9.360416412353516,-1.2534027099609375,2.6696157455444336,0.0010652542114257812,-0.013848304748535156,0.005326271057128906,-0.15683841705322266,-0.7916107177734375,0.1073770523071289,-0.5807390213012695
345,6788540.0,9.360416412353516,-1.2857246398925781,2.658841133117676,0.0010652542114257812,-0.013848304748535156,0.005326271057128906,-0.1572265625,-0.7909641265869141,0.10733413696289062,-0.5814733505249023
346,6788560.0,9.263448715209961,-1.2246713638305664,2.686375617980957,0.0010652542114257812,-0.013848304748535156,0.005326271057128906,-0.1572265625,-0.7909641265869141,0.10733413696289062,-0.5814733505249023
347,6788580.0,9.288588523864746,-1.2881193161010742,2.6097593307495117,0.0010652542114257812,-0.013848304748535156,0.005326271057128906,-0.15739917755126953,-0.7909202575683594,0.1073770523071289,-0.5814733505249023
348,6788600.0,9.451398849487305,-1.3372020721435547,2.628912925720215,0.0010652542114257812,-0.013848304748535156,0.005326271057128906,-0.15752887725830078,-0.7908344268798828,0.1073770523071289,-0.5816020965576172
349,6788619.0,9.361613273620605,-1.2581911087036133,2.657644271850586,0.0010652542114257812,-0.013848304748535156,0.005326271057128906,-0.1574850082397461,-0.7908344268798828,0.1073770523071289,-0.5815591812133789
350,6788639.0,9.324501991271973,-1.2749509811401367,2.622927665710449,0.0010652542114257812,-0.013848304748535156,0.005326271057128906,-0.1574850082397461,-0.7908344268798828,0.1073770523071289,-0.5815591812133789
351,6788659.0,9.295770645141602,-1.2845277786254883,2.624124526977539,0.0010652542114257812,-0.013848304748535156,0.005326271057128906,-0.1574850082397461,-0.7908344268798828,0.1073770523071289,-0.5815591812133789
352,6788679.0,9.301756858825684,-1.295302391052246,2.625321388244629,0.0010652542114257812,-0.013848304748535156,0.005326271057128906,-0.1574850082397461,-0.7908344268798828,0.1073770523071289,-0.5815591812133789
353,6788699.0,9.325699806213379,-1.2917108535766602,2.6660242080688477,0.0010652542114257812,-0.013848304748535156,0.005326271057128906,-0.1574850082397461,-0.7908344268798828,0.1073770523071289,-0.5815591812133789
354,6788718.0,9.38675308227539,-1.3096675872802734,2.6408843994140625,0.0010652542114257812,-0.013848304748535156,0.005326271057128906,-0.1574850082397461,-0.7908344268798828,0.1073770523071289,-0.5815591812133789
355,6788739.0,9.344853401184082,-1.2881193161010742,2.638490676879883,-0.013848304748535156,-0.0021305084228515625,0.0010652542114257812,-0.15761470794677734,-0.7907915115356445,0.1074209213256836,-0.5816020965576172
356,6788759.0,9.33527660369873,-1.3084707260131836,2.596590042114258,-0.01810932159423828,-0.0031957626342773438,0.007456779479980469,-0.1577444076538086,-0.7907915115356445,0.10750675201416016,-0.5815591812133789
357,6788779.0,9.308939933776855,-1.2821340560913086,2.6109561920166016,-0.014913558959960938,0.0021305084228515625,0.007456779479980469,-0.15791702270507812,-0.7907476425170898,0.1076364517211914,-0.5815591812133789
358,6788799.0,9.311333656311035,-1.3036823272705078,2.569056510925293,-0.0170440673828125,-0.0021305084228515625,0.012783050537109375,-0.15808963775634766,-0.7907047271728516,0.10759353637695312,-0.5815591812133789
359,6788818.0,9.346051216125488,-1.2797393798828125,2.591801643371582,-0.0063915252685546875,-0.0031957626342773438,0.005326271057128906,-0.15813255310058594,-0.7907476425170898,0.1076364517211914,-0.5815162658691406
360,6788839.0,9.329291343688965,-1.3192453384399414,2.597787857055664,-0.0063915252685546875,-0.0031957626342773438,0.005326271057128906,-0.15813255310058594,-0.7907476425170898,0.1076364517211914,-0.5815162658691406
361,6788859.0,9.378373146057129,-1.357553482055664,2.5834217071533203,-0.0063915252685546875,-0.0031957626342773438,0.005326271057128906,-0.15813255310058594,-0.7907476425170898,0.1076364517211914,-0.5815162658691406
362,6788879.0,9.35562801361084,-1.3395957946777344,2.5606765747070312,-0.0063915252685546875,-0.0031957626342773438,0.005326271057128906,-0.15813255310058594,-0.7907476425170898,0.1076364517211914,-0.5815162658691406
363,6788899.0,9.329291343688965,-1.3348073959350586,2.5870132446289062,-0.0063915252685546875,-0.0031957626342773438,0.005326271057128906,-0.15813255310058594,-0.7907476425170898,0.1076364517211914,-0.5815162658691406
364,6788919.0,9.328093528747559,-1.355158805847168,2.5774364471435547,-0.0063915252685546875,-0.0031957626342773438,0.005326271057128906,-0.15813255310058594,-0.7907476425170898,0.1076364517211914,-0.5815162658691406
365,6788938.0,9.329291343688965,-1.3527650833129883,2.563070297241211,-0.0063915252685546875,-0.0031957626342773438,0.005326271057128906,-0.15813255310058594,-0.7907476425170898,0.1076364517211914,-0.5815162658691406
366,6788958.0,9.319713592529297,-1.3072738647460938,2.5858163833618164,-0.0063915252685546875,-0.0031957626342773438,0.005326271057128906,-0.15813255310058594,-0.7907476425170898,0.1076364517211914,-0.5815162658691406
367,6788978.0,9.361613273620605,-1.3300189971923828,2.6121530532836914,-0.0063915252685546875,-0.0031957626342773438,0.005326271057128906,-0.15813255310058594,-0.7907476425170898,0.1076364517211914,-0.5815162658691406
368,6788998.0,9.358022689819336,-1.3012876510620117,2.5834217071533203,-0.0063915252685546875,-0.0031957626342773438,0.005326271057128906,-0.15813255310058594,-0.7907476425170898,0.1076364517211914,-0.5815162658691406
369,6789018.0,9.372387886047363,-1.3336105346679688,2.5929994583129883,-0.0063915252685546875,-0.0031957626342773438,0.005326271057128906,-0.15813255310058594,-0.7907476425170898,0.1076364517211914,-0.5815162658691406
370,6789038.0,9.347248077392578,-1.325230598449707,2.5846195220947266,-0.00852203369140625,-0.00852203369140625,0.009587287902832031,-0.15813255310058594,-0.7907476425170898,0.1076364517211914,-0.5815162658691406
371,6789058.0,9.342459678649902,-1.328822135925293,2.6001815795898438,-0.0031957626342773438,-0.013848304748535156,0.010652542114257812,-0.15813255310058594,-0.7907476425170898,0.1076364517211914,-0.5815162658691406
372,6789078.0,9.33407974243164,-1.3156538009643555,2.554690361022949,0.0010652542114257812,-0.011717796325683594,0.012783050537109375,-0.15813255310058594,-0.7907476425170898,0.1076364517211914,-0.5815162658691406
373,6789098.0,9.328093528747559,-1.2976961135864258,2.5894079208374023,0.0021305084228515625,-0.013848304748535156,0.014913558959960938,-0.15813255310058594,-0.7907476425170898,0.1076364517211914,-0.5815162658691406
374,6789118.0,9.323305130004883,-1.3048791885375977,2.6516590118408203,0.005326271057128906,-0.011717796325683594,0.010652542114257812,-0.15813255310058594,-0.7907476425170898,0.1076364517211914,-0.5815162658691406
375,6789138.0,9.340065002441406,-1.2869224548339844,2.60137939453125,0.0021305084228515625,-0.010652542114257812,0.007456779479980469,-0.15813255310058594,-0.7907476425170898,0.1076364517211914,-0.5815162658691406
376,6789138.0,9.340065002441406,-1.2869224548339844,2.60137939453125,0.0021305084228515625,-0.010652542114257812,0.007456779479980469,-0.15813255310058594,-0.7907476425170898,0.1076364517211914,-0.5815162658691406
377,6789158.0,9.37478256225586,-1.2821340560913086,2.6133499145507812,-0.009587287902832031,-0.007456779479980469,0.004261016845703125,-0.15813255310058594,-0.7907476425170898,0.1076364517211914,-0.5815162658691406
378,6789158.0,9.37478256225586,-1.2821340560913086,2.6133499145507812,-0.009587287902832031,-0.007456779479980469,0.004261016845703125,-0.15813255310058594,-0.7907476425170898,0.1076364517211914,-0.5815162658691406
379,6789178.0,9.301756858825684,-1.289316177368164,2.5810279846191406,-0.013848304748535156,-0.004261016845703125,0.0031957626342773438,-0.15813255310058594,-0.7907476425170898,0.1076364517211914,-0.5815162658691406
380,6789178.0,9.301756858825684,-1.289316177368164,2.5810279846191406,-0.013848304748535156,-0.004261016845703125,0.0031957626342773438,-0.15813255310058594,-0.7907476425170898,0.1076364517211914,-0.5815162658691406
381,6789198.0,9.310136795043945,-1.3276252746582031,2.60257625579834,0.0063915252685546875,-0.007456779479980469,0.0010652542114257812,-0.15813255310058594,-0.7907476425170898,0.1076364517211914,-0.5815162658691406
382,6789198.0,9.310136795043945,-1.3276252746582031,2.60257625579834,0.0063915252685546875,-0.007456779479980469,0.0010652542114257812,-0.15813255310058594,-0.7907476425170898,0.1076364517211914,-0.5815162658691406
383,6789218.0,9.372387886047363,-1.3168506622314453,2.590604782104492,0.01810932159423828,-0.009587287902832031,-0.0010652542114257812,-0.15813255310058594,-0.7907476425170898,0.1076364517211914,-0.5815162658691406
384,6789218.0,9.372387886047363,-1.3168506622314453,2.590604782104492,0.01810932159423828,-0.009587287902832031,-0.0010652542114257812,-0.15813255310058594,-0.7907476425170898,0.1076364517211914,-0.5815162658691406
385,6789338.0,9.316122055053711,-1.3036823272705078,2.616941452026367,0.05539512634277344,-0.00852203369140625,-0.005326271057128906,-0.15813255310058594,-0.7907476425170898,0.1076364517211914,-0.5815162658691406
386,6789348.0,9.352036476135254,-1.260584831237793,2.6001815795898438,0.05539512634277344,-0.00852203369140625,-0.005326271057128906,-0.15813255310058594,-0.7907476425170898,0.1076364517211914,-0.5815162658691406
387,6789357.0,9.358022689819336,-1.2414312362670898,2.60257625579834,0.02982807159423828,-0.00852203369140625,-0.00852203369140625,-0.15813255310058594,-0.7907476425170898,0.1076364517211914,-0.5815162658691406
388,6789367.0,9.348444938659668,-1.270162582397461,2.60257625579834,0.02982807159423828,-0.00852203369140625,-0.00852203369140625,-0.15813255310058594,-0.7907476425170898,0.1076364517211914,-0.5815162658691406
389,6789377.0,9.319713592529297,-1.2785425186157227,2.6097593307495117,-0.01597881317138672,0.0010652542114257812,-0.005326271057128906,-0.15813255310058594,-0.7907476425170898,0.1076364517211914,-0.5815162658691406
390,6789387.0,9.324501991271973,-1.3407936096191406,2.596590042114258,-0.01597881317138672,0.0010652542114257812,-0.005326271057128906,-0.15813255310058594,-0.7907476425170898,0.1076364517211914,-0.5815162658691406
391,6789397.0,9.33527660369873,-1.4102277755737305,2.595393180847168,-0.023435592651367188,0.0010652542114257812,0.0,-0.15813255310058594,-0.7907476425170898,0.1076364517211914,-0.5815162658691406
392,6789407.0,9.372387886047363,-1.4090299606323242,2.565464973449707,-0.023435592651367188,0.0010652542114257812,0.0,-0.15813255310058594,-0.7907476425170898,0.1076364517211914,-0.5815162658691406
393,6789417.0,9.378373146057129,-1.3707218170166016,2.5774364471435547,0.007456779479980469,-0.0021305084228515625,0.004261016845703125,-0.15813255310058594,-0.7907476425170898,0.1076364517211914,-0.5815162658691406
394,6789427.0,9.35562801361084,-1.328822135925293,2.5558881759643555,0.007456779479980469,-0.0021305084228515625,0.004261016845703125,-0.15813255310058594,-0.7907476425170898,0.1076364517211914,-0.5815162658691406
395,6789437.0,9.362811088562012,-1.3120622634887695,2.6085615158081055,0.020239830017089844,0.0,0.010652542114257812,-0.15813255310058594,-0.7907476425170898,0.1076364517211914,-0.5815162658691406
396,6789447.0,9.361613273620605,-1.3120622634887695,2.6001815795898438,0.020239830017089844,0.0,0.010652542114257812,-0.15813255310058594,-0.7907476425170898,0.1076364517211914,-0.5815162658691406
397,6789456.0,9.342459678649902,-1.3012876510620117,2.595393180847168,0.0021305084228515625,0.0,0.01597881317138672,-0.15813255310058594,-0.7907476425170898,0.1076364517211914,-0.5815162658691406
398,6789466.0,9.348444938659668,-1.289316177368164,2.5929994583129883,0.0021305084228515625,0.0,0.01597881317138672,-0.15813255310058594,-0.7907476425170898,0.1076364517211914,-0.5815162658691406
399,6789486.0,9.30654525756836,-1.3108654022216797,2.5774364471435547,-0.021305084228515625,0.0063915252685546875,0.01597881317138672,-0.15813255310058594,-0.7907476425170898,0.1076364517211914,-0.5815162658691406
400,6789506.0,9.323305130004883,-1.3060760498046875,2.528353691101074,-0.025567054748535156,0.005326271057128906,0.01597881317138672,-0.15813255310058594,-0.7907476425170898,0.1076364517211914,-0.5815162658691406
401,6789526.0,9.318516731262207,-1.322835922241211,2.6001815795898438,-0.010652542114257812,0.005326271057128906,0.010652542114257812,-0.15813255310058594,-0.7907476425170898,0.1076364517211914,-0.5815162658691406
402,6789657.0,9.316122055053711,-1.3360052108764648,2.5510988235473633,0.022370338439941406,-0.011717796325683594,-0.0031957626342773438,-0.15813255310058594,-0.7907476425170898,0.1076364517211914,-0.5815162658691406
403,6789667.0,9.342459678649902,-1.3240337371826172,2.564268112182617,0.022370338439941406,-0.011717796325683594,-0.0031957626342773438,-0.15813255310058594,-0.7907476425170898,0.1076364517211914,-0.5815162658691406
404,6789676.0,9.378373146057129,-1.3132591247558594,2.5810279846191406,0.025567054748535156,-0.00852203369140625,-0.0010652542114257812,-0.15813255310058594,-0.7907476425170898,0.1076364517211914,-0.5815162658691406
405,6789686.0,9.373584747314453,-1.3132591247558594,2.591801643371582,0.025567054748535156,-0.00852203369140625,-0.0010652542114257812,-0.15813255310058594,-0.7907476425170898,0.1076364517211914,-0.5815162658691406
406,6789696.0,9.350839614868164,-1.2785425186157227,2.5846195220947266,0.010652542114257812,-0.00852203369140625,-0.0063915252685546875,-0.15813255310058594,-0.7907476425170898,0.1076364517211914,-0.5815162658691406
407,6789706.0,9.344853401184082,-1.3156538009643555,2.5870132446289062,0.010652542114257812,-0.00852203369140625,-0.0063915252685546875,-0.15813255310058594,-0.7907476425170898,0.1076364517211914,-0.5815162658691406
408,6789716.0,9.340065002441406,-1.3312158584594727,2.558281898498535,-0.0031957626342773438,-0.010652542114257812,-0.007456779479980469,-0.15813255310058594,-0.7907476425170898,0.1076364517211914,-0.5815162658691406
409,6789726.0,9.338868141174316,-1.3264274597167969,2.5834217071533203,-0.0031957626342773438,-0.010652542114257812,-0.007456779479980469,-0.15813255310058594,-0.7907476425170898,0.1076364517211914,-0.5815162658691406
410,6789736.0,9.341261863708496,-1.3372020721435547,2.5822248458862305,-0.010652542114257812,-0.009587287902832031,-0.014913558959960938,-0.15813255310058594,-0.7907476425170898,0.1076364517211914,-0.5815162658691406
411,6789746.0,9.359219551086426,-1.3826932907104492,2.5714502334594727,-0.010652542114257812,-0.009587287902832031,-0.014913558959960938,-0.15813255310058594,-0.7907476425170898,0.1076364517211914,-0.5815162658691406
412,6789756.0,9.368796348571777,-1.3731164932250977,2.5738449096679688,-0.0010652542114257812,-0.009587287902832031,-0.010652542114257812,-0.15813255310058594,-0.7907476425170898,0.1076364517211914,-0.5815162658691406
413,6789875.0,9.338868141174316,-1.3012876510620117,2.649264335632324,-0.014913558959960938,0.00852203369140625,0.011717796325683594,-0.15813255310058594,-0.7907476425170898,0.1076364517211914,-0.5815162658691406
414,6789875.0,9.338868141174316,-1.3012876510620117,2.649264335632324,-0.014913558959960938,0.00852203369140625,0.011717796325683594,-0.15813255310058594,-0.7907476425170898,0.1076364517211914,-0.5815162658691406
415,6789894.0,9.350839614868164,-1.3120622634887695,2.5810279846191406,-0.007456779479980469,0.004261016845703125,0.0010652542114257812,-0.15813255310058594,-0.7907476425170898,0.1076364517211914,-0.5815162658691406
416,6789894.0,9.350839614868164,-1.3120622634887695,2.5810279846191406,-0.007456779479980469,0.004261016845703125,0.0010652542114257812,-0.15813255310058594,-0.7907476425170898,0.1076364517211914,-0.5815162658691406
417,6789914.0,9.346051216125488,-1.511983871459961,2.5522966384887695,-0.01810932159423828,0.004261016845703125,0.0170440673828125,-0.15813255310058594,-0.7907476425170898,0.1076364517211914,-0.5815162658691406
418,6789914.0,9.346051216125488,-1.511983871459961,2.5522966384887695,-0.01810932159423828,0.004261016845703125,0.0170440673828125,-0.15813255310058594,-0.7907476425170898,0.1076364517211914,-0.5815162658691406
419,6789934.0,9.35682487487793,-1.3491735458374023,2.5487051010131836,0.0170440673828125,0.005326271057128906,0.0,-0.15813255310058594,-0.7907476425170898,0.1076364517211914,-0.5815162658691406
420,6789934.0,9.35682487487793,-1.3491735458374023,2.5487051010131836,0.0170440673828125,0.005326271057128906,0.0,-0.15813255310058594,-0.7907476425170898,0.1076364517211914,-0.5815162658691406
421,6789954.0,9.330488204956055,-1.2797393798828125,2.5570850372314453,0.01597881317138672,0.007456779479980469,0.010652542114257812,-0.15813255310058594,-0.7907476425170898,0.1076364517211914,-0.5815162658691406
422,6789954.0,9.330488204956055,-1.2797393798828125,2.5570850372314453,0.01597881317138672,0.007456779479980469,0.010652542114257812,-0.15813255310058594,-0.7907476425170898,0.1076364517211914,-0.5815162658691406
423,6789975.0,9.311333656311035,-1.2833309173583984,2.5738449096679688,0.005326271057128906,0.007456779479980469,0.00852203369140625,-0.15813255310058594,-0.7907476425170898,0.1076364517211914,-0.5815162658691406
424,6789994.0,9.23471736907959,-1.3048791885375977,2.5247621536254883,-0.0031957626342773438,0.00852203369140625,0.009587287902832031,-0.15813255310058594,-0.7907476425170898,0.1076364517211914,-0.5815162658691406
425,6790014.0,9.422667503356934,-1.3659334182739258,2.4888477325439453,0.0063915252685546875,-0.0063915252685546875,0.0063915252685546875,-0.15813255310058594,-0.7907476425170898,0.1076364517211914,-0.5815162658691406
426,6790034.0,9.419075965881348,-1.3096675872802734,2.5151853561401367,0.04367637634277344,-0.0010652542114257812,-0.0010652542114257812,-0.15813255310058594,-0.7907476425170898,0.1076364517211914,-0.5815162658691406
427,6790054.0,9.344853401184082,-1.2941045761108398,2.5510988235473633,0.042611122131347656,-0.0063915252685546875,-0.007456779479980469,-0.15813255310058594,-0.7907476425170898,0.1076364517211914,-0.5815162658691406
428,6790174.0,9.310136795043945,-1.3276252746582031,2.688770294189453,0.042611122131347656,-0.0063915252685546875,-0.007456779479980469,-0.158477783203125,-0.7897987365722656,0.10444259643554688,-0.5832424163818359
429,6790194.0,9.245491027832031,-1.332413673400879,2.2769546508789062,0.042611122131347656,-0.0063915252685546875,-0.007456779479980469,-0.158477783203125,-0.7897987365722656,0.10444259643554688,-0.5832424163818359
430,6790213.0,9.328093528747559,-1.6245145797729492,2.6085615158081055,0.042611122131347656,-0.0063915252685546875,-0.007456779479980469,-0.158477783203125,-0.7897987365722656,0.10444259643554688,-0.5832424163818359
431,6790233.0,9.322108268737793,-1.4545211791992188,2.626519203186035,0.042611122131347656,-0.0063915252685546875,-0.007456779479980469,-0.158477783203125,-0.7897987365722656,0.10444259643554688,-0.5832424163818359
432,6790253.0,9.238308906555176,-1.325230598449707,2.838412284851074,0.042611122131347656,-0.0063915252685546875,-0.007456779479980469,-0.158477783203125,-0.7897987365722656,0.10444259643554688,-0.5832424163818359
433,6790373.0,9.410696029663086,-1.733454704284668,2.576239585876465,-0.009587287902832031,-0.033023834228515625,0.013848304748535156,-0.1547231674194336,-0.7896261215209961,0.09840011596679688,-0.5855302810668945
434,6790393.0,9.30654525756836,-1.3922700881958008,2.4517364501953125,-0.009587287902832031,-0.033023834228515625,0.013848304748535156,-0.1547231674194336,-0.7896261215209961,0.09840011596679688,-0.5855302810668945
435,6790413.0,9.324501991271973,-1.5036039352416992,2.5487051010131836,-0.009587287902832031,-0.033023834228515625,0.013848304748535156,-0.1547231674194336,-0.7896261215209961,0.09840011596679688,-0.5855302810668945
436,6790432.0,9.288588523864746,-1.5909948348999023,2.504410743713379,-0.009587287902832031,-0.033023834228515625,0.013848304748535156,-0.1547231674194336,-0.7896261215209961,0.09840011596679688,-0.5855302810668945
437,6790452.0,9.359219551086426,-1.1731939315795898,2.565464973449707,-0.009587287902832031,-0.033023834228515625,0.013848304748535156,-0.1547231674194336,-0.7896261215209961,0.09840011596679688,-0.5855302810668945
438,6790473.0,9.320911407470703,-1.045100212097168,2.349980354309082,0.13422679901123047,0.007456779479980469,0.0031957626342773438,-0.1547231674194336,-0.7896261215209961,0.09840011596679688,-0.5855302810668945
439,6790493.0,9.332881927490234,-1.5000123977661133,2.588210105895996,0.08841896057128906,-0.0010652542114257812,0.025567054748535156,-0.1547231674194336,-0.7896261215209961,0.09840011596679688,-0.5855302810668945
440,6790513.0,9.316122055053711,-1.3958616256713867,2.3020944595336914,0.04687213897705078,-0.0021305084228515625,0.013848304748535156,-0.1547231674194336,-0.7896261215209961,0.09840011596679688,-0.5855302810668945
441,6790532.0,9.347248077392578,-1.175588607788086,2.6049699783325195,0.1661853790283203,0.03941535949707031,-0.0021305084228515625,-0.1547231674194336,-0.7896261215209961,0.09840011596679688,-0.5855302810668945
442,6790552.0,9.392739295959473,-1.4006500244140625,2.628912925720215,0.20453643798828125,0.030893325805664062,0.05859088897705078,-0.1547231674194336,-0.7896261215209961,0.09840011596679688,-0.5855302810668945
443,6790672.0,9.21436595916748,-1.2126998901367188,3.15325927734375,0.42931461334228516,0.02769756317138672,0.10546398162841797,-0.13392066955566406,-0.7949342727661133,0.07401657104492188,-0.5870838165283203
444,6790692.0,9.156903266906738,-1.2713594436645508,1.8555622100830078,0.42931461334228516,0.02769756317138672,0.10546398162841797,-0.13465499877929688,-0.794891357421875,0.07276439666748047,-0.5871267318725586
445,6790712.0,9.434638977050781,-1.8340139389038086,2.34279727935791,0.42931461334228516,0.02769756317138672,0.10546398162841797,-0.13474082946777344,-0.7944164276123047,0.0711679458618164,-0.5879039764404297
446,6790732.0,9.232322692871094,-1.1887569427490234,2.376317024230957,0.42931461334228516,0.02769756317138672,0.10546398162841797,-0.1340503692626953,-0.7943735122680664,0.06905269622802734,-0.5884218215942383
447,6790751.0,9.40351390838623,-1.2222766876220703,3.6081714630126953,0.42931461334228516,0.02769756317138672,0.10546398162841797,-0.1318063735961914,-0.7947616577148438,0.06607532501220703,-0.5887670516967773
448,6790772.0,9.26464557647705,-0.6919450759887695,2.316460609436035,-0.040480613708496094,-0.06391716003417969,0.14061832427978516,-0.13098621368408203,-0.7949342727661133,0.06348514556884766,-0.5889825820922852
449,6790792.0,9.326896667480469,-1.6161346435546875,1.9728822708129883,-0.15446758270263672,-0.09907245635986328,0.17044734954833984,-0.1325397491455078,-0.794459342956543,0.06275177001953125,-0.5893278121948242
450,6790812.0,9.02521800994873,-0.799687385559082,-0.4022378921508789,0.0,-0.14168357849121094,0.11931324005126953,-0.1348705291748047,-0.7937259674072266,0.062191009521484375,-0.5898456573486328
451,6790832.0,9.368796348571777,-2.687572479248047,1.5969810485839844,0.599761962890625,-0.12037849426269531,0.1448802947998047,-0.13439559936523438,-0.7931652069091797,0.06016254425048828,-0.5909252166748047
452,6790852.0,10.020039558410645,-0.3387889862060547,3.996044158935547,0.7233362197875977,-0.05539512634277344,0.024501800537109375,-0.12969112396240234,-0.7934665679931641,0.054940223693847656,-0.5920896530151367
453,6790971.0,10.09665584564209,-1.8124656677246094,4.641301155090332,-3.6678171157836914,0.37817955017089844,0.7979068756103516,-0.12969112396240234,-0.7934665679931641,0.054940223693847656,-0.5920896530151367
454,6790991.0,5.736681938171387,-1.9214048385620117,1.3264274597167969,-1.1867399215698242,0.052199363708496094,0.07776641845703125,-0.12969112396240234,-0.7934665679931641,0.054940223693847656,-0.5920896530151367
455,6791011.0,8.463760375976562,-3.0491085052490234,1.9261932373046875,1.237874984741211,-0.37178802490234375,-0.0692434310913086,-0.12969112396240234,-0.7934665679931641,0.054940223693847656,-0.5920896530151367
456,6791031.0,9.968562126159668,-1.7442283630371094,2.9258031845092773,2.861387252807617,-0.1672515869140625,-0.0745706558227539,-0.12969112396240234,-0.7934665679931641,0.054940223693847656,-0.5920896530151367
457,6791051.0,9.511256217956543,1.357553482055664,4.0116071701049805,2.4778804779052734,0.045806884765625,-0.5262565612792969,-0.12969112396240234,-0.7934665679931641,0.054940223693847656,-0.5920896530151367
458,6791072.0,9.109017372131348,0.6608190536499023,3.657254219055176,0.3792448043823242,0.041545867919921875,-0.3685922622680664,-0.12969112396240234,-0.7934665679931641,0.054940223693847656,-0.5920896530151367
459,6791072.0,9.109017372131348,0.6608190536499023,3.657254219055176,0.3792448043823242,0.041545867919921875,-0.3685922622680664,-0.12969112396240234,-0.7934665679931641,0.054940223693847656,-0.5920896530151367
460,6791091.0,9.165283203125,-1.1312942504882812,1.854365348815918,-0.8916530609130859,-0.052199363708496094,-0.4570121765136719,-0.12969112396240234,-0.7934665679931641,0.054940223693847656,-0.5920896530151367
461,6791091.0,9.165283203125,-1.1312942504882812,1.854365348815918,-0.8916530609130859,-0.052199363708496094,-0.4570121765136719,-0.12969112396240234,-0.7934665679931641,0.054940223693847656,-0.5920896530151367
462,6791111.0,9.447807312011719,-1.9381647109985352,1.729863166809082,-1.0461206436157227,-0.1661853790283203,-0.45914268493652344,-0.12969112396240234,-0.7934665679931641,0.054940223693847656,-0.5920896530151367
463,6791111.0,9.447807312011719,-1.9381647109985352,1.729863166809082,-1.0461206436157227,-0.1661853790283203,-0.45914268493652344,-0.12969112396240234,-0.7934665679931641,0.054940223693847656,-0.5920896530151367
464,6791131.0,9.66808032989502,-2.2937145233154297,1.8112688064575195,-0.726531982421875,-0.19814491271972656,-0.4900360107421875,-0.12969112396240234,-0.7934665679931641,0.054940223693847656,-0.5920896530151367
465,6791131.0,9.66808032989502,-2.2937145233154297,1.8112688064575195,-0.726531982421875,-0.19814491271972656,-0.4900360107421875,-0.12969112396240234,-0.7934665679931641,0.054940223693847656,-0.5920896530151367
466,6791151.0,9.678854942321777,-2.3368120193481445,1.6903572082519531,-0.39415931701660156,-0.18216514587402344,-0.40055084228515625,-0.12969112396240234,-0.7934665679931641,0.054940223693847656,-0.5920896530151367
467,6791151.0,9.678854942321777,-2.3368120193481445,1.6903572082519531,-0.39415931701660156,-0.18216514587402344,-0.40055084228515625,-0.12969112396240234,-0.7934665679931641,0.054940223693847656,-0.5920896530151367
468,6791171.0,9.337671279907227,-1.9836559295654297,1.576629638671875,-0.39415931701660156,-0.18216514587402344,-0.40055084228515625,-0.12969112396240234,-0.7934665679931641,0.054940223693847656,-0.5920896530151367
469,6791190.0,9.158100128173828,-1.2545995712280273,1.4413528442382812,-0.39415931701660156,-0.18216514587402344,-0.40055084228515625,-0.12969112396240234,-0.7934665679931641,0.054940223693847656,-0.5920896530151367
470,6791210.0,9.19640827178955,-1.2761478424072266,1.0343265533447266,-0.39415931701660156,-0.18216514587402344,-0.40055084228515625,-0.12969112396240234,-0.7934665679931641,0.054940223693847656,-0.5920896530151367
471,6791230.0,9.189226150512695,-1.5610666275024414,0.8798952102661133,-0.39415931701660156,-0.18216514587402344,-0.40055084228515625,-0.12969112396240234,-0.7934665679931641,0.054940223693847656,-0.5920896530151367
472,6791250.0,9.28380012512207,-1.5886011123657227,1.2737541198730469,-0.39415931701660156,-0.18216514587402344,-0.40055084228515625,-0.12969112396240234,-0.7934665679931641,0.054940223693847656,-0.5920896530151367
473,6791271.0,9.513649940490723,-1.485647201538086,2.0518932342529297,-0.39415931701660156,-0.18216514587402344,-0.40055084228515625,-0.12969112396240234,-0.7934665679931641,0.054940223693847656,-0.5920896530151367
474,6791291.0,9.585478782653809,-1.3467788696289062,2.460116386413574,-0.39415931701660156,-0.18216514587402344,-0.40055084228515625,-0.12969112396240234,-0.7934665679931641,0.054940223693847656,-0.5920896530151367
475,6791310.0,9.511256217956543,-1.328822135925293,2.540325164794922,-0.39415931701660156,-0.18216514587402344,-0.40055084228515625,-0.12969112396240234,-0.7934665679931641,0.054940223693847656,-0.5920896530151367
476,6791330.0,9.429850578308105,-1.4186077117919922,2.4768762588500977,-0.39415931701660156,-0.18216514587402344,-0.40055084228515625,-0.12969112396240234,-0.7934665679931641,0.054940223693847656,-0.5920896530151367
477,6791350.0,9.47414493560791,-1.3683271408081055,2.6432790756225586,-0.39415931701660156,-0.18216514587402344,-0.40055084228515625,-0.12969112396240234,-0.7934665679931641,0.054940223693847656,-0.5920896530151367
478,6791370.0,9.470553398132324,-1.2689647674560547,2.747429847717285,0.03621959686279297,-0.08522319793701172,0.07883167266845703,-0.12969112396240234,-0.7934665679931641,0.054940223693847656,-0.5920896530151367
479,6791390.0,9.523226737976074,-1.2210798263549805,2.752218246459961,0.0010652542114257812,-0.07989692687988281,0.06498241424560547,-0.12969112396240234,-0.7934665679931641,0.054940223693847656,-0.5920896530151367
480,6791410.0,9.519636154174805,-1.2390365600585938,2.638490676879883,-0.014913558959960938,-0.07244014739990234,0.04900360107421875,-0.12969112396240234,-0.7934665679931641,0.054940223693847656,-0.5920896530151367
481,6791429.0,9.471750259399414,-1.2150936126708984,2.5271568298339844,-0.011717796325683594,-0.05859088897705078,0.041545867919921875,-0.12969112396240234,-0.7934665679931641,0.054940223693847656,-0.5920896530151367
482,6791449.0,9.432244300842285,-1.2426280975341797,2.4840593338012695,0.007456779479980469,-0.04687213897705078,0.041545867919921875,-0.12969112396240234,-0.7934665679931641,0.054940223693847656,-0.5920896530151367
483,6791469.0,9.432244300842285,-1.4054384231567383,2.470890998840332,0.0628519058227539,-0.040480613708496094,0.052199363708496094,-0.12969112396240234,-0.7934665679931641,0.054940223693847656,-0.5920896530151367
484,6791489.0,9.393936157226562,-1.2821340560913086,2.5187768936157227,0.1789693832397461,-0.022370338439941406,0.052199363708496094,-0.12969112396240234,-0.7934665679931641,0.054940223693847656,-0.5920896530151367
485,6791509.0,9.431047439575195,-1.1612224578857422,2.525959014892578,0.24395275115966797,-0.024501800537109375,0.04793834686279297,-0.12969112396240234,-0.7934665679931641,0.054940223693847656,-0.5920896530151367
486,6791528.0,9.499284744262695,-1.1899538040161133,2.5678586959838867,0.2428874969482422,-0.021305084228515625,0.026632308959960938,-0.12969112396240234,-0.7934665679931641,0.054940223693847656,-0.5920896530151367
487,6791548.0,9.45618724822998,-1.2162914276123047,2.60257625579834,0.22264671325683594,-0.007456779479980469,-0.004261016845703125,-0.12969112396240234,-0.7934665679931641,0.054940223693847656,-0.5920896530151367
488,6791668.0,9.40351390838623,-1.2581911087036133,2.431385040283203,0.04687213897705078,0.013848304748535156,-0.03621959686279297,-0.14151668548583984,-0.7899713516235352,0.07526779174804688,-0.5918312072753906
489,6791688.0,9.434638977050781,-1.2593879699707031,2.3942737579345703,0.03941535949707031,0.021305084228515625,-0.033023834228515625,-0.14151668548583984,-0.7899713516235352,0.07526779174804688,-0.5918312072753906
490,6791708.0,9.389147758483887,-1.29290771484375,2.3882884979248047,0.024501800537109375,0.02769756317138672,-0.033023834228515625,-0.14151668548583984,-0.7899713516235352,0.07526779174804688,-0.5918312072753906
491,6791728.0,9.421470642089844,-1.2917108535766602,2.382303237915039,0.0021305084228515625,0.022370338439941406,-0.023435592651367188,-0.14151668548583984,-0.7899713516235352,0.07526779174804688,-0.5918312072753906
492,6791747.0,9.469355583190918,-1.2869224548339844,2.3894853591918945,-0.007456779479980469,0.023435592651367188,-0.022370338439941406,-0.14151668548583984,-0.7899713516235352,0.07526779174804688,-0.5918312072753906
493,6791768.0,9.42745590209961,-1.2941045761108398,2.2997007369995117,-0.007456779479980469,0.023435592651367188,-0.022370338439941406,-0.14151668548583984,-0.7899713516235352,0.07526779174804688,-0.5918312072753906
494,6791788.0,9.42506217956543,-1.3000907897949219,2.281743049621582,-0.007456779479980469,0.023435592651367188,-0.022370338439941406,-0.14151668548583984,-0.7899713516235352,0.07526779174804688,-0.5918312072753906
495,6791808.0,9.368796348571777,-1.2749509811401367,2.339205741882324,-0.007456779479980469,0.023435592651367188,-0.022370338439941406,-0.14151668548583984,-0.7899713516235352,0.07526779174804688,-0.5918312072753906
496,6791828.0,9.364007949829102,-1.2941045761108398,2.316460609436035,-0.007456779479980469,0.023435592651367188,-0.022370338439941406,-0.14151668548583984,-0.7899713516235352,0.07526779174804688,-0.5918312072753906
497,6791847.0,9.372387886047363,-1.2198820114135742,2.322445869445801,-0.007456779479980469,0.023435592651367188,-0.022370338439941406,-0.14151668548583984,-0.7899713516235352,0.07526779174804688,-0.5918312072753906
498,6791868.0,9.35562801361084,-1.1971368789672852,2.2997007369995117,-0.01810932159423828,0.0170440673828125,-0.009587287902832031,-0.14151668548583984,-0.7899713516235352,0.07526779174804688,-0.5918312072753906
499,6791888.0,9.379570960998535,-1.2773447036743164,2.317657470703125,-0.03941535949707031,0.010652542114257812,-0.007456779479980469,-0.14151668548583984,-0.7899713516235352,0.07526779174804688,-0.5918312072753906
500,6791908.0,9.411893844604492,-1.3144559860229492,2.3008975982666016,-0.02769756317138672,0.007456779479980469,-0.007456779479980469,-0.14151668548583984,-0.7899713516235352,0.07526779174804688,-0.5918312072753906
501,6791928.0,9.399922370910645,-1.3360052108764648,2.2745609283447266,-0.004261016845703125,0.004261016845703125,0.0010652542114257812,-0.14151668548583984,-0.7899713516235352,0.07526779174804688,-0.5918312072753906
502,6791948.0,9.422667503356934,-1.2761478424072266,2.2985029220581055,0.012783050537109375,0.0010652542114257812,0.0031957626342773438,-0.14151668548583984,-0.7899713516235352,0.07526779174804688,-0.5918312072753906
503,6792067.0,9.402316093444824,-1.2450227737426758,2.3930768966674805,-0.005326271057128906,-0.011717796325683594,0.013848304748535156,-0.139617919921875,-0.789280891418457,0.07639026641845703,-0.5930395126342773
504,6792087.0,9.389147758483887,-1.2318534851074219,2.3607540130615234,-0.005326271057128906,-0.011717796325683594,0.013848304748535156,-0.13974761962890625,-0.7891511917114258,0.07626056671142578,-0.5931692123413086
505,6792107.0,9.389147758483887,-1.2414312362670898,2.377513885498047,-0.005326271057128906,-0.011717796325683594,0.013848304748535156,-0.1398763656616211,-0.7890644073486328,0.07626056671142578,-0.5932989120483398
506,6792127.0,9.399922370910645,-1.2534027099609375,2.383500099182129,-0.005326271057128906,-0.011717796325683594,0.013848304748535156,-0.1398763656616211,-0.7889785766601562,0.07626056671142578,-0.5933847427368164
507,6792147.0,9.40590763092041,-1.2438249588012695,2.4026546478271484,-0.005326271057128906,-0.011717796325683594,0.013848304748535156,-0.1398763656616211,-0.788848876953125,0.0762176513671875,-0.5935573577880859
508,6792168.0,9.40471076965332,-1.2593879699707031,2.3882884979248047,-0.005326271057128906,-0.011717796325683594,0.013848304748535156,-0.1398763656616211,-0.788848876953125,0.0762176513671875,-0.5935573577880859
509,6792168.0,9.40471076965332,-1.2593879699707031,2.3882884979248047,-0.005326271057128906,-0.011717796325683594,0.013848304748535156,-0.1398763656616211,-0.788848876953125,0.0762176513671875,-0.5935573577880859
510,6792187.0,9.40351390838623,-1.260584831237793,2.401456832885742,-0.005326271057128906,-0.011717796325683594,0.013848304748535156,-0.1398763656616211,-0.788848876953125,0.0762176513671875,-0.5935573577880859
511,6792187.0,9.40351390838623,-1.260584831237793,2.401456832885742,-0.005326271057128906,-0.011717796325683594,0.013848304748535156,-0.1398763656616211,-0.788848876953125,0.0762176513671875,-0.5935573577880859
512,6792207.0,9.413090705871582,-1.2282629013061523,2.3882884979248047,-0.005326271057128906,-0.011717796325683594,0.013848304748535156,-0.1398763656616211,-0.788848876953125,0.0762176513671875,-0.5935573577880859
513,6792207.0,9.413090705871582,-1.2282629013061523,2.3882884979248047,-0.005326271057128906,-0.011717796325683594,0.013848304748535156,-0.1398763656616211,-0.788848876953125,0.0762176513671875,-0.5935573577880859
514,6792227.0,9.332881927490234,-1.2174882888793945,2.376317024230957,-0.005326271057128906,-0.011717796325683594,0.013848304748535156,-0.1398763656616211,-0.788848876953125,0.0762176513671875,-0.5935573577880859
515,6792227.0,9.332881927490234,-1.2174882888793945,2.376317024230957,-0.005326271057128906,-0.011717796325683594,0.013848304748535156,-0.1398763656616211,-0.788848876953125,0.0762176513671875,-0.5935573577880859
516,6792247.0,9.362811088562012,-1.2091083526611328,2.434976577758789,-0.005326271057128906,-0.011717796325683594,0.013848304748535156,-0.1398763656616211,-0.788848876953125,0.0762176513671875,-0.5935573577880859
517,6792247.0,9.362811088562012,-1.2091083526611328,2.434976577758789,-0.005326271057128906,-0.011717796325683594,0.013848304748535156,-0.1398763656616211,-0.788848876953125,0.0762176513671875,-0.5935573577880859
518,6792268.0,9.520833015441895,-1.2198820114135742,2.3954715728759766,0.007456779479980469,-0.021305084228515625,-0.0021305084228515625,-0.1398763656616211,-0.788848876953125,0.0762176513671875,-0.5935573577880859
519,6792287.0,9.484918594360352,-1.2773447036743164,2.4218082427978516,0.011717796325683594,-0.0063915252685546875,-0.011717796325683594,-0.1398763656616211,-0.788848876953125,0.0762176513671875,-0.5935573577880859
520,6792307.0,9.402316093444824,-1.3156538009643555,2.4182167053222656,0.019174575805664062,-0.00852203369140625,-0.007456779479980469,-0.1398763656616211,-0.788848876953125,0.0762176513671875,-0.5935573577880859
521,6792327.0,9.40471076965332,-1.266571044921875,2.4289913177490234,0.024501800537109375,-0.00852203369140625,-0.005326271057128906,-0.1398763656616211,-0.788848876953125,0.0762176513671875,-0.5935573577880859
522,6792347.0,9.42625904083252,-1.2785425186157227,2.437371253967285,0.023435592651367188,-0.0031957626342773438,0.0031957626342773438,-0.1398763656616211,-0.788848876953125,0.0762176513671875,-0.5935573577880859
523,6792456.0,9.35443115234375,-1.2115020751953125,2.3679370880126953,0.023435592651367188,-0.0031957626342773438,0.0031957626342773438,-0.1398763656616211,-0.788848876953125,0.0762176513671875,-0.5935573577880859
524,6792466.0,9.338868141174316,-1.2198820114135742,2.375120162963867,0.023435592651367188,-0.0031957626342773438,0.0031957626342773438,-0.1398763656616211,-0.788848876953125,0.0762176513671875,-0.5935573577880859
525,6792476.0,9.337671279907227,-1.236642837524414,2.339205741882324,0.023435592651367188,-0.0031957626342773438,0.0031957626342773438,-0.1398763656616211,-0.788848876953125,0.0762176513671875,-0.5935573577880859
526,6792486.0,9.379570960998535,-1.2749509811401367,2.34279727935791,0.023435592651367188,-0.0031957626342773438,0.0031957626342773438,-0.1398763656616211,-0.788848876953125,0.0762176513671875,-0.5935573577880859
527,6792495.0,9.395133018493652,-1.2821340560913086,2.328432083129883,0.023435592651367188,-0.0031957626342773438,0.0031957626342773438,-0.1398763656616211,-0.788848876953125,0.0762176513671875,-0.5935573577880859
528,6792505.0,9.38675308227539,-1.2713594436645508,2.3236427307128906,0.023435592651367188,-0.0031957626342773438,0.0031957626342773438,-0.1398763656616211,-0.788848876953125,0.0762176513671875,-0.5935573577880859
529,6792515.0,9.377176284790039,-1.2689647674560547,2.3236427307128906,0.023435592651367188,-0.0031957626342773438,0.0031957626342773438,-0.1398763656616211,-0.788848876953125,0.0762176513671875,-0.5935573577880859
530,6792525.0,9.419075965881348,-1.270162582397461,2.306882858276367,0.023435592651367188,-0.0031957626342773438,0.0031957626342773438,-0.1398763656616211,-0.788848876953125,0.0762176513671875,-0.5935573577880859
531,6792535.0,9.431047439575195,-1.266571044921875,2.3080806732177734,0.023435592651367188,-0.0031957626342773438,0.0031957626342773438,-0.1398763656616211,-0.788848876953125,0.0762176513671875,-0.5935573577880859
532,6792655.0,9.422667503356934,-1.29290771484375,2.316460609436035,-0.009587287902832031,-0.012783050537109375,-0.0021305084228515625,-0.13979053497314453,-0.7878561019897461,0.07349777221679688,-0.5952835083007812
533,6792675.0,9.423864364624023,-1.3336105346679688,2.310474395751953,-0.009587287902832031,-0.012783050537109375,-0.0021305084228515625,-0.1398334503173828,-0.7876834869384766,0.07349777221679688,-0.5954132080078125
534,6792695.0,9.42745590209961,-1.2462196350097656,2.340402603149414,-0.009587287902832031,-0.012783050537109375,-0.0021305084228515625,-0.13979053497314453,-0.7875537872314453,0.0734548568725586,-0.5956287384033203
535,6792714.0,9.439427375793457,-1.2474164962768555,2.354768753051758,-0.009587287902832031,-0.012783050537109375,-0.0021305084228515625,-0.13970375061035156,-0.7874250411987305,0.07332515716552734,-0.5958881378173828
536,6792734.0,9.420273780822754,-1.2976961135864258,2.353571891784668,-0.009587287902832031,-0.012783050537109375,-0.0021305084228515625,-0.13970375061035156,-0.7872953414916992,0.07328224182128906,-0.5960607528686523
537,6792855.0,9.379570960998535,-1.3000907897949219,2.3930768966674805,-0.022370338439941406,-0.005326271057128906,0.007456779479980469,-0.13979053497314453,-0.787165641784668,0.07332515716552734,-0.5962333679199219
538,6792865.0,9.37478256225586,-1.3312158584594727,2.405048370361328,-0.004261016845703125,-0.004261016845703125,0.007456779479980469,-0.13979053497314453,-0.787165641784668,0.07332515716552734,-0.5962333679199219
539,6792875.0,9.37597942352295,-1.3168506622314453,2.406245231628418,-0.004261016845703125,-0.004261016845703125,0.007456779479980469,-0.13979053497314453,-0.787165641784668,0.07332515716552734,-0.5962333679199219
540,6792885.0,9.408302307128906,-1.2749509811401367,2.406245231628418,0.011717796325683594,-0.0031957626342773438,0.005326271057128906,-0.13979053497314453,-0.787165641784668,0.07332515716552734,-0.5962333679199219
541,6792895.0,9.443018913269043,-1.266571044921875,2.41103458404541,0.011717796325683594,-0.0031957626342773438,0.005326271057128906,-0.13979053497314453,-0.787165641784668,0.07332515716552734,-0.5962333679199219
542,6792905.0,9.450201988220215,-1.256993293762207,2.4038515090942383,0.010652542114257812,0.0,0.0,-0.13979053497314453,-0.787165641784668,0.07332515716552734,-0.5962333679199219
543,6792915.0,9.391542434692383,-1.2210798263549805,2.41342830657959,0.010652542114257812,0.0,0.0,-0.13979053497314453,-0.787165641784668,0.07332515716552734,-0.5962333679199219
544,6792924.0,9.362811088562012,-1.2725563049316406,2.417019844055176,-0.004261016845703125,0.0010652542114257812,-0.005326271057128906,-0.13979053497314453,-0.787165641784668,0.07332515716552734,-0.5962333679199219
545,6792934.0,9.353233337402344,-1.3000907897949219,2.41103458404541,-0.004261016845703125,0.0010652542114257812,-0.005326271057128906,-0.13979053497314453,-0.787165641784668,0.07332515716552734,-0.5962333679199219
546,6792944.0,9.35682487487793,-1.3120622634887695,2.401456832885742,-0.004261016845703125,0.0010652542114257812,-0.005326271057128906,-0.13979053497314453,-0.787165641784668,0.07332515716552734,-0.5962333679199219
547,6792964.0,9.377176284790039,-1.3012876510620117,2.387091636657715,-0.004261016845703125,0.0010652542114257812,-0.005326271057128906,-0.13979053497314453,-0.787165641784668,0.07332515716552734,-0.5962333679199219
548,6792984.0,9.33407974243164,-1.236642837524414,2.348782539367676,-0.004261016845703125,0.0010652542114257812,-0.005326271057128906,-0.13979053497314453,-0.787165641784668,0.07332515716552734,-0.5962333679199219
549,6793004.0,9.459778785705566,-1.289316177368164,2.3356142044067383,-0.004261016845703125,0.0010652542114257812,-0.005326271057128906,-0.13979053497314453,-0.787165641784668,0.07332515716552734,-0.5962333679199219
550,6793023.0,9.480130195617676,-1.2881193161010742,2.3332204818725586,-0.004261016845703125,0.0010652542114257812,-0.005326271057128906,-0.13979053497314453,-0.787165641784668,0.07332515716552734,-0.5962333679199219
551,6793043.0,9.402316093444824,-1.3192453384399414,2.3679370880126953,0.023435592651367188,0.0063915252685546875,-0.01810932159423828,-0.13979053497314453,-0.787165641784668,0.07332515716552734,-0.5962333679199219
552,6793063.0,9.446610450744629,-1.3048791885375977,2.349980354309082,0.033023834228515625,0.0,-0.020239830017089844,-0.13979053497314453,-0.787165641784668,0.07332515716552734,-0.5962333679199219
553,6793083.0,9.440624237060547,-1.2905139923095703,2.346388816833496,0.023435592651367188,0.0021305084228515625,-0.0170440673828125,-0.13979053497314453,-0.787165641784668,0.07332515716552734,-0.5962333679199219
554,6793103.0,9.413090705871582,-1.2821340560913086,2.351177215576172,0.0021305084228515625,0.0063915252685546875,-0.007456779479980469,-0.13979053497314453,-0.787165641784668,0.07332515716552734,-0.5962333679199219
555,6793123.0,9.379570960998535,-1.3419904708862305,2.3846969604492188,-0.005326271057128906,0.007456779479980469,0.0031957626342773438,-0.13979053497314453,-0.787165641784668,0.07332515716552734,-0.5962333679199219
556,6793253.0,9.390344619750977,-1.2917108535766602,2.348782539367676,0.0063915252685546875,0.011717796325683594,0.011717796325683594,-0.13819313049316406,-0.7869930267333984,0.07246208190917969,-0.5968809127807617
557,6793273.0,9.445413589477539,-1.3024845123291016,2.3595571517944336,0.0063915252685546875,0.011717796325683594,0.011717796325683594,-0.13819313049316406,-0.7869930267333984,0.07246208190917969,-0.5968809127807617
558,6793293.0,9.429850578308105,-1.2258682250976562,2.376317024230957,0.0063915252685546875,0.011717796325683594,0.011717796325683594,-0.13819313049316406,-0.7869930267333984,0.07246208190917969,-0.5968809127807617
559,6793313.0,9.350839614868164,-1.234248161315918,2.369133949279785,0.0063915252685546875,0.011717796325683594,0.011717796325683594,-0.13819313049316406,-0.7869930267333984,0.07246208190917969,-0.5968809127807617
560,6793333.0,9.352036476135254,-1.3360052108764648,2.3523740768432617,0.0063915252685546875,0.011717796325683594,0.011717796325683594,-0.13819313049316406,-0.7869930267333984,0.07246208190917969,-0.5968809127807617
561,6793352.0,9.379570960998535,-1.2881193161010742,2.349980354309082,0.0063915252685546875,0.011717796325683594,0.011717796325683594,-0.13819313049316406,-0.7869930267333984,0.07246208190917969,-0.5968809127807617
562,6793372.0,9.433442115783691,-1.2450227737426758,2.377513885498047,0.023435592651367188,0.005326271057128906,0.011717796325683594,-0.13819313049316406,-0.7869930267333984,0.07246208190917969,-0.5968809127807617
563,6793392.0,9.411893844604492,-1.260584831237793,2.3846969604492188,0.014913558959960938,0.005326271057128906,0.009587287902832031,-0.13819313049316406,-0.7869930267333984,0.07246208190917969,-0.5968809127807617
564,6793412.0,9.392739295959473,-1.2725563049316406,2.3559656143188477,0.0,0.0063915252685546875,0.007456779479980469,-0.13819313049316406,-0.7869930267333984,0.07246208190917969,-0.5968809127807617
565,6793432.0,9.4071044921875,-1.29290771484375,2.347585678100586,-0.0063915252685546875,0.0021305084228515625,0.0063915252685546875,-0.13819313049316406,-0.7869930267333984,0.07246208190917969,-0.5968809127807617
566,6793452.0,9.428653717041016,-1.2737541198730469,2.372725486755371,0.004261016845703125,0.0,0.005326271057128906,-0.13819313049316406,-0.7869930267333984,0.07246208190917969,-0.5968809127807617
