,timestamp,accel_x,accel_y,accel_z,gyro_x,gyro_y,gyro_z,ori_scalar,ori_x,ori_y,ori_z
0,7687089.0,8.764242172241211,-2.1141443252563477,3.249030113220215,-0.04900360107421875,-0.19281864166259766,-0.05965614318847656,-0.2558860778808594,-0.7807779312133789,0.27176761627197266,-0.5010261535644531
1,7687109.0,9.16767692565918,-2.1476640701293945,3.6249313354492188,-0.0287628173828125,-0.2194509506225586,-0.012783050537109375,-0.2558860778808594,-0.7807779312133789,0.27176761627197266,-0.5010261535644531
2,7687129.0,9.364007949829102,-1.9513330459594727,3.340012550354004,-0.0287628173828125,-0.2194509506225586,-0.012783050537109375,-0.2558860778808594,-0.7807779312133789,0.27176761627197266,-0.5010261535644531
3,7687148.0,9.092257499694824,-1.7454261779785156,3.1963558197021484,-0.0287628173828125,-0.2194509506225586,-0.012783050537109375,-0.2558860778808594,-0.7807779312133789,0.27176761627197266,-0.5010261535644531
4,7687168.0,9.135354995727539,-1.8040857315063477,3.4489526748657227,-0.0287628173828125,-0.2194509506225586,-0.012783050537109375,-0.2558860778808594,-0.7807779312133789,0.27176761627197266,-0.5010261535644531
5,7687188.0,9.402316093444824,-1.7693681716918945,3.565074920654297,-0.0287628173828125,-0.2194509506225586,-0.012783050537109375,-0.2573966979980469,-0.7800874710083008,0.2701272964477539,-0.5021915435791016
6,7687208.0,9.135354995727539,-1.4664926528930664,3.3926868438720703,-0.0287628173828125,-0.2194509506225586,-0.012783050537109375,-0.25843238830566406,-0.7797422409057617,0.26822853088378906,-0.5032272338867188
7,7687228.0,8.861209869384766,-1.5383214950561523,3.3555755615234375,-0.0287628173828125,-0.2194509506225586,-0.012783050537109375,-0.25946807861328125,-0.7793540954589844,0.26671791076660156,-0.5040903091430664
8,7687357.0,9.465764999389648,-1.2438249588012695,3.3244495391845703,0.042611122131347656,-0.11931324005126953,0.009587287902832031,-0.26296424865722656,-0.7768945693969727,0.26123714447021484,-0.508967399597168
9,7687377.0,9.101835250854492,-1.391073226928711,3.3448009490966797,0.042611122131347656,-0.11931324005126953,0.009587287902832031,-0.26296424865722656,-0.7768945693969727,0.26123714447021484,-0.508967399597168
10,7687397.0,9.350839614868164,-1.6161346435546875,3.6440858840942383,0.042611122131347656,-0.11931324005126953,0.009587287902832031,-0.26296424865722656,-0.7768945693969727,0.26123714447021484,-0.508967399597168
11,7687417.0,9.732726097106934,-1.325230598449707,3.305295944213867,0.042611122131347656,-0.11931324005126953,0.009587287902832031,-0.26296424865722656,-0.7768945693969727,0.26123714447021484,-0.508967399597168
12,7687437.0,9.177254676818848,-1.109745979309082,3.037137031555176,0.042611122131347656,-0.11931324005126953,0.009587287902832031,-0.26296424865722656,-0.7768945693969727,0.26123714447021484,-0.508967399597168
13,7687647.0,9.40471076965332,-1.5754318237304688,3.0323486328125,0.07244014739990234,-0.009587287902832031,0.07244014739990234,-0.2578716278076172,-0.7749948501586914,0.2568349838256836,-0.5166492462158203
14,7687666.0,9.282602310180664,-1.5526866912841797,3.0155887603759766,0.07244014739990234,-0.009587287902832031,0.07244014739990234,-0.2578716278076172,-0.7749948501586914,0.2568349838256836,-0.5166492462158203
15,7687686.0,9.380767822265625,-1.5359268188476562,2.996434211730957,0.07244014739990234,-0.009587287902832031,0.07244014739990234,-0.2578716278076172,-0.7749948501586914,0.2568349838256836,-0.5166492462158203
16,7687706.0,9.147326469421387,-1.357553482055664,3.03354549407959,0.07244014739990234,-0.009587287902832031,0.07244014739990234,-0.2578716278076172,-0.7749948501586914,0.2568349838256836,-0.5166492462158203
17,7687726.0,9.021626472473145,-1.417409896850586,3.10178279876709,0.07244014739990234,-0.009587287902832031,0.07244014739990234,-0.2578716278076172,-0.7749948501586914,0.2568349838256836,-0.5166492462158203
18,7687957.0,9.103032112121582,-1.3491735458374023,2.944957733154297,0.07350540161132812,-0.08202743530273438,0.041545867919921875,-0.24690914154052734,-0.7727079391479492,0.2442760467529297,-0.5313234329223633
19,7687976.0,9.4537935256958,-1.3934669494628906,3.035940170288086,0.07350540161132812,-0.08202743530273438,0.041545867919921875,-0.24690914154052734,-0.7727079391479492,0.2442760467529297,-0.5313234329223633
20,7687996.0,9.415484428405762,-1.132491111755371,2.9246063232421875,0.07350540161132812,-0.08202743530273438,0.041545867919921875,-0.24690914154052734,-0.7727079391479492,0.2442760467529297,-0.5313234329223633
21,7688016.0,9.112608909606934,-1.168405532836914,2.8958749771118164,0.07350540161132812,-0.08202743530273438,0.041545867919921875,-0.24690914154052734,-0.7727079391479492,0.2442760467529297,-0.5313234329223633
22,7688036.0,9.105425834655762,-1.2677679061889648,2.916226387023926,0.07350540161132812,-0.08202743530273438,0.041545867919921875,-0.24690914154052734,-0.7727079391479492,0.2442760467529297,-0.5313234329223633
23,7688145.0,9.422667503356934,-1.322835922241211,2.9832658767700195,0.09374523162841797,-0.031958580017089844,-0.012783050537109375,-0.23676681518554688,-0.7727508544921875,0.23810386657714844,-0.5386171340942383
24,7688165.0,9.353233337402344,-1.2474164962768555,2.906648635864258,0.09374523162841797,-0.031958580017089844,-0.012783050537109375,-0.23637866973876953,-0.7729663848876953,0.23702526092529297,-0.5389184951782227
25,7688184.0,9.271828651428223,-1.295302391052246,2.938971519470215,0.09374523162841797,-0.031958580017089844,-0.012783050537109375,-0.23629283905029297,-0.7732686996459961,0.2359466552734375,-0.5390911102294922
26,7688204.0,9.253870964050293,-1.3455820083618164,2.9545345306396484,0.09374523162841797,-0.031958580017089844,-0.012783050537109375,-0.2364654541015625,-0.7735280990600586,0.23482418060302734,-0.5390911102294922
27,7688224.0,9.279010772705078,-1.355158805847168,3.03115177154541,0.09374523162841797,-0.031958580017089844,-0.012783050537109375,-0.2364215850830078,-0.7739591598510742,0.2334432601928711,-0.5390481948852539
28,7688345.0,9.249082565307617,-1.081014633178711,2.8946781158447266,0.023435592651367188,0.0010652542114257812,0.033023834228515625,-0.2346954345703125,-0.7761173248291016,0.22748756408691406,-0.5393075942993164
29,7688365.0,9.192817687988281,-1.1791801452636719,2.9497461318969727,-0.0170440673828125,-0.010652542114257812,0.030893325805664062,-0.2346954345703125,-0.7761173248291016,0.22748756408691406,-0.5393075942993164
30,7688384.0,9.23591423034668,-1.1863622665405273,2.9222116470336914,0.011717796325683594,-0.020239830017089844,0.020239830017089844,-0.2346954345703125,-0.7761173248291016,0.22748756408691406,-0.5393075942993164
31,7688404.0,9.344853401184082,-1.0762262344360352,2.927000045776367,0.06604766845703125,-0.02769756317138672,0.020239830017089844,-0.2346954345703125,-0.7761173248291016,0.22748756408691406,-0.5393075942993164
32,7688424.0,9.314925193786621,-1.0163688659667969,2.9281978607177734,0.06391716003417969,-0.019174575805664062,0.013848304748535156,-0.2346954345703125,-0.7761173248291016,0.22748756408691406,-0.5393075942993164
33,7688575.0,9.449005126953125,-1.2881193161010742,2.8874950408935547,0.06391716003417969,-0.019174575805664062,0.013848304748535156,-0.23206329345703125,-0.7755126953125,0.22541522979736328,-0.5421991348266602
34,7688594.0,9.337671279907227,-1.3802986145019531,2.9210147857666016,0.06391716003417969,-0.019174575805664062,0.013848304748535156,-0.23206329345703125,-0.7755126953125,0.22541522979736328,-0.5421991348266602
35,7688614.0,9.362811088562012,-1.4365644454956055,2.9509429931640625,0.06391716003417969,-0.019174575805664062,0.013848304748535156,-0.23206329345703125,-0.7755126953125,0.22541522979736328,-0.5421991348266602
36,7688634.0,9.47773551940918,-1.325230598449707,2.8348207473754883,0.06391716003417969,-0.019174575805664062,0.013848304748535156,-0.23206329345703125,-0.7755126953125,0.22541522979736328,-0.5421991348266602
37,7688654.0,9.298165321350098,-1.322835922241211,2.879115104675293,0.06391716003417969,-0.019174575805664062,0.013848304748535156,-0.23206329345703125,-0.7755126953125,0.22541522979736328,-0.5421991348266602
38,7688773.0,9.233519554138184,-1.2773447036743164,2.873128890991211,0.014913558959960938,-0.013848304748535156,0.0170440673828125,-0.23206329345703125,-0.7755126953125,0.22541522979736328,-0.5421991348266602
39,7688773.0,9.233519554138184,-1.2773447036743164,2.873128890991211,0.014913558959960938,-0.013848304748535156,0.0170440673828125,-0.23206329345703125,-0.7755126953125,0.22541522979736328,-0.5421991348266602
40,7688773.0,9.233519554138184,-1.2773447036743164,2.873128890991211,0.014913558959960938,-0.013848304748535156,0.0170440673828125,-0.23206329345703125,-0.7755126953125,0.22541522979736328,-0.5421991348266602
41,7688792.0,9.246688842773438,-1.296499252319336,2.9461545944213867,0.022370338439941406,-0.0170440673828125,-0.0021305084228515625,-0.23206329345703125,-0.7755126953125,0.22541522979736328,-0.5421991348266602
42,7688792.0,9.246688842773438,-1.296499252319336,2.9461545944213867,0.022370338439941406,-0.0170440673828125,-0.0021305084228515625,-0.23206329345703125,-0.7755126953125,0.22541522979736328,-0.5421991348266602
43,7688792.0,9.246688842773438,-1.296499252319336,2.9461545944213867,0.022370338439941406,-0.0170440673828125,-0.0021305084228515625,-0.23206329345703125,-0.7755126953125,0.22541522979736328,-0.5421991348266602
44,7688812.0,9.326896667480469,-1.1899538040161133,2.942563056945801,0.04900360107421875,-0.019174575805664062,-0.010652542114257812,-0.23206329345703125,-0.7755126953125,0.22541522979736328,-0.5421991348266602
45,7688812.0,9.326896667480469,-1.1899538040161133,2.942563056945801,0.04900360107421875,-0.019174575805664062,-0.010652542114257812,-0.23206329345703125,-0.7755126953125,0.22541522979736328,-0.5421991348266602
46,7688812.0,9.326896667480469,-1.1899538040161133,2.942563056945801,0.04900360107421875,-0.019174575805664062,-0.010652542114257812,-0.23206329345703125,-0.7755126953125,0.22541522979736328,-0.5421991348266602
47,7688832.0,9.299362182617188,-1.1875600814819336,2.8587636947631836,0.04900360107421875,-0.014913558959960938,-0.014913558959960938,-0.23206329345703125,-0.7755126953125,0.22541522979736328,-0.5421991348266602
48,7688832.0,9.299362182617188,-1.1875600814819336,2.8587636947631836,0.04900360107421875,-0.014913558959960938,-0.014913558959960938,-0.23206329345703125,-0.7755126953125,0.22541522979736328,-0.5421991348266602
49,7688832.0,9.299362182617188,-1.1875600814819336,2.8587636947631836,0.04900360107421875,-0.014913558959960938,-0.014913558959960938,-0.23206329345703125,-0.7755126953125,0.22541522979736328,-0.5421991348266602
50,7688852.0,9.280208587646484,-1.2773447036743164,2.8623552322387695,0.0,-0.00852203369140625,-0.022370338439941406,-0.23206329345703125,-0.7755126953125,0.22541522979736328,-0.5421991348266602
51,7688852.0,9.280208587646484,-1.2773447036743164,2.8623552322387695,0.0,-0.00852203369140625,-0.022370338439941406,-0.23206329345703125,-0.7755126953125,0.22541522979736328,-0.5421991348266602
52,7688852.0,9.280208587646484,-1.2773447036743164,2.8623552322387695,0.0,-0.00852203369140625,-0.022370338439941406,-0.23206329345703125,-0.7755126953125,0.22541522979736328,-0.5421991348266602
53,7688973.0,9.324501991271973,-1.1540403366088867,2.810877799987793,0.0,-0.00852203369140625,-0.022370338439941406,-0.23206329345703125,-0.7755126953125,0.22541522979736328,-0.5421991348266602
54,7688973.0,9.324501991271973,-1.1540403366088867,2.810877799987793,0.0,-0.00852203369140625,-0.022370338439941406,-0.23206329345703125,-0.7755126953125,0.22541522979736328,-0.5421991348266602
55,7688993.0,9.314925193786621,-1.1935453414916992,2.785737991333008,0.0,-0.00852203369140625,-0.022370338439941406,-0.23206329345703125,-0.7755126953125,0.22541522979736328,-0.5421991348266602
56,7688993.0,9.314925193786621,-1.1935453414916992,2.785737991333008,0.0,-0.00852203369140625,-0.022370338439941406,-0.23206329345703125,-0.7755126953125,0.22541522979736328,-0.5421991348266602
57,7689012.0,9.318516731262207,-1.3348073959350586,2.783344268798828,0.0,-0.00852203369140625,-0.022370338439941406,-0.23206329345703125,-0.7755126953125,0.22541522979736328,-0.5421991348266602
58,7689012.0,9.318516731262207,-1.3348073959350586,2.783344268798828,0.0,-0.00852203369140625,-0.022370338439941406,-0.23206329345703125,-0.7755126953125,0.22541522979736328,-0.5421991348266602
59,7689032.0,9.452595710754395,-1.426987648010254,2.783344268798828,0.0,-0.00852203369140625,-0.022370338439941406,-0.23206329345703125,-0.7755126953125,0.22541522979736328,-0.5421991348266602
60,7689032.0,9.452595710754395,-1.426987648010254,2.783344268798828,0.0,-0.00852203369140625,-0.022370338439941406,-0.23206329345703125,-0.7755126953125,0.22541522979736328,-0.5421991348266602
61,7689052.0,9.47414493560791,-1.3204421997070312,2.832426071166992,0.0,-0.00852203369140625,-0.022370338439941406,-0.23206329345703125,-0.7755126953125,0.22541522979736328,-0.5421991348266602
62,7689052.0,9.47414493560791,-1.3204421997070312,2.832426071166992,0.0,-0.00852203369140625,-0.022370338439941406,-0.23206329345703125,-0.7755126953125,0.22541522979736328,-0.5421991348266602
63,7689272.0,9.35443115234375,-1.1552371978759766,2.9533376693725586,-0.033023834228515625,0.019174575805664062,0.042611122131347656,-0.23176097869873047,-0.7755126953125,0.21548938751220703,-0.5462989807128906
64,7689272.0,9.35443115234375,-1.1552371978759766,2.9533376693725586,-0.033023834228515625,0.019174575805664062,0.042611122131347656,-0.23176097869873047,-0.7755126953125,0.21548938751220703,-0.5462989807128906
65,7689292.0,9.33407974243164,-1.1612224578857422,2.8563690185546875,-0.03835010528564453,0.025567054748535156,0.03728485107421875,-0.23176097869873047,-0.7755126953125,0.21548938751220703,-0.5462989807128906
66,7689292.0,9.33407974243164,-1.1612224578857422,2.8563690185546875,-0.03835010528564453,0.025567054748535156,0.03728485107421875,-0.23176097869873047,-0.7755126953125,0.21548938751220703,-0.5462989807128906
67,7689311.0,9.226337432861328,-1.1672086715698242,2.809680938720703,-0.04793834686279297,0.031958580017089844,0.022370338439941406,-0.23176097869873047,-0.7755126953125,0.21548938751220703,-0.5462989807128906
68,7689311.0,9.226337432861328,-1.1672086715698242,2.809680938720703,-0.04793834686279297,0.031958580017089844,0.022370338439941406,-0.23176097869873047,-0.7755126953125,0.21548938751220703,-0.5462989807128906
69,7689331.0,9.292180061340332,-1.295302391052246,2.780949592590332,-0.05113410949707031,0.02769756317138672,0.004261016845703125,-0.23176097869873047,-0.7755126953125,0.21548938751220703,-0.5462989807128906
70,7689331.0,9.292180061340332,-1.295302391052246,2.780949592590332,-0.05113410949707031,0.02769756317138672,0.004261016845703125,-0.23176097869873047,-0.7755126953125,0.21548938751220703,-0.5462989807128906
71,7689351.0,9.368796348571777,-1.322835922241211,2.7689781188964844,-0.012783050537109375,0.013848304748535156,-0.010652542114257812,-0.23176097869873047,-0.7755126953125,0.21548938751220703,-0.5462989807128906
72,7689351.0,9.368796348571777,-1.322835922241211,2.7689781188964844,-0.012783050537109375,0.013848304748535156,-0.010652542114257812,-0.23176097869873047,-0.7755126953125,0.21548938751220703,-0.5462989807128906
73,7689372.0,9.279010772705078,-1.227065086364746,2.77376651763916,-0.012783050537109375,0.013848304748535156,-0.010652542114257812,-0.23176097869873047,-0.7755126953125,0.21548938751220703,-0.5462989807128906
74,7689392.0,9.233519554138184,-1.2055168151855469,2.7641897201538086,-0.012783050537109375,0.013848304748535156,-0.010652542114257812,-0.23176097869873047,-0.7755126953125,0.21548938751220703,-0.5462989807128906
75,7689412.0,9.326896667480469,-1.3060760498046875,2.7605981826782227,-0.012783050537109375,0.013848304748535156,-0.010652542114257812,-0.23176097869873047,-0.7755126953125,0.21548938751220703,-0.5462989807128906
76,7689431.0,9.384359359741211,-1.3419904708862305,2.752218246459961,-0.012783050537109375,0.013848304748535156,-0.010652542114257812,-0.23176097869873047,-0.7755126953125,0.21548938751220703,-0.5462989807128906
77,7689451.0,9.317319869995117,-1.3695249557495117,2.7677812576293945,-0.012783050537109375,0.013848304748535156,-0.010652542114257812,-0.23176097869873047,-0.7755126953125,0.21548938751220703,-0.5462989807128906
78,7689471.0,9.299362182617188,-1.2821340560913086,2.8048925399780273,-0.012783050537109375,0.013848304748535156,-0.010652542114257812,-0.23176097869873047,-0.7755126953125,0.21548938751220703,-0.5462989807128906
79,7689491.0,9.324501991271973,-1.2402334213256836,2.8312292098999023,-0.012783050537109375,0.013848304748535156,-0.010652542114257812,-0.23176097869873047,-0.7755126953125,0.21548938751220703,-0.5462989807128906
80,7689511.0,9.295770645141602,-1.3264274597167969,2.84200382232666,-0.012783050537109375,0.013848304748535156,-0.010652542114257812,-0.23176097869873047,-0.7755126953125,0.21548938751220703,-0.5462989807128906
81,7689530.0,9.360416412353516,-1.3767070770263672,2.898268699645996,-0.012783050537109375,0.013848304748535156,-0.010652542114257812,-0.23176097869873047,-0.7755126953125,0.21548938751220703,-0.5462989807128906
82,7689550.0,9.393936157226562,-1.3348073959350586,2.8970718383789062,-0.012783050537109375,0.013848304748535156,-0.010652542114257812,-0.23176097869873047,-0.7755126953125,0.21548938751220703,-0.5462989807128906
83,7689570.0,9.296968460083008,-1.2917108535766602,2.864748954772949,-0.012783050537109375,0.013848304748535156,-0.010652542114257812,-0.23176097869873047,-0.7755126953125,0.21548938751220703,-0.5462989807128906
84,7689570.0,9.296968460083008,-1.2917108535766602,2.864748954772949,-0.012783050537109375,0.013848304748535156,-0.010652542114257812,-0.23176097869873047,-0.7755126953125,0.21548938751220703,-0.5462989807128906
85,7689590.0,9.261054039001465,-1.2833309173583984,2.8946781158447266,-0.012783050537109375,0.013848304748535156,-0.010652542114257812,-0.23176097869873047,-0.7755126953125,0.21548938751220703,-0.5462989807128906
86,7689590.0,9.261054039001465,-1.2833309173583984,2.8946781158447266,-0.012783050537109375,0.013848304748535156,-0.010652542114257812,-0.23176097869873047,-0.7755126953125,0.21548938751220703,-0.5462989807128906
87,7689610.0,9.312531471252441,-1.3383989334106445,2.9198179244995117,-0.012783050537109375,0.013848304748535156,-0.010652542114257812,-0.23176097869873047,-0.7755126953125,0.21548938751220703,-0.5462989807128906
88,7689610.0,9.312531471252441,-1.3383989334106445,2.9198179244995117,-0.012783050537109375,0.013848304748535156,-0.010652542114257812,-0.23176097869873047,-0.7755126953125,0.21548938751220703,-0.5462989807128906
89,7689629.0,9.343656539916992,-1.2689647674560547,2.9258031845092773,-0.012783050537109375,0.013848304748535156,-0.010652542114257812,-0.23176097869873047,-0.7755126953125,0.21548938751220703,-0.5462989807128906
90,7689629.0,9.343656539916992,-1.2689647674560547,2.9258031845092773,-0.012783050537109375,0.013848304748535156,-0.010652542114257812,-0.23176097869873047,-0.7755126953125,0.21548938751220703,-0.5462989807128906
91,7689649.0,9.258659362792969,-1.2689647674560547,2.927000045776367,-0.012783050537109375,0.013848304748535156,-0.010652542114257812,-0.23176097869873047,-0.7755126953125,0.21548938751220703,-0.5462989807128906
92,7689649.0,9.258659362792969,-1.2689647674560547,2.927000045776367,-0.012783050537109375,0.013848304748535156,-0.010652542114257812,-0.23176097869873047,-0.7755126953125,0.21548938751220703,-0.5462989807128906
93,7689769.0,9.168874740600586,-1.4305782318115234,2.9138317108154297,-0.01810932159423828,0.0021305084228515625,0.004261016845703125,-0.23283958435058594,-0.7750816345214844,0.2140216827392578,-0.547032356262207
94,7689789.0,9.40351390838623,-1.3431873321533203,2.810877799987793,-0.01810932159423828,0.0021305084228515625,0.004261016845703125,-0.23301219940185547,-0.7750816345214844,0.2140216827392578,-0.5469465255737305
95,7689809.0,9.450201988220215,-1.2474164962768555,2.874326705932617,-0.01810932159423828,0.0021305084228515625,0.004261016845703125,-0.23279666900634766,-0.7751245498657227,0.21380615234375,-0.5470762252807617
96,7689829.0,9.33527660369873,-1.2809362411499023,2.846792221069336,-0.01810932159423828,0.0021305084228515625,0.004261016845703125,-0.23253726959228516,-0.7751674652099609,0.21376323699951172,-0.5470762252807617
97,7689848.0,9.343656539916992,-1.295302391052246,2.853975296020508,-0.01810932159423828,0.0021305084228515625,0.004261016845703125,-0.23258113861083984,-0.7751245498657227,0.21389198303222656,-0.547119140625
98,7689869.0,9.361613273620605,-1.3743133544921875,2.839609146118164,-0.01810932159423828,0.0021305084228515625,0.004261016845703125,-0.23258113861083984,-0.7751245498657227,0.21389198303222656,-0.547119140625
99,7689889.0,9.399922370910645,-1.2725563049316406,2.8240461349487305,-0.01810932159423828,0.0021305084228515625,0.004261016845703125,-0.23258113861083984,-0.7751245498657227,0.21389198303222656,-0.547119140625
100,7689909.0,9.359219551086426,-1.2486133575439453,2.8048925399780273,-0.01810932159423828,0.0021305084228515625,0.004261016845703125,-0.23258113861083984,-0.7751245498657227,0.21389198303222656,-0.547119140625
101,7689929.0,9.26464557647705,-1.2833309173583984,2.818060874938965,-0.01810932159423828,0.0021305084228515625,0.004261016845703125,-0.23258113861083984,-0.7751245498657227,0.21389198303222656,-0.547119140625
102,7689948.0,9.318516731262207,-1.391073226928711,2.8084840774536133,-0.01810932159423828,0.0021305084228515625,0.004261016845703125,-0.23258113861083984,-0.7751245498657227,0.21389198303222656,-0.547119140625
103,7689968.0,9.416682243347168,-1.3108654022216797,2.8252439498901367,-0.0063915252685546875,-0.009587287902832031,0.026632308959960938,-0.23258113861083984,-0.7751245498657227,0.21389198303222656,-0.547119140625
104,7689968.0,9.416682243347168,-1.3108654022216797,2.8252439498901367,-0.0063915252685546875,-0.009587287902832031,0.026632308959960938,-0.23258113861083984,-0.7751245498657227,0.21389198303222656,-0.547119140625
105,7689968.0,9.416682243347168,-1.3108654022216797,2.8252439498901367,-0.0063915252685546875,-0.009587287902832031,0.026632308959960938,-0.23258113861083984,-0.7751245498657227,0.21389198303222656,-0.547119140625
106,7689988.0,9.28619384765625,-1.2294597625732422,2.8611574172973633,0.024501800537109375,-0.0021305084228515625,0.034089088439941406,-0.23258113861083984,-0.7751245498657227,0.21389198303222656,-0.547119140625
107,7689988.0,9.28619384765625,-1.2294597625732422,2.8611574172973633,0.024501800537109375,-0.0021305084228515625,0.034089088439941406,-0.23258113861083984,-0.7751245498657227,0.21389198303222656,-0.547119140625
108,7689988.0,9.28619384765625,-1.2294597625732422,2.8611574172973633,0.024501800537109375,-0.0021305084228515625,0.034089088439941406,-0.23258113861083984,-0.7751245498657227,0.21389198303222656,-0.547119140625
109,7690008.0,9.257462501525879,-1.2725563049316406,2.8671436309814453,0.011717796325683594,0.0,0.03515434265136719,-0.23258113861083984,-0.7751245498657227,0.21389198303222656,-0.547119140625
110,7690008.0,9.257462501525879,-1.2725563049316406,2.8671436309814453,0.011717796325683594,0.0,0.03515434265136719,-0.23258113861083984,-0.7751245498657227,0.21389198303222656,-0.547119140625
111,7690008.0,9.257462501525879,-1.2725563049316406,2.8671436309814453,0.011717796325683594,0.0,0.03515434265136719,-0.23258113861083984,-0.7751245498657227,0.21389198303222656,-0.547119140625
112,7690028.0,9.393936157226562,-1.2617826461791992,2.864748954772949,0.005326271057128906,-0.013848304748535156,0.033023834228515625,-0.23258113861083984,-0.7751245498657227,0.21389198303222656,-0.547119140625
113,7690028.0,9.393936157226562,-1.2617826461791992,2.864748954772949,0.005326271057128906,-0.013848304748535156,0.033023834228515625,-0.23258113861083984,-0.7751245498657227,0.21389198303222656,-0.547119140625
114,7690028.0,9.393936157226562,-1.2617826461791992,2.864748954772949,0.005326271057128906,-0.013848304748535156,0.033023834228515625,-0.23258113861083984,-0.7751245498657227,0.21389198303222656,-0.547119140625
115,7690047.0,9.402316093444824,-1.1995315551757812,2.898268699645996,0.01810932159423828,-0.009587287902832031,0.024501800537109375,-0.23258113861083984,-0.7751245498657227,0.21389198303222656,-0.547119140625
116,7690047.0,9.402316093444824,-1.1995315551757812,2.898268699645996,0.01810932159423828,-0.009587287902832031,0.024501800537109375,-0.23258113861083984,-0.7751245498657227,0.21389198303222656,-0.547119140625
117,7690047.0,9.402316093444824,-1.1995315551757812,2.898268699645996,0.01810932159423828,-0.009587287902832031,0.024501800537109375,-0.23258113861083984,-0.7751245498657227,0.21389198303222656,-0.547119140625
118,7690268.0,9.342459678649902,-1.364736557006836,2.782146453857422,0.03621959686279297,0.0,0.011717796325683594,-0.23340129852294922,-0.7755565643310547,0.21164798736572266,-0.5469894409179688
119,7690288.0,9.361613273620605,-1.3755102157592773,2.807286262512207,0.03621959686279297,0.0,0.011717796325683594,-0.23340129852294922,-0.7755565643310547,0.21164798736572266,-0.5469894409179688
120,7690308.0,9.3855562210083,-1.260584831237793,2.836017608642578,0.03621959686279297,0.0,0.011717796325683594,-0.23340129852294922,-0.7755565643310547,0.21164798736572266,-0.5469894409179688
121,7690328.0,9.322108268737793,-1.3336105346679688,2.840806007385254,0.03621959686279297,0.0,0.011717796325683594,-0.23340129852294922,-0.7755565643310547,0.21164798736572266,-0.5469894409179688
122,7690348.0,9.282602310180664,-1.3922700881958008,2.8623552322387695,0.03621959686279297,0.0,0.011717796325683594,-0.23340129852294922,-0.7755565643310547,0.21164798736572266,-0.5469894409179688
123,7690368.0,9.35682487487793,-1.3108654022216797,2.84200382232666,0.01810932159423828,-0.019174575805664062,0.0031957626342773438,-0.23340129852294922,-0.7755565643310547,0.21164798736572266,-0.5469894409179688
124,7690368.0,9.35682487487793,-1.3108654022216797,2.84200382232666,0.01810932159423828,-0.019174575805664062,0.0031957626342773438,-0.23340129852294922,-0.7755565643310547,0.21164798736572266,-0.5469894409179688
125,7690388.0,9.308939933776855,-1.3407936096191406,2.901860237121582,0.026632308959960938,-0.014913558959960938,0.005326271057128906,-0.23340129852294922,-0.7755565643310547,0.21164798736572266,-0.5469894409179688
126,7690388.0,9.308939933776855,-1.3407936096191406,2.901860237121582,0.026632308959960938,-0.014913558959960938,0.005326271057128906,-0.23340129852294922,-0.7755565643310547,0.21164798736572266,-0.5469894409179688
127,7690408.0,9.288588523864746,-1.29290771484375,2.879115104675293,0.023435592651367188,-0.0031957626342773438,0.005326271057128906,-0.23340129852294922,-0.7755565643310547,0.21164798736572266,-0.5469894409179688
128,7690408.0,9.288588523864746,-1.29290771484375,2.879115104675293,0.023435592651367188,-0.0031957626342773438,0.005326271057128906,-0.23340129852294922,-0.7755565643310547,0.21164798736572266,-0.5469894409179688
129,7690428.0,9.313728332519531,-1.2905139923095703,2.875523567199707,0.02769756317138672,-0.005326271057128906,-0.0010652542114257812,-0.23340129852294922,-0.7755565643310547,0.21164798736572266,-0.5469894409179688
130,7690428.0,9.313728332519531,-1.2905139923095703,2.875523567199707,0.02769756317138672,-0.005326271057128906,-0.0010652542114257812,-0.23340129852294922,-0.7755565643310547,0.21164798736572266,-0.5469894409179688
131,7690448.0,9.316122055053711,-1.2976961135864258,2.906648635864258,0.01810932159423828,-0.0021305084228515625,-0.005326271057128906,-0.23340129852294922,-0.7755565643310547,0.21164798736572266,-0.5469894409179688
132,7690448.0,9.316122055053711,-1.2976961135864258,2.906648635864258,0.01810932159423828,-0.0021305084228515625,-0.005326271057128906,-0.23340129852294922,-0.7755565643310547,0.21164798736572266,-0.5469894409179688
133,7690466.0,9.294573783874512,-1.3372020721435547,2.8623552322387695,0.01810932159423828,-0.0021305084228515625,-0.005326271057128906,-0.23340129852294922,-0.7755565643310547,0.21164798736572266,-0.5469894409179688
134,7690486.0,9.298165321350098,-1.3635387420654297,2.880311965942383,0.01810932159423828,-0.0021305084228515625,-0.005326271057128906,-0.23340129852294922,-0.7755565643310547,0.21164798736572266,-0.5469894409179688
135,7690506.0,9.371191024780273,-1.2941045761108398,2.8934803009033203,0.01810932159423828,-0.0021305084228515625,-0.005326271057128906,-0.23340129852294922,-0.7755565643310547,0.21164798736572266,-0.5469894409179688
136,7690526.0,9.238308906555176,-1.1971368789672852,2.836017608642578,0.01810932159423828,-0.0021305084228515625,-0.005326271057128906,-0.23340129852294922,-0.7755565643310547,0.21164798736572266,-0.5469894409179688
137,7690546.0,9.275420188903809,-1.2474164962768555,2.770174980163574,0.01810932159423828,-0.0021305084228515625,-0.005326271057128906,-0.23340129852294922,-0.7755565643310547,0.21164798736572266,-0.5469894409179688
138,7690567.0,9.459778785705566,-1.3132591247558594,2.820455551147461,-0.005326271057128906,-0.0021305084228515625,-0.0287628173828125,-0.23340129852294922,-0.7755565643310547,0.21164798736572266,-0.5469894409179688
139,7690586.0,9.408302307128906,-1.3503704071044922,2.8084840774536133,0.013848304748535156,0.0010652542114257812,-0.03515434265136719,-0.23340129852294922,-0.7755565643310547,0.21164798736572266,-0.5469894409179688
140,7690606.0,9.320911407470703,-1.2749509811401367,2.806089401245117,0.045806884765625,0.0010652542114257812,-0.034089088439941406,-0.23340129852294922,-0.7755565643310547,0.21164798736572266,-0.5469894409179688
141,7690626.0,9.308939933776855,-1.2617826461791992,2.8300323486328125,0.06498241424560547,-0.009587287902832031,-0.030893325805664062,-0.23340129852294922,-0.7755565643310547,0.21164798736572266,-0.5469894409179688
142,7690646.0,9.37478256225586,-1.2067136764526367,2.8264408111572266,0.05006885528564453,-0.014913558959960938,-0.025567054748535156,-0.23340129852294922,-0.7755565643310547,0.21164798736572266,-0.5469894409179688
143,7690667.0,9.347248077392578,-1.234248161315918,2.8228492736816406,0.05006885528564453,-0.014913558959960938,-0.025567054748535156,-0.23340129852294922,-0.7755565643310547,0.21164798736572266,-0.5469894409179688
144,7690667.0,9.347248077392578,-1.234248161315918,2.8228492736816406,0.05006885528564453,-0.014913558959960938,-0.025567054748535156,-0.23340129852294922,-0.7755565643310547,0.21164798736572266,-0.5469894409179688
145,7690686.0,9.271828651428223,-1.2857246398925781,2.8815088272094727,0.05006885528564453,-0.014913558959960938,-0.025567054748535156,-0.23340129852294922,-0.7755565643310547,0.21164798736572266,-0.5469894409179688
146,7690686.0,9.271828651428223,-1.2857246398925781,2.8815088272094727,0.05006885528564453,-0.014913558959960938,-0.025567054748535156,-0.23340129852294922,-0.7755565643310547,0.21164798736572266,-0.5469894409179688
147,7690706.0,9.280208587646484,-1.3336105346679688,2.869537353515625,0.05006885528564453,-0.014913558959960938,-0.025567054748535156,-0.23340129852294922,-0.7755565643310547,0.21164798736572266,-0.5469894409179688
148,7690706.0,9.280208587646484,-1.3336105346679688,2.869537353515625,0.05006885528564453,-0.014913558959960938,-0.025567054748535156,-0.23340129852294922,-0.7755565643310547,0.21164798736572266,-0.5469894409179688
149,7690726.0,9.313728332519531,-1.296499252319336,2.8084840774536133,0.05006885528564453,-0.014913558959960938,-0.025567054748535156,-0.23340129852294922,-0.7755565643310547,0.21164798736572266,-0.5469894409179688
150,7690726.0,9.313728332519531,-1.296499252319336,2.8084840774536133,0.05006885528564453,-0.014913558959960938,-0.025567054748535156,-0.23340129852294922,-0.7755565643310547,0.21164798736572266,-0.5469894409179688
151,7690746.0,9.290982246398926,-1.260584831237793,2.849186897277832,0.05006885528564453,-0.014913558959960938,-0.025567054748535156,-0.23340129852294922,-0.7755565643310547,0.21164798736572266,-0.5469894409179688
152,7690746.0,9.290982246398926,-1.260584831237793,2.849186897277832,0.05006885528564453,-0.014913558959960938,-0.025567054748535156,-0.23340129852294922,-0.7755565643310547,0.21164798736572266,-0.5469894409179688
153,7690866.0,9.340065002441406,-1.2414312362670898,2.904254913330078,0.05113410949707031,-0.0170440673828125,-0.0010652542114257812,-0.22533035278320312,-0.7757291793823242,0.20888614654541016,-0.5512619018554688
154,7690885.0,9.383162498474121,-1.2031221389770508,2.840806007385254,0.05113410949707031,-0.0170440673828125,-0.0010652542114257812,-0.22498512268066406,-0.7756853103637695,0.20858383178710938,-0.5515213012695312
155,7690905.0,9.353233337402344,-1.1241111755371094,2.847989082336426,0.05113410949707031,-0.0170440673828125,-0.0010652542114257812,-0.22459697723388672,-0.7757720947265625,0.2082386016845703,-0.5517368316650391
156,7690925.0,9.30534839630127,-1.116929054260254,2.873128890991211,0.05113410949707031,-0.0170440673828125,-0.0010652542114257812,-0.22433757781982422,-0.7758150100708008,0.2080230712890625,-0.551823616027832
157,7690945.0,9.337671279907227,-1.1719970703125,2.8575668334960938,0.05113410949707031,-0.0170440673828125,-0.0010652542114257812,-0.22420787811279297,-0.7758579254150391,0.2079792022705078,-0.5518665313720703
158,7691065.0,9.37597942352295,-1.1528425216674805,2.8372154235839844,0.0287628173828125,-0.0031957626342773438,0.01597881317138672,-0.22420787811279297,-0.7758579254150391,0.2079792022705078,-0.5518665313720703
159,7691065.0,9.37597942352295,-1.1528425216674805,2.8372154235839844,0.0287628173828125,-0.0031957626342773438,0.01597881317138672,-0.22420787811279297,-0.7758579254150391,0.2079792022705078,-0.5518665313720703
160,7691065.0,9.37597942352295,-1.1528425216674805,2.8372154235839844,0.0287628173828125,-0.0031957626342773438,0.01597881317138672,-0.22420787811279297,-0.7758579254150391,0.2079792022705078,-0.5518665313720703
161,7691085.0,9.366402626037598,-1.1109428405761719,2.820455551147461,0.022370338439941406,0.0010652542114257812,0.012783050537109375,-0.22420787811279297,-0.7758579254150391,0.2079792022705078,-0.5518665313720703
162,7691085.0,9.366402626037598,-1.1109428405761719,2.820455551147461,0.022370338439941406,0.0010652542114257812,0.012783050537109375,-0.22420787811279297,-0.7758579254150391,0.2079792022705078,-0.5518665313720703
163,7691085.0,9.366402626037598,-1.1109428405761719,2.820455551147461,0.022370338439941406,0.0010652542114257812,0.012783050537109375,-0.22420787811279297,-0.7758579254150391,0.2079792022705078,-0.5518665313720703
164,7691104.0,9.308939933776855,-1.1803770065307617,2.8300323486328125,0.00852203369140625,-0.0010652542114257812,0.005326271057128906,-0.22420787811279297,-0.7758579254150391,0.2079792022705078,-0.5518665313720703
165,7691104.0,9.308939933776855,-1.1803770065307617,2.8300323486328125,0.00852203369140625,-0.0010652542114257812,0.005326271057128906,-0.22420787811279297,-0.7758579254150391,0.2079792022705078,-0.5518665313720703
166,7691104.0,9.308939933776855,-1.1803770065307617,2.8300323486328125,0.00852203369140625,-0.0010652542114257812,0.005326271057128906,-0.22420787811279297,-0.7758579254150391,0.2079792022705078,-0.5518665313720703
167,7691124.0,9.33407974243164,-1.139674186706543,2.8252439498901367,0.00852203369140625,-0.0021305084228515625,0.0031957626342773438,-0.22420787811279297,-0.7758579254150391,0.2079792022705078,-0.5518665313720703
168,7691124.0,9.33407974243164,-1.139674186706543,2.8252439498901367,0.00852203369140625,-0.0021305084228515625,0.0031957626342773438,-0.22420787811279297,-0.7758579254150391,0.2079792022705078,-0.5518665313720703
169,7691124.0,9.33407974243164,-1.139674186706543,2.8252439498901367,0.00852203369140625,-0.0021305084228515625,0.0031957626342773438,-0.22420787811279297,-0.7758579254150391,0.2079792022705078,-0.5518665313720703
170,7691144.0,9.308939933776855,-1.1468572616577148,2.79172420501709,0.010652542114257812,-0.007456779479980469,0.0,-0.22420787811279297,-0.7758579254150391,0.2079792022705078,-0.5518665313720703
171,7691144.0,9.308939933776855,-1.1468572616577148,2.79172420501709,0.010652542114257812,-0.007456779479980469,0.0,-0.22420787811279297,-0.7758579254150391,0.2079792022705078,-0.5518665313720703
172,7691144.0,9.308939933776855,-1.1468572616577148,2.79172420501709,0.010652542114257812,-0.007456779479980469,0.0,-0.22420787811279297,-0.7758579254150391,0.2079792022705078,-0.5518665313720703
173,7691364.0,9.387950897216797,-1.145660400390625,2.8336238861083984,-0.024501800537109375,-0.0031957626342773438,0.0,-0.22351741790771484,-0.7762470245361328,0.20612430572509766,-0.5522117614746094
174,7691384.0,9.35562801361084,-1.1803770065307617,2.809680938720703,-0.024501800537109375,-0.0031957626342773438,0.0,-0.22351741790771484,-0.7762470245361328,0.20612430572509766,-0.5522117614746094
175,7691404.0,9.274222373962402,-1.29290771484375,2.8192577362060547,-0.024501800537109375,-0.0031957626342773438,0.0,-0.22351741790771484,-0.7762470245361328,0.20612430572509766,-0.5522117614746094
176,7691423.0,9.33407974243164,-1.417409896850586,2.7977094650268555,-0.024501800537109375,-0.0031957626342773438,0.0,-0.22351741790771484,-0.7762470245361328,0.20612430572509766,-0.5522117614746094
177,7691443.0,9.438230514526367,-1.2737541198730469,2.8252439498901367,-0.024501800537109375,-0.0031957626342773438,0.0,-0.22351741790771484,-0.7762470245361328,0.20612430572509766,-0.5522117614746094
178,7691464.0,9.349641799926758,-1.2115020751953125,2.84439754486084,0.03835010528564453,-0.011717796325683594,0.023435592651367188,-0.22351741790771484,-0.7762470245361328,0.20612430572509766,-0.5522117614746094
179,7691484.0,9.250279426574707,-1.200728416442871,2.8671436309814453,0.011717796325683594,-0.0021305084228515625,0.023435592651367188,-0.22351741790771484,-0.7762470245361328,0.20612430572509766,-0.5522117614746094
180,7691504.0,9.330488204956055,-1.2557964324951172,2.8551721572875977,-0.011717796325683594,-0.00852203369140625,0.020239830017089844,-0.22351741790771484,-0.7762470245361328,0.20612430572509766,-0.5522117614746094
181,7691523.0,9.416682243347168,-1.2198820114135742,2.810877799987793,-0.009587287902832031,-0.011717796325683594,0.022370338439941406,-0.22351741790771484,-0.7762470245361328,0.20612430572509766,-0.5522117614746094
182,7691543.0,9.314925193786621,-1.236642837524414,2.8252439498901367,-0.0063915252685546875,0.0,0.024501800537109375,-0.22351741790771484,-0.7762470245361328,0.20612430572509766,-0.5522117614746094
183,7691563.0,9.343656539916992,-1.2857246398925781,2.836017608642578,-0.010652542114257812,0.0,0.020239830017089844,-0.22351741790771484,-0.7762470245361328,0.20612430572509766,-0.5522117614746094
184,7691583.0,9.35443115234375,-1.2450227737426758,2.8288354873657227,0.014913558959960938,-0.0010652542114257812,0.012783050537109375,-0.22351741790771484,-0.7762470245361328,0.20612430572509766,-0.5522117614746094
185,7691603.0,9.4071044921875,-1.168405532836914,2.847989082336426,0.033023834228515625,-0.0031957626342773438,0.010652542114257812,-0.22351741790771484,-0.7762470245361328,0.20612430572509766,-0.5522117614746094
186,7691623.0,9.350839614868164,-1.2258682250976562,2.8815088272094727,0.0021305084228515625,0.0,0.00852203369140625,-0.22351741790771484,-0.7762470245361328,0.20612430572509766,-0.5522117614746094
187,7691642.0,9.269433975219727,-1.4341697692871094,2.7653865814208984,-0.04900360107421875,0.007456779479980469,0.009587287902832031,-0.22351741790771484,-0.7762470245361328,0.20612430572509766,-0.5522117614746094
188,7691663.0,9.277813911437988,-1.3791017532348633,2.846792221069336,-0.04900360107421875,0.007456779479980469,0.009587287902832031,-0.22351741790771484,-0.7762470245361328,0.20612430572509766,-0.5522117614746094
189,7691683.0,9.353233337402344,-1.419804573059082,3.117344856262207,-0.04900360107421875,0.007456779479980469,0.009587287902832031,-0.22351741790771484,-0.7762470245361328,0.20612430572509766,-0.5522117614746094
190,7691703.0,9.273025512695312,-1.3383989334106445,2.3858938217163086,-0.04900360107421875,0.007456779479980469,0.009587287902832031,-0.22351741790771484,-0.7762470245361328,0.20612430572509766,-0.5522117614746094
191,7691723.0,9.419075965881348,-1.1300973892211914,2.5929994583129883,-0.04900360107421875,0.007456779479980469,0.009587287902832031,-0.22351741790771484,-0.7762470245361328,0.20612430572509766,-0.5522117614746094
192,7691742.0,9.3855562210083,-0.9122180938720703,2.7929210662841797,-0.04900360107421875,0.007456779479980469,0.009587287902832031,-0.22351741790771484,-0.7762470245361328,0.20612430572509766,-0.5522117614746094
193,7691762.0,9.399922370910645,-1.0211572647094727,2.747429847717285,0.04367637634277344,-0.022370338439941406,0.0,-0.22351741790771484,-0.7762470245361328,0.20612430572509766,-0.5522117614746094
194,7691782.0,9.429850578308105,-1.5239553451538086,2.620532989501953,-0.11611652374267578,-0.011717796325683594,0.0,-0.22351741790771484,-0.7762470245361328,0.20612430572509766,-0.5522117614746094
195,7691802.0,9.323305130004883,-1.455718994140625,2.6815872192382812,-0.03728485107421875,-0.0031957626342773438,0.00852203369140625,-0.22351741790771484,-0.7762470245361328,0.20612430572509766,-0.5522117614746094
196,7691822.0,9.290982246398926,-1.385087013244629,2.806089401245117,0.0745706558227539,-0.005326271057128906,0.009587287902832031,-0.22351741790771484,-0.7762470245361328,0.20612430572509766,-0.5522117614746094
197,7691841.0,9.352036476135254,-1.1803770065307617,2.748626708984375,0.13103103637695312,-0.012783050537109375,0.010652542114257812,-0.22351741790771484,-0.7762470245361328,0.20612430572509766,-0.5522117614746094
198,7691862.0,9.332881927490234,-1.1109428405761719,2.784541130065918,0.13103103637695312,-0.012783050537109375,0.010652542114257812,-0.22351741790771484,-0.7762470245361328,0.20612430572509766,-0.5522117614746094
199,7691862.0,9.332881927490234,-1.1109428405761719,2.784541130065918,0.13103103637695312,-0.012783050537109375,0.010652542114257812,-0.22351741790771484,-0.7762470245361328,0.20612430572509766,-0.5522117614746094
200,7691882.0,9.330488204956055,-1.4581127166748047,2.682784080505371,0.13103103637695312,-0.012783050537109375,0.010652542114257812,-0.22351741790771484,-0.7762470245361328,0.20612430572509766,-0.5522117614746094
201,7691882.0,9.330488204956055,-1.4581127166748047,2.682784080505371,0.13103103637695312,-0.012783050537109375,0.010652542114257812,-0.22351741790771484,-0.7762470245361328,0.20612430572509766,-0.5522117614746094
202,7691902.0,9.301756858825684,-1.3802986145019531,2.691164016723633,0.13103103637695312,-0.012783050537109375,0.010652542114257812,-0.22351741790771484,-0.7762470245361328,0.20612430572509766,-0.5522117614746094
203,7691902.0,9.301756858825684,-1.3802986145019531,2.691164016723633,0.13103103637695312,-0.012783050537109375,0.010652542114257812,-0.22351741790771484,-0.7762470245361328,0.20612430572509766,-0.5522117614746094
204,7691922.0,9.30774211883545,-1.1540403366088867,2.807286262512207,0.13103103637695312,-0.012783050537109375,0.010652542114257812,-0.22351741790771484,-0.7762470245361328,0.20612430572509766,-0.5522117614746094
205,7691922.0,9.30774211883545,-1.1540403366088867,2.807286262512207,0.13103103637695312,-0.012783050537109375,0.010652542114257812,-0.22351741790771484,-0.7762470245361328,0.20612430572509766,-0.5522117614746094
206,7691942.0,9.292180061340332,-1.230656623840332,2.697150230407715,0.13103103637695312,-0.012783050537109375,0.010652542114257812,-0.22351741790771484,-0.7762470245361328,0.20612430572509766,-0.5522117614746094
207,7691942.0,9.292180061340332,-1.230656623840332,2.697150230407715,0.13103103637695312,-0.012783050537109375,0.010652542114257812,-0.22351741790771484,-0.7762470245361328,0.20612430572509766,-0.5522117614746094
208,7692062.0,9.417879104614258,-1.0786199569702148,2.7749643325805664,0.21518993377685547,0.031958580017089844,0.004261016845703125,-0.21190834045410156,-0.7796134948730469,0.19222640991210938,-0.5570888519287109
209,7692082.0,9.408302307128906,-1.1492509841918945,2.7941179275512695,0.21518993377685547,0.031958580017089844,0.004261016845703125,-0.21190834045410156,-0.7796134948730469,0.19222640991210938,-0.5570888519287109
210,7692102.0,9.302953720092773,-0.49800872802734375,2.6995439529418945,0.21518993377685547,0.031958580017089844,0.004261016845703125,-0.21190834045410156,-0.7796134948730469,0.19222640991210938,-0.5570888519287109
211,7692122.0,9.391542434692383,-0.9924259185791016,3.6632394790649414,0.21518993377685547,0.031958580017089844,0.004261016845703125,-0.21190834045410156,-0.7796134948730469,0.19222640991210938,-0.5570888519287109
212,7692142.0,9.45499038696289,-1.8328170776367188,2.9437599182128906,0.21518993377685547,0.031958580017089844,0.004261016845703125,-0.21190834045410156,-0.7796134948730469,0.19222640991210938,-0.5570888519287109
213,7692162.0,9.360416412353516,-1.2450227737426758,2.6037731170654297,-0.01597881317138672,0.1033334732055664,0.1448802947998047,-0.21190834045410156,-0.7796134948730469,0.19222640991210938,-0.5570888519287109
214,7692162.0,9.360416412353516,-1.2450227737426758,2.6037731170654297,-0.01597881317138672,0.1033334732055664,0.1448802947998047,-0.21190834045410156,-0.7796134948730469,0.19222640991210938,-0.5570888519287109
215,7692181.0,9.26464557647705,-1.1839685440063477,1.6161346435546875,0.38350677490234375,0.08522319793701172,0.1097249984741211,-0.21190834045410156,-0.7796134948730469,0.19222640991210938,-0.5570888519287109
216,7692181.0,9.26464557647705,-1.1839685440063477,1.6161346435546875,0.38350677490234375,0.08522319793701172,0.1097249984741211,-0.21190834045410156,-0.7796134948730469,0.19222640991210938,-0.5570888519287109
217,7692201.0,9.37597942352295,-2.043513298034668,3.641691207885742,0.6913776397705078,0.11611652374267578,0.08522319793701172,-0.21190834045410156,-0.7796134948730469,0.19222640991210938,-0.5570888519287109
218,7692201.0,9.37597942352295,-2.043513298034668,3.641691207885742,0.6913776397705078,0.11611652374267578,0.08522319793701172,-0.21190834045410156,-0.7796134948730469,0.19222640991210938,-0.5570888519287109
219,7692221.0,9.205986022949219,0.11612224578857422,3.3005075454711914,0.8213434219360352,0.12250900268554688,0.15127182006835938,-0.21190834045410156,-0.7796134948730469,0.19222640991210938,-0.5570888519287109
220,7692221.0,9.205986022949219,0.11612224578857422,3.3005075454711914,0.8213434219360352,0.12250900268554688,0.15127182006835938,-0.21190834045410156,-0.7796134948730469,0.19222640991210938,-0.5570888519287109
221,7692241.0,9.366402626037598,-1.3192453384399414,3.595003128051758,0.4080085754394531,0.02769756317138672,0.14274978637695312,-0.21190834045410156,-0.7796134948730469,0.19222640991210938,-0.5570888519287109
222,7692241.0,9.366402626037598,-1.3192453384399414,3.595003128051758,0.4080085754394531,0.02769756317138672,0.14274978637695312,-0.21190834045410156,-0.7796134948730469,0.19222640991210938,-0.5570888519287109
223,7692261.0,9.177254676818848,-1.8388023376464844,2.5798301696777344,0.4080085754394531,0.02769756317138672,0.14274978637695312,-0.21190834045410156,-0.7796134948730469,0.19222640991210938,-0.5570888519287109
224,7692280.0,9.23471736907959,-2.072244644165039,2.4002599716186523,0.4080085754394531,0.02769756317138672,0.14274978637695312,-0.21190834045410156,-0.7796134948730469,0.19222640991210938,-0.5570888519287109
225,7692300.0,9.239505767822266,-0.5123739242553711,2.816864013671875,0.4080085754394531,0.02769756317138672,0.14274978637695312,-0.21190834045410156,-0.7796134948730469,0.19222640991210938,-0.5570888519287109
226,7692320.0,9.399922370910645,-0.6021595001220703,3.6069746017456055,0.4080085754394531,0.02769756317138672,0.14274978637695312,-0.21190834045410156,-0.7796134948730469,0.19222640991210938,-0.5570888519287109
227,7692340.0,9.128171920776367,-1.0403118133544922,2.5139875411987305,0.4080085754394531,0.02769756317138672,0.14274978637695312,-0.21190834045410156,-0.7796134948730469,0.19222640991210938,-0.5570888519287109
228,7692361.0,9.003669738769531,-1.9477424621582031,1.9549245834350586,-0.36113548278808594,-0.022370338439941406,0.17683887481689453,-0.21190834045410156,-0.7796134948730469,0.19222640991210938,-0.5570888519287109
229,7692380.0,9.18563461303711,-0.8164472579956055,2.0243587493896484,0.06604766845703125,-0.10652923583984375,0.1672515869140625,-0.21190834045410156,-0.7796134948730469,0.19222640991210938,-0.5570888519287109
230,7692400.0,9.383162498474121,-2.138087272644043,2.6732072830200195,0.12996578216552734,-0.11079025268554688,0.20347118377685547,-0.21190834045410156,-0.7796134948730469,0.19222640991210938,-0.5570888519287109
231,7692420.0,9.452595710754395,-1.2534027099609375,1.6759920120239258,0.1384878158569336,-0.0862884521484375,0.26312828063964844,-0.21190834045410156,-0.7796134948730469,0.19222640991210938,-0.5570888519287109
232,7692440.0,9.61540699005127,-2.8348207473754883,3.1448793411254883,0.16938209533691406,-0.0916147232055664,0.2940216064453125,-0.21190834045410156,-0.7796134948730469,0.19222640991210938,-0.5570888519287109
233,7692560.0,6.642914772033691,-1.2438249588012695,5.0890302658081055,0.16938209533691406,-0.0916147232055664,0.2940216064453125,-0.21190834045410156,-0.7796134948730469,0.19222640991210938,-0.5570888519287109
234,7692560.0,6.642914772033691,-1.2438249588012695,5.0890302658081055,0.16938209533691406,-0.0916147232055664,0.2940216064453125,-0.21190834045410156,-0.7796134948730469,0.19222640991210938,-0.5570888519287109
235,7692580.0,7.697592735290527,-1.7585945129394531,2.442159652709961,0.16938209533691406,-0.0916147232055664,0.2940216064453125,-0.21190834045410156,-0.7796134948730469,0.19222640991210938,-0.5570888519287109
236,7692580.0,7.697592735290527,-1.7585945129394531,2.442159652709961,0.16938209533691406,-0.0916147232055664,0.2940216064453125,-0.21190834045410156,-0.7796134948730469,0.19222640991210938,-0.5570888519287109
237,7692599.0,10.630578994750977,-3.2274818420410156,3.1676254272460938,0.16938209533691406,-0.0916147232055664,0.2940216064453125,-0.21190834045410156,-0.7796134948730469,0.19222640991210938,-0.5570888519287109
238,7692599.0,10.630578994750977,-3.2274818420410156,3.1676254272460938,0.16938209533691406,-0.0916147232055664,0.2940216064453125,-0.21190834045410156,-0.7796134948730469,0.19222640991210938,-0.5570888519287109
239,7692619.0,10.101444244384766,-1.0331287384033203,2.401456832885742,0.16938209533691406,-0.0916147232055664,0.2940216064453125,-0.21190834045410156,-0.7796134948730469,0.19222640991210938,-0.5570888519287109
240,7692619.0,10.101444244384766,-1.0331287384033203,2.401456832885742,0.16938209533691406,-0.0916147232055664,0.2940216064453125,-0.21190834045410156,-0.7796134948730469,0.19222640991210938,-0.5570888519287109
241,7692639.0,9.07669448852539,-0.009576797485351562,2.8240461349487305,0.16938209533691406,-0.0916147232055664,0.2940216064453125,-0.21190834045410156,-0.7796134948730469,0.19222640991210938,-0.5570888519287109
242,7692639.0,9.07669448852539,-0.009576797485351562,2.8240461349487305,0.16938209533691406,-0.0916147232055664,0.2940216064453125,-0.21190834045410156,-0.7796134948730469,0.19222640991210938,-0.5570888519287109
243,7692760.0,9.271828651428223,-1.3395957946777344,1.6472606658935547,-0.4836444854736328,-0.18323040008544922,-0.2524747848510742,-0.21190834045410156,-0.7796134948730469,0.19222640991210938,-0.5570888519287109
244,7692760.0,9.271828651428223,-1.3395957946777344,1.6472606658935547,-0.4836444854736328,-0.18323040008544922,-0.2524747848510742,-0.21190834045410156,-0.7796134948730469,0.19222640991210938,-0.5570888519287109
245,7692780.0,9.432244300842285,-1.2713594436645508,1.355158805847168,-0.3174581527709961,-0.12890052795410156,-0.22371196746826172,-0.21190834045410156,-0.7796134948730469,0.19222640991210938,-0.5570888519287109
246,7692780.0,9.432244300842285,-1.2713594436645508,1.355158805847168,-0.3174581527709961,-0.12890052795410156,-0.22371196746826172,-0.21190834045410156,-0.7796134948730469,0.19222640991210938,-0.5570888519287109
247,7692799.0,9.585478782653809,-1.0032005310058594,1.4030447006225586,-0.0170440673828125,-0.10546398162841797,-0.2194509506225586,-0.21190834045410156,-0.7796134948730469,0.19222640991210938,-0.5570888519287109
248,7692799.0,9.585478782653809,-1.0032005310058594,1.4030447006225586,-0.0170440673828125,-0.10546398162841797,-0.2194509506225586,-0.21190834045410156,-0.7796134948730469,0.19222640991210938,-0.5570888519287109
249,7692819.0,9.471750259399414,-0.9050350189208984,1.7394399642944336,0.16831684112548828,-0.07670116424560547,-0.19175338745117188,-0.21190834045410156,-0.7796134948730469,0.19222640991210938,-0.5570888519287109
250,7692819.0,9.471750259399414,-0.9050350189208984,1.7394399642944336,0.16831684112548828,-0.07670116424560547,-0.19175338745117188,-0.21190834045410156,-0.7796134948730469,0.19222640991210938,-0.5570888519287109
251,7692839.0,9.37597942352295,-1.0594663619995117,2.037527084350586,0.16938209533691406,-0.052199363708496094,-0.16405487060546875,-0.21190834045410156,-0.7796134948730469,0.19222640991210938,-0.5570888519287109
252,7692839.0,9.37597942352295,-1.0594663619995117,2.037527084350586,0.16938209533691406,-0.052199363708496094,-0.16405487060546875,-0.21190834045410156,-0.7796134948730469,0.19222640991210938,-0.5570888519287109
253,7692959.0,9.478933334350586,-1.3108654022216797,2.9724912643432617,0.16938209533691406,-0.052199363708496094,-0.16405487060546875,-0.21190834045410156,-0.7796134948730469,0.19222640991210938,-0.5570888519287109
254,7692959.0,9.478933334350586,-1.3108654022216797,2.9724912643432617,0.16938209533691406,-0.052199363708496094,-0.16405487060546875,-0.21190834045410156,-0.7796134948730469,0.19222640991210938,-0.5570888519287109
255,7692979.0,9.445413589477539,-1.385087013244629,2.727078437805176,0.16938209533691406,-0.052199363708496094,-0.16405487060546875,-0.21190834045410156,-0.7796134948730469,0.19222640991210938,-0.5570888519287109
256,7692979.0,9.445413589477539,-1.385087013244629,2.727078437805176,0.16938209533691406,-0.052199363708496094,-0.16405487060546875,-0.21190834045410156,-0.7796134948730469,0.19222640991210938,-0.5570888519287109
257,7692999.0,9.470553398132324,-1.4545211791992188,2.686375617980957,0.16938209533691406,-0.052199363708496094,-0.16405487060546875,-0.21190834045410156,-0.7796134948730469,0.19222640991210938,-0.5570888519287109
258,7692999.0,9.470553398132324,-1.4545211791992188,2.686375617980957,0.16938209533691406,-0.052199363708496094,-0.16405487060546875,-0.21190834045410156,-0.7796134948730469,0.19222640991210938,-0.5570888519287109
259,7693018.0,9.49569320678711,-1.358750343322754,2.7402467727661133,0.16938209533691406,-0.052199363708496094,-0.16405487060546875,-0.21190834045410156,-0.7796134948730469,0.19222640991210938,-0.5570888519287109
260,7693018.0,9.49569320678711,-1.358750343322754,2.7402467727661133,0.16938209533691406,-0.052199363708496094,-0.16405487060546875,-0.21190834045410156,-0.7796134948730469,0.19222640991210938,-0.5570888519287109
261,7693038.0,9.482524871826172,-1.260584831237793,2.6839818954467773,0.16938209533691406,-0.052199363708496094,-0.16405487060546875,-0.21190834045410156,-0.7796134948730469,0.19222640991210938,-0.5570888519287109
262,7693038.0,9.482524871826172,-1.260584831237793,2.6839818954467773,0.16938209533691406,-0.052199363708496094,-0.16405487060546875,-0.21190834045410156,-0.7796134948730469,0.19222640991210938,-0.5570888519287109
263,7693158.0,9.343656539916992,-1.3719186782836914,2.6516590118408203,-0.022370338439941406,-0.045806884765625,0.019174575805664062,-0.20733356475830078,-0.7817707061767578,0.16287899017333984,-0.5651159286499023
264,7693178.0,9.399922370910645,-1.3312158584594727,2.686375617980957,-0.022370338439941406,-0.045806884765625,0.019174575805664062,-0.20785140991210938,-0.7813825607299805,0.1627492904663086,-0.5654611587524414
265,7693198.0,9.395133018493652,-1.1743907928466797,2.687572479248047,-0.022370338439941406,-0.045806884765625,0.019174575805664062,-0.20785140991210938,-0.7811241149902344,0.16240406036376953,-0.5658931732177734
266,7693217.0,9.371191024780273,-1.1887569427490234,2.6396875381469727,-0.022370338439941406,-0.045806884765625,0.019174575805664062,-0.20746231079101562,-0.7810373306274414,0.16188621520996094,-0.5663681030273438
267,7693237.0,9.359219551086426,-1.2809362411499023,2.6684188842773438,-0.022370338439941406,-0.045806884765625,0.019174575805664062,-0.20703125,-0.7809514999389648,0.16136837005615234,-0.5667991638183594
268,7693258.0,9.447807312011719,-1.3336105346679688,2.758204460144043,-0.022370338439941406,-0.045806884765625,0.019174575805664062,-0.20703125,-0.7809514999389648,0.16136837005615234,-0.5667991638183594
269,7693278.0,9.49569320678711,-1.1564340591430664,2.634899139404297,-0.022370338439941406,-0.045806884765625,0.019174575805664062,-0.20703125,-0.7809514999389648,0.16136837005615234,-0.5667991638183594
270,7693298.0,9.397527694702148,-1.201925277709961,2.606167793273926,-0.022370338439941406,-0.045806884765625,0.019174575805664062,-0.20703125,-0.7809514999389648,0.16136837005615234,-0.5667991638183594
271,7693317.0,9.35443115234375,-1.298893928527832,2.626519203186035,-0.022370338439941406,-0.045806884765625,0.019174575805664062,-0.20703125,-0.7809514999389648,0.16136837005615234,-0.5667991638183594
272,7693337.0,9.419075965881348,-1.3336105346679688,2.6744041442871094,-0.022370338439941406,-0.045806884765625,0.019174575805664062,-0.20703125,-0.7809514999389648,0.16136837005615234,-0.5667991638183594
273,7693457.0,9.435835838317871,-1.194742202758789,2.48166561126709,0.02982807159423828,-0.0063915252685546875,-0.005326271057128906,-0.2017660140991211,-0.7809076309204102,0.15735530853271484,-0.5698204040527344
274,7693477.0,9.428653717041016,-1.2833309173583984,2.53194522857666,0.02982807159423828,-0.0063915252685546875,-0.005326271057128906,-0.2017660140991211,-0.7809076309204102,0.15735530853271484,-0.5698204040527344
275,7693497.0,9.470553398132324,-1.2941045761108398,2.558281898498535,0.02982807159423828,-0.0063915252685546875,-0.005326271057128906,-0.2017660140991211,-0.7809076309204102,0.15735530853271484,-0.5698204040527344
276,7693517.0,9.464567184448242,-1.3084707260131836,2.5211706161499023,0.02982807159423828,-0.0063915252685546875,-0.005326271057128906,-0.2017660140991211,-0.7809076309204102,0.15735530853271484,-0.5698204040527344
277,7693536.0,9.431047439575195,-1.2462196350097656,2.53314208984375,0.02982807159423828,-0.0063915252685546875,-0.005326271057128906,-0.2017660140991211,-0.7809076309204102,0.15735530853271484,-0.5698204040527344
278,7693557.0,9.435835838317871,-1.1719970703125,2.5415220260620117,0.014913558959960938,-0.007456779479980469,0.01597881317138672,-0.2017660140991211,-0.7809076309204102,0.15735530853271484,-0.5698204040527344
279,7693557.0,9.435835838317871,-1.1719970703125,2.5415220260620117,0.014913558959960938,-0.007456779479980469,0.01597881317138672,-0.2017660140991211,-0.7809076309204102,0.15735530853271484,-0.5698204040527344
280,7693577.0,9.429850578308105,-1.1935453414916992,2.522367477416992,-0.0031957626342773438,-0.00852203369140625,0.019174575805664062,-0.2017660140991211,-0.7809076309204102,0.15735530853271484,-0.5698204040527344
281,7693577.0,9.429850578308105,-1.1935453414916992,2.522367477416992,-0.0031957626342773438,-0.00852203369140625,0.019174575805664062,-0.2017660140991211,-0.7809076309204102,0.15735530853271484,-0.5698204040527344
282,7693597.0,9.358022689819336,-1.2510080337524414,2.539128303527832,-0.011717796325683594,-0.004261016845703125,0.01597881317138672,-0.2017660140991211,-0.7809076309204102,0.15735530853271484,-0.5698204040527344
283,7693597.0,9.358022689819336,-1.2510080337524414,2.539128303527832,-0.011717796325683594,-0.004261016845703125,0.01597881317138672,-0.2017660140991211,-0.7809076309204102,0.15735530853271484,-0.5698204040527344
284,7693617.0,9.390344619750977,-1.2833309173583984,2.5870132446289062,0.022370338439941406,-0.005326271057128906,0.0063915252685546875,-0.2017660140991211,-0.7809076309204102,0.15735530853271484,-0.5698204040527344
285,7693617.0,9.390344619750977,-1.2833309173583984,2.5870132446289062,0.022370338439941406,-0.005326271057128906,0.0063915252685546875,-0.2017660140991211,-0.7809076309204102,0.15735530853271484,-0.5698204040527344
286,7693636.0,9.443018913269043,-1.2258682250976562,2.563070297241211,0.04367637634277344,-0.010652542114257812,0.0010652542114257812,-0.2017660140991211,-0.7809076309204102,0.15735530853271484,-0.5698204040527344
287,7693636.0,9.443018913269043,-1.2258682250976562,2.563070297241211,0.04367637634277344,-0.010652542114257812,0.0010652542114257812,-0.2017660140991211,-0.7809076309204102,0.15735530853271484,-0.5698204040527344
288,7693756.0,9.42625904083252,-1.2067136764526367,2.5510988235473633,0.040480613708496094,0.0021305084228515625,-0.0031957626342773438,-0.20038509368896484,-0.7806491851806641,0.15640544891357422,-0.5709428787231445
289,7693776.0,9.371191024780273,-1.2115020751953125,2.5451135635375977,0.040480613708496094,0.0021305084228515625,-0.0031957626342773438,-0.19986724853515625,-0.7806921005249023,0.15610313415527344,-0.5711154937744141
290,7693796.0,9.47653865814209,-1.2294597625732422,2.5487051010131836,0.040480613708496094,0.0021305084228515625,-0.0031957626342773438,-0.1994781494140625,-0.7807779312133789,0.15584468841552734,-0.5712442398071289
291,7693816.0,9.499284744262695,-1.236642837524414,2.5427188873291016,0.040480613708496094,0.0021305084228515625,-0.0031957626342773438,-0.1992197036743164,-0.7808218002319336,0.1557149887084961,-0.5713310241699219
292,7693835.0,9.398724555969238,-1.2498111724853516,2.5163822174072266,0.040480613708496094,0.0021305084228515625,-0.0031957626342773438,-0.19909000396728516,-0.7808218002319336,0.15562820434570312,-0.5713739395141602
293,7693854.0,9.413090705871582,-1.3180475234985352,2.564268112182617,0.021305084228515625,0.0021305084228515625,-0.009587287902832031,-0.19909000396728516,-0.7808218002319336,0.15562820434570312,-0.5713739395141602
294,7693874.0,9.419075965881348,-1.194742202758789,2.543916702270508,0.031958580017089844,0.0,-0.007456779479980469,-0.19909000396728516,-0.7808218002319336,0.15562820434570312,-0.5713739395141602
295,7693894.0,9.42745590209961,-1.1863622665405273,2.554690361022949,0.026632308959960938,0.0010652542114257812,-0.0063915252685546875,-0.19909000396728516,-0.7808218002319336,0.15562820434570312,-0.5713739395141602
296,7693914.0,9.383162498474121,-1.2462196350097656,2.5570850372314453,-0.012783050537109375,0.004261016845703125,0.004261016845703125,-0.19909000396728516,-0.7808218002319336,0.15562820434570312,-0.5713739395141602
297,7693934.0,9.391542434692383,-1.3276252746582031,2.570253372192383,-0.013848304748535156,0.0021305084228515625,0.0031957626342773438,-0.19909000396728516,-0.7808218002319336,0.15562820434570312,-0.5713739395141602
298,7693955.0,9.452595710754395,-1.1959400177001953,2.5510988235473633,-0.013848304748535156,0.0021305084228515625,0.0031957626342773438,-0.19909000396728516,-0.7808218002319336,0.15562820434570312,-0.5713739395141602
299,7693975.0,9.457385063171387,-1.1827716827392578,2.53314208984375,-0.013848304748535156,0.0021305084228515625,0.0031957626342773438,-0.19909000396728516,-0.7808218002319336,0.15562820434570312,-0.5713739395141602
300,7693995.0,9.397527694702148,-1.2198820114135742,2.5151853561401367,-0.013848304748535156,0.0021305084228515625,0.0031957626342773438,-0.19909000396728516,-0.7808218002319336,0.15562820434570312,-0.5713739395141602
301,7694015.0,9.398724555969238,-1.2138967514038086,2.499622344970703,-0.013848304748535156,0.0021305084228515625,0.0031957626342773438,-0.19909000396728516,-0.7808218002319336,0.15562820434570312,-0.5713739395141602
302,7694035.0,9.464567184448242,-1.236642837524414,2.596590042114258,-0.013848304748535156,0.0021305084228515625,0.0031957626342773438,-0.19909000396728516,-0.7808218002319336,0.15562820434570312,-0.5713739395141602
303,7694055.0,9.483721733093262,-1.1576309204101562,2.537930488586426,0.03728485107421875,-0.0063915252685546875,0.00852203369140625,-0.19909000396728516,-0.7808218002319336,0.15562820434570312,-0.5713739395141602
304,7694075.0,9.429850578308105,-1.1504487991333008,2.536733627319336,0.020239830017089844,0.0,0.0031957626342773438,-0.19909000396728516,-0.7808218002319336,0.15562820434570312,-0.5713739395141602
305,7694095.0,9.37478256225586,-1.2198820114135742,2.5522966384887695,-0.009587287902832031,0.0010652542114257812,-0.0031957626342773438,-0.19909000396728516,-0.7808218002319336,0.15562820434570312,-0.5713739395141602
306,7694115.0,9.361613273620605,-1.296499252319336,2.5606765747070312,-0.011717796325683594,-0.0010652542114257812,-0.0021305084228515625,-0.19909000396728516,-0.7808218002319336,0.15562820434570312,-0.5713739395141602
307,7694135.0,9.435835838317871,-1.2462196350097656,2.5247621536254883,0.021305084228515625,-0.007456779479980469,0.0,-0.19909000396728516,-0.7808218002319336,0.15562820434570312,-0.5713739395141602
308,7694154.0,9.432244300842285,-1.1875600814819336,2.5271568298339844,0.021305084228515625,-0.007456779479980469,0.0,-0.19909000396728516,-0.7808218002319336,0.15562820434570312,-0.5713739395141602
309,7694154.0,9.432244300842285,-1.1875600814819336,2.5271568298339844,0.021305084228515625,-0.007456779479980469,0.0,-0.19909000396728516,-0.7808218002319336,0.15562820434570312,-0.5713739395141602
310,7694174.0,9.381964683532715,-1.1863622665405273,2.5798301696777344,0.021305084228515625,-0.007456779479980469,0.0,-0.19909000396728516,-0.7808218002319336,0.15562820434570312,-0.5713739395141602
311,7694174.0,9.381964683532715,-1.1863622665405273,2.5798301696777344,0.021305084228515625,-0.007456779479980469,0.0,-0.19909000396728516,-0.7808218002319336,0.15562820434570312,-0.5713739395141602
312,7694194.0,9.408302307128906,-1.234248161315918,2.5463104248046875,0.021305084228515625,-0.007456779479980469,0.0,-0.19909000396728516,-0.7808218002319336,0.15562820434570312,-0.5713739395141602
313,7694194.0,9.408302307128906,-1.234248161315918,2.5463104248046875,0.021305084228515625,-0.007456779479980469,0.0,-0.19909000396728516,-0.7808218002319336,0.15562820434570312,-0.5713739395141602
314,7694214.0,9.449005126953125,-1.2402334213256836,2.554690361022949,0.021305084228515625,-0.007456779479980469,0.0,-0.19909000396728516,-0.7808218002319336,0.15562820434570312,-0.5713739395141602
315,7694214.0,9.449005126953125,-1.2402334213256836,2.554690361022949,0.021305084228515625,-0.007456779479980469,0.0,-0.19909000396728516,-0.7808218002319336,0.15562820434570312,-0.5713739395141602
316,7694234.0,9.437033653259277,-1.2067136764526367,2.522367477416992,0.021305084228515625,-0.007456779479980469,0.0,-0.19909000396728516,-0.7808218002319336,0.15562820434570312,-0.5713739395141602
317,7694234.0,9.437033653259277,-1.2067136764526367,2.522367477416992,0.021305084228515625,-0.007456779479980469,0.0,-0.19909000396728516,-0.7808218002319336,0.15562820434570312,-0.5713739395141602
318,7694355.0,9.419075965881348,-1.2258682250976562,2.5558881759643555,-0.014913558959960938,-0.0031957626342773438,0.011717796325683594,-0.19909000396728516,-0.7808218002319336,0.15562820434570312,-0.5713739395141602
319,7694374.0,9.457385063171387,-1.2091083526611328,2.4900455474853516,-0.010652542114257812,-0.007456779479980469,0.012783050537109375,-0.19909000396728516,-0.7808218002319336,0.15562820434570312,-0.5713739395141602
320,7694394.0,9.40471076965332,-1.2103052139282227,2.500819206237793,-0.011717796325683594,-0.0010652542114257812,0.012783050537109375,-0.19909000396728516,-0.7808218002319336,0.15562820434570312,-0.5713739395141602
321,7694414.0,9.383162498474121,-1.1480541229248047,2.540325164794922,-0.0063915252685546875,-0.0010652542114257812,0.011717796325683594,-0.19909000396728516,-0.7808218002319336,0.15562820434570312,-0.5713739395141602
322,7694434.0,9.402316093444824,-1.236642837524414,2.528353691101074,0.0,-0.0031957626342773438,0.011717796325683594,-0.19909000396728516,-0.7808218002319336,0.15562820434570312,-0.5713739395141602
323,7694554.0,9.331685066223145,-1.175588607788086,2.5415220260620117,0.0,-0.0031957626342773438,0.011717796325683594,-0.1969757080078125,-0.7814254760742188,0.15191650390625,-0.5722799301147461
324,7694554.0,9.331685066223145,-1.175588607788086,2.5415220260620117,0.0,-0.0031957626342773438,0.011717796325683594,-0.1969757080078125,-0.7814254760742188,0.15191650390625,-0.5722799301147461
325,7694574.0,9.399922370910645,-1.1935453414916992,2.5127906799316406,0.0,-0.0031957626342773438,0.011717796325683594,-0.1969757080078125,-0.7814254760742188,0.15191650390625,-0.5722799301147461
326,7694574.0,9.399922370910645,-1.1935453414916992,2.5127906799316406,0.0,-0.0031957626342773438,0.011717796325683594,-0.1969757080078125,-0.7814254760742188,0.15191650390625,-0.5722799301147461
327,7694593.0,9.502876281738281,-1.1923484802246094,2.5187768936157227,0.0,-0.0031957626342773438,0.011717796325683594,-0.1969757080078125,-0.7814254760742188,0.15191650390625,-0.5722799301147461
328,7694593.0,9.502876281738281,-1.1923484802246094,2.5187768936157227,0.0,-0.0031957626342773438,0.011717796325683594,-0.1969757080078125,-0.7814254760742188,0.15191650390625,-0.5722799301147461
329,7694613.0,9.470553398132324,-1.1899538040161133,2.5750417709350586,0.0,-0.0031957626342773438,0.011717796325683594,-0.1969757080078125,-0.7814254760742188,0.15191650390625,-0.5722799301147461
330,7694613.0,9.470553398132324,-1.1899538040161133,2.5750417709350586,0.0,-0.0031957626342773438,0.011717796325683594,-0.1969757080078125,-0.7814254760742188,0.15191650390625,-0.5722799301147461
331,7694633.0,9.446610450744629,-1.2474164962768555,2.572648048400879,0.0,-0.0031957626342773438,0.011717796325683594,-0.1969757080078125,-0.7814254760742188,0.15191650390625,-0.5722799301147461
332,7694633.0,9.446610450744629,-1.2474164962768555,2.572648048400879,0.0,-0.0031957626342773438,0.011717796325683594,-0.1969757080078125,-0.7814254760742188,0.15191650390625,-0.5722799301147461
333,7694753.0,9.380767822265625,-1.2593879699707031,2.563070297241211,0.012783050537109375,-0.0031957626342773438,0.005326271057128906,-0.1969757080078125,-0.7814254760742188,0.15191650390625,-0.5722799301147461
334,7694773.0,9.435835838317871,-1.3000907897949219,2.53433895111084,0.012783050537109375,-0.0031957626342773438,0.005326271057128906,-0.1969757080078125,-0.7814254760742188,0.15191650390625,-0.5722799301147461
335,7694792.0,9.441822052001953,-1.3132591247558594,2.5558881759643555,0.012783050537109375,-0.0031957626342773438,0.005326271057128906,-0.1969757080078125,-0.7814254760742188,0.15191650390625,-0.5722799301147461
336,7694812.0,9.47653865814209,-1.1959400177001953,2.543916702270508,0.012783050537109375,-0.0031957626342773438,0.005326271057128906,-0.1969757080078125,-0.7814254760742188,0.15191650390625,-0.5722799301147461
337,7694832.0,9.409499168395996,-1.237839698791504,2.53314208984375,0.012783050537109375,-0.0031957626342773438,0.005326271057128906,-0.1969757080078125,-0.7814254760742188,0.15191650390625,-0.5722799301147461
338,7694852.0,9.402316093444824,-1.2330513000488281,2.529550552368164,0.012783050537109375,-0.0031957626342773438,0.005326271057128906,-0.1969757080078125,-0.7814254760742188,0.15191650390625,-0.5722799301147461
339,7694872.0,9.444215774536133,-1.264176368713379,2.53314208984375,-0.01597881317138672,-0.0021305084228515625,0.0010652542114257812,-0.1969757080078125,-0.7814254760742188,0.15191650390625,-0.5722799301147461
340,7694872.0,9.444215774536133,-1.264176368713379,2.53314208984375,-0.01597881317138672,-0.0021305084228515625,0.0010652542114257812,-0.1969757080078125,-0.7814254760742188,0.15191650390625,-0.5722799301147461
341,7694872.0,9.444215774536133,-1.264176368713379,2.53314208984375,-0.01597881317138672,-0.0021305084228515625,0.0010652542114257812,-0.1969757080078125,-0.7814254760742188,0.15191650390625,-0.5722799301147461
342,7694891.0,9.466961860656738,-1.2426280975341797,2.502017021179199,-0.0063915252685546875,-0.0021305084228515625,0.0,-0.1969757080078125,-0.7814254760742188,0.15191650390625,-0.5722799301147461
343,7694891.0,9.466961860656738,-1.2426280975341797,2.502017021179199,-0.0063915252685546875,-0.0021305084228515625,0.0,-0.1969757080078125,-0.7814254760742188,0.15191650390625,-0.5722799301147461
344,7694891.0,9.466961860656738,-1.2426280975341797,2.502017021179199,-0.0063915252685546875,-0.0021305084228515625,0.0,-0.1969757080078125,-0.7814254760742188,0.15191650390625,-0.5722799301147461
345,7694911.0,9.42625904083252,-1.2354450225830078,2.4948339462280273,-0.0021305084228515625,-0.005326271057128906,0.0010652542114257812,-0.1969757080078125,-0.7814254760742188,0.15191650390625,-0.5722799301147461
346,7694911.0,9.42625904083252,-1.2354450225830078,2.4948339462280273,-0.0021305084228515625,-0.005326271057128906,0.0010652542114257812,-0.1969757080078125,-0.7814254760742188,0.15191650390625,-0.5722799301147461
347,7694911.0,9.42625904083252,-1.2354450225830078,2.4948339462280273,-0.0021305084228515625,-0.005326271057128906,0.0010652542114257812,-0.1969757080078125,-0.7814254760742188,0.15191650390625,-0.5722799301147461
348,7694931.0,9.3855562210083,-1.256993293762207,2.4804677963256836,-0.007456779479980469,0.0,0.0063915252685546875,-0.1969757080078125,-0.7814254760742188,0.15191650390625,-0.5722799301147461
349,7694931.0,9.3855562210083,-1.256993293762207,2.4804677963256836,-0.007456779479980469,0.0,0.0063915252685546875,-0.1969757080078125,-0.7814254760742188,0.15191650390625,-0.5722799301147461
350,7694931.0,9.3855562210083,-1.256993293762207,2.4804677963256836,-0.007456779479980469,0.0,0.0063915252685546875,-0.1969757080078125,-0.7814254760742188,0.15191650390625,-0.5722799301147461
351,7695072.0,9.490904808044434,-1.1588287353515625,2.4924392700195312,0.0170440673828125,-0.019174575805664062,0.005326271057128906,-0.1969757080078125,-0.7814254760742188,0.15191650390625,-0.5722799301147461
352,7695092.0,9.415484428405762,-1.2067136764526367,2.499622344970703,-0.01597881317138672,-0.007456779479980469,0.0,-0.1969757080078125,-0.7814254760742188,0.15191650390625,-0.5722799301147461
353,7695111.0,9.383162498474121,-1.3048791885375977,2.4924392700195312,-0.04367637634277344,-0.0063915252685546875,-0.007456779479980469,-0.1969757080078125,-0.7814254760742188,0.15191650390625,-0.5722799301147461
354,7695131.0,9.391542434692383,-1.3012876510620117,2.4828624725341797,-0.021305084228515625,-0.009587287902832031,-0.00852203369140625,-0.1969757080078125,-0.7814254760742188,0.15191650390625,-0.5722799301147461
355,7695151.0,9.487313270568848,-1.2486133575439453,2.502017021179199,0.00852203369140625,-0.0170440673828125,-0.009587287902832031,-0.1969757080078125,-0.7814254760742188,0.15191650390625,-0.5722799301147461
356,7695171.0,9.465764999389648,-1.2234735488891602,2.5247621536254883,0.014913558959960938,-0.0170440673828125,-0.005326271057128906,-0.1969757080078125,-0.7814254760742188,0.15191650390625,-0.5722799301147461
357,7695191.0,9.423864364624023,-1.230656623840332,2.5211706161499023,0.007456779479980469,-0.00852203369140625,-0.007456779479980469,-0.1969757080078125,-0.7814254760742188,0.15191650390625,-0.5722799301147461
358,7695210.0,9.421470642089844,-1.2462196350097656,2.5211706161499023,-0.0063915252685546875,-0.011717796325683594,-0.004261016845703125,-0.1969757080078125,-0.7814254760742188,0.15191650390625,-0.5722799301147461
359,7695230.0,9.462173461914062,-1.2581911087036133,2.4876508712768555,-0.0063915252685546875,-0.011717796325683594,-0.004261016845703125,-0.1969757080078125,-0.7814254760742188,0.15191650390625,-0.5722799301147461
360,7695250.0,9.468158721923828,-1.2330513000488281,2.539128303527832,0.0010652542114257812,-0.012783050537109375,-0.010652542114257812,-0.1969757080078125,-0.7814254760742188,0.15191650390625,-0.5722799301147461
361,7695370.0,9.508861541748047,-1.2103052139282227,2.48166561126709,-0.005326271057128906,-0.013848304748535156,0.004261016845703125,-0.19757938385009766,-0.7793540954589844,0.15278053283691406,-0.574610710144043
362,7695370.0,9.508861541748047,-1.2103052139282227,2.48166561126709,-0.005326271057128906,-0.013848304748535156,0.004261016845703125,-0.19757938385009766,-0.7793540954589844,0.15278053283691406,-0.574610710144043
363,7695390.0,9.45499038696289,-1.2797393798828125,2.5463104248046875,0.0,-0.009587287902832031,-0.011717796325683594,-0.19757938385009766,-0.7793540954589844,0.15278053283691406,-0.574610710144043
364,7695390.0,9.45499038696289,-1.2797393798828125,2.5463104248046875,0.0,-0.009587287902832031,-0.011717796325683594,-0.19757938385009766,-0.7793540954589844,0.15278053283691406,-0.574610710144043
365,7695410.0,9.472947120666504,-1.2809362411499023,2.500819206237793,0.012783050537109375,-0.009587287902832031,-0.010652542114257812,-0.19757938385009766,-0.7793540954589844,0.15278053283691406,-0.574610710144043
366,7695410.0,9.472947120666504,-1.2809362411499023,2.500819206237793,0.012783050537109375,-0.009587287902832031,-0.010652542114257812,-0.19757938385009766,-0.7793540954589844,0.15278053283691406,-0.574610710144043
367,7695429.0,9.489706993103027,-1.194742202758789,2.5175790786743164,0.012783050537109375,-0.009587287902832031,-0.014913558959960938,-0.19757938385009766,-0.7793540954589844,0.15278053283691406,-0.574610710144043
368,7695429.0,9.489706993103027,-1.194742202758789,2.5175790786743164,0.012783050537109375,-0.009587287902832031,-0.014913558959960938,-0.19757938385009766,-0.7793540954589844,0.15278053283691406,-0.574610710144043
369,7695449.0,9.378373146057129,-1.2510080337524414,2.5199737548828125,-0.00852203369140625,-0.0031957626342773438,-0.011717796325683594,-0.19757938385009766,-0.7793540954589844,0.15278053283691406,-0.574610710144043
370,7695449.0,9.378373146057129,-1.2510080337524414,2.5199737548828125,-0.00852203369140625,-0.0031957626342773438,-0.011717796325683594,-0.19757938385009766,-0.7793540954589844,0.15278053283691406,-0.574610710144043
371,7695470.0,9.408302307128906,-1.355158805847168,2.474482536315918,-0.00852203369140625,-0.0031957626342773438,-0.011717796325683594,-0.19757938385009766,-0.7793540954589844,0.15278053283691406,-0.574610710144043
372,7695470.0,9.408302307128906,-1.355158805847168,2.474482536315918,-0.00852203369140625,-0.0031957626342773438,-0.011717796325683594,-0.19757938385009766,-0.7793540954589844,0.15278053283691406,-0.574610710144043
373,7695470.0,9.408302307128906,-1.355158805847168,2.474482536315918,-0.00852203369140625,-0.0031957626342773438,-0.011717796325683594,-0.19757938385009766,-0.7793540954589844,0.15278053283691406,-0.574610710144043
374,7695490.0,9.459778785705566,-1.2773447036743164,2.504410743713379,-0.00852203369140625,-0.0031957626342773438,-0.011717796325683594,-0.19757938385009766,-0.7793540954589844,0.15278053283691406,-0.574610710144043
375,7695490.0,9.459778785705566,-1.2773447036743164,2.504410743713379,-0.00852203369140625,-0.0031957626342773438,-0.011717796325683594,-0.19757938385009766,-0.7793540954589844,0.15278053283691406,-0.574610710144043
376,7695490.0,9.459778785705566,-1.2773447036743164,2.504410743713379,-0.00852203369140625,-0.0031957626342773438,-0.011717796325683594,-0.19757938385009766,-0.7793540954589844,0.15278053283691406,-0.574610710144043
377,7695510.0,9.463370323181152,-1.2150936126708984,2.4948339462280273,-0.00852203369140625,-0.0031957626342773438,-0.011717796325683594,-0.19757938385009766,-0.7793540954589844,0.15278053283691406,-0.574610710144043
378,7695510.0,9.463370323181152,-1.2150936126708984,2.4948339462280273,-0.00852203369140625,-0.0031957626342773438,-0.011717796325683594,-0.19757938385009766,-0.7793540954589844,0.15278053283691406,-0.574610710144043
379,7695510.0,9.463370323181152,-1.2150936126708984,2.4948339462280273,-0.00852203369140625,-0.0031957626342773438,-0.011717796325683594,-0.19757938385009766,-0.7793540954589844,0.15278053283691406,-0.574610710144043
380,7695529.0,9.377176284790039,-1.2067136764526367,2.503213882446289,-0.00852203369140625,-0.0031957626342773438,-0.011717796325683594,-0.19757938385009766,-0.7793540954589844,0.15278053283691406,-0.574610710144043
381,7695529.0,9.377176284790039,-1.2067136764526367,2.503213882446289,-0.00852203369140625,-0.0031957626342773438,-0.011717796325683594,-0.19757938385009766,-0.7793540954589844,0.15278053283691406,-0.574610710144043
382,7695529.0,9.377176284790039,-1.2067136764526367,2.503213882446289,-0.00852203369140625,-0.0031957626342773438,-0.011717796325683594,-0.19757938385009766,-0.7793540954589844,0.15278053283691406,-0.574610710144043
383,7695549.0,9.42745590209961,-1.2881193161010742,2.4900455474853516,-0.00852203369140625,-0.0031957626342773438,-0.011717796325683594,-0.19757938385009766,-0.7793540954589844,0.15278053283691406,-0.574610710144043
384,7695549.0,9.42745590209961,-1.2881193161010742,2.4900455474853516,-0.00852203369140625,-0.0031957626342773438,-0.011717796325683594,-0.19757938385009766,-0.7793540954589844,0.15278053283691406,-0.574610710144043
385,7695549.0,9.42745590209961,-1.2881193161010742,2.4900455474853516,-0.00852203369140625,-0.0031957626342773438,-0.011717796325683594,-0.19757938385009766,-0.7793540954589844,0.15278053283691406,-0.574610710144043
386,7695768.0,9.542381286621094,-1.2103052139282227,2.4206113815307617,-0.009587287902832031,-0.0021305084228515625,-0.0031957626342773438,-0.19732093811035156,-0.7790088653564453,0.15303897857666016,-0.5751285552978516
387,7695788.0,9.466961860656738,-1.1935453414916992,2.4613142013549805,-0.009587287902832031,-0.0021305084228515625,-0.0031957626342773438,-0.19732093811035156,-0.7790088653564453,0.15303897857666016,-0.5751285552978516
388,7695808.0,9.416682243347168,-1.2510080337524414,2.443356513977051,-0.009587287902832031,-0.0021305084228515625,-0.0031957626342773438,-0.1974496841430664,-0.778965950012207,0.1531686782836914,-0.5750856399536133
389,7695828.0,9.445413589477539,-1.2653741836547852,2.433779716491699,-0.009587287902832031,-0.0021305084228515625,-0.0031957626342773438,-0.19762229919433594,-0.7789230346679688,0.15329837799072266,-0.5750856399536133
390,7695847.0,9.487313270568848,-1.2222766876220703,2.4517364501953125,-0.009587287902832031,-0.0021305084228515625,-0.0031957626342773438,-0.19757938385009766,-0.7788791656494141,0.15325450897216797,-0.5751285552978516
391,7695868.0,9.431047439575195,-1.1875600814819336,2.5056076049804688,0.021305084228515625,-0.009587287902832031,-0.004261016845703125,-0.19757938385009766,-0.7788791656494141,0.15325450897216797,-0.5751285552978516
392,7695888.0,9.40590763092041,-1.2031221389770508,2.472087860107422,-0.0021305084228515625,-0.0031957626342773438,-0.00852203369140625,-0.19757938385009766,-0.7788791656494141,0.15325450897216797,-0.5751285552978516
393,7695908.0,9.435835838317871,-1.236642837524414,2.4589195251464844,-0.011717796325683594,-0.0031957626342773438,-0.009587287902832031,-0.19757938385009766,-0.7788791656494141,0.15325450897216797,-0.5751285552978516
394,7695928.0,9.463370323181152,-1.2749509811401367,2.4577226638793945,-0.007456779479980469,-0.0063915252685546875,-0.0031957626342773438,-0.19757938385009766,-0.7788791656494141,0.15325450897216797,-0.5751285552978516
395,7695947.0,9.451398849487305,-1.2438249588012695,2.502017021179199,0.0063915252685546875,-0.004261016845703125,0.0,-0.19757938385009766,-0.7788791656494141,0.15325450897216797,-0.5751285552978516
396,7695968.0,9.445413589477539,-1.2414312362670898,2.4912424087524414,0.0170440673828125,-0.007456779479980469,0.004261016845703125,-0.19757938385009766,-0.7788791656494141,0.15325450897216797,-0.5751285552978516
397,7695988.0,9.444215774536133,-1.2545995712280273,2.472087860107422,0.019174575805664062,-0.007456779479980469,0.0,-0.19757938385009766,-0.7788791656494141,0.15325450897216797,-0.5751285552978516
398,7696008.0,9.450201988220215,-1.1911516189575195,2.4589195251464844,0.021305084228515625,-0.0031957626342773438,-0.0021305084228515625,-0.19757938385009766,-0.7788791656494141,0.15325450897216797,-0.5751285552978516
399,7696028.0,9.450201988220215,-1.2426280975341797,2.472087860107422,0.004261016845703125,-0.0010652542114257812,-0.004261016845703125,-0.19757938385009766,-0.7788791656494141,0.15325450897216797,-0.5751285552978516
400,7696047.0,9.451398849487305,-1.234248161315918,2.4649057388305664,-0.00852203369140625,-0.0021305084228515625,-0.0031957626342773438,-0.19757938385009766,-0.7788791656494141,0.15325450897216797,-0.5751285552978516
401,7696167.0,9.538789749145508,-1.2522048950195312,2.4589195251464844,-0.01597881317138672,0.005326271057128906,0.0063915252685546875,-0.19757938385009766,-0.7788791656494141,0.15325450897216797,-0.5751285552978516
402,7696167.0,9.538789749145508,-1.2522048950195312,2.4589195251464844,-0.01597881317138672,0.005326271057128906,0.0063915252685546875,-0.19757938385009766,-0.7788791656494141,0.15325450897216797,-0.5751285552978516
403,7696187.0,9.508861541748047,-1.2258682250976562,2.5056076049804688,-0.01597881317138672,0.005326271057128906,0.0063915252685546875,-0.19757938385009766,-0.7788791656494141,0.15325450897216797,-0.5751285552978516
404,7696187.0,9.508861541748047,-1.2258682250976562,2.5056076049804688,-0.01597881317138672,0.005326271057128906,0.0063915252685546875,-0.19757938385009766,-0.7788791656494141,0.15325450897216797,-0.5751285552978516
405,7696207.0,9.445413589477539,-1.2246713638305664,2.478074073791504,-0.01597881317138672,0.005326271057128906,0.0063915252685546875,-0.19757938385009766,-0.7788791656494141,0.15325450897216797,-0.5751285552978516
406,7696207.0,9.445413589477539,-1.2246713638305664,2.478074073791504,-0.01597881317138672,0.005326271057128906,0.0063915252685546875,-0.19757938385009766,-0.7788791656494141,0.15325450897216797,-0.5751285552978516
407,7696227.0,9.434638977050781,-1.2593879699707031,2.4792709350585938,-0.01597881317138672,0.005326271057128906,0.0063915252685546875,-0.19757938385009766,-0.7788791656494141,0.15325450897216797,-0.5751285552978516
408,7696227.0,9.434638977050781,-1.2593879699707031,2.4792709350585938,-0.01597881317138672,0.005326271057128906,0.0063915252685546875,-0.19757938385009766,-0.7788791656494141,0.15325450897216797,-0.5751285552978516
409,7696247.0,9.431047439575195,-1.2905139923095703,2.4529342651367188,-0.01597881317138672,0.005326271057128906,0.0063915252685546875,-0.19757938385009766,-0.7788791656494141,0.15325450897216797,-0.5751285552978516
410,7696247.0,9.431047439575195,-1.2905139923095703,2.4529342651367188,-0.01597881317138672,0.005326271057128906,0.0063915252685546875,-0.19757938385009766,-0.7788791656494141,0.15325450897216797,-0.5751285552978516
411,7696367.0,9.417879104614258,-1.260584831237793,2.4864540100097656,-0.025567054748535156,0.0021305084228515625,0.01597881317138672,-0.1974935531616211,-0.7788791656494141,0.15247821807861328,-0.5753879547119141
412,7696387.0,9.475341796875,-1.204319953918457,2.4828624725341797,-0.025567054748535156,0.0021305084228515625,0.01597881317138672,-0.19736385345458984,-0.7789230346679688,0.15226268768310547,-0.5754308700561523
413,7696407.0,9.522029876708984,-1.1444625854492188,2.443356513977051,-0.025567054748535156,0.0021305084228515625,0.01597881317138672,-0.19714832305908203,-0.778965950012207,0.15213298797607422,-0.5754737854003906
414,7696427.0,9.484918594360352,-1.2318534851074219,2.4361743927001953,-0.025567054748535156,0.0021305084228515625,0.01597881317138672,-0.1972341537475586,-0.7789230346679688,0.1521759033203125,-0.5754737854003906
415,7696447.0,9.449005126953125,-1.3120622634887695,2.431385040283203,-0.025567054748535156,0.0021305084228515625,0.01597881317138672,-0.19753646850585938,-0.7788791656494141,0.1523914337158203,-0.5754308700561523
416,7696565.0,9.431047439575195,-1.2198820114135742,2.433779716491699,-0.010652542114257812,0.0021305084228515625,-0.013848304748535156,-0.19706153869628906,-0.7789230346679688,0.1521759033203125,-0.5755605697631836
417,7696585.0,9.419075965881348,-1.2330513000488281,2.4613142013549805,-0.010652542114257812,0.0021305084228515625,-0.013848304748535156,-0.19706153869628906,-0.7789230346679688,0.1521759033203125,-0.5755605697631836
418,7696605.0,9.471750259399414,-1.2186851501464844,2.460116386413574,-0.010652542114257812,0.0021305084228515625,-0.013848304748535156,-0.19706153869628906,-0.7789230346679688,0.1521759033203125,-0.5755605697631836
419,7696625.0,9.47773551940918,-1.227065086364746,2.4565258026123047,-0.010652542114257812,0.0021305084228515625,-0.013848304748535156,-0.19706153869628906,-0.7789230346679688,0.1521759033203125,-0.5755605697631836
420,7696645.0,9.502876281738281,-1.2390365600585938,2.4541311264038086,-0.010652542114257812,0.0021305084228515625,-0.013848304748535156,-0.19706153869628906,-0.7789230346679688,0.1521759033203125,-0.5755605697631836
421,7696665.0,9.462173461914062,-1.2809362411499023,2.475679397583008,-0.0010652542114257812,-0.0010652542114257812,-0.01597881317138672,-0.19706153869628906,-0.7789230346679688,0.1521759033203125,-0.5755605697631836
422,7696685.0,9.408302307128906,-1.260584831237793,2.470890998840332,0.010652542114257812,0.0,-0.00852203369140625,-0.19706153869628906,-0.7789230346679688,0.1521759033203125,-0.5755605697631836
423,7696705.0,9.499284744262695,-1.237839698791504,2.5056076049804688,0.012783050537109375,-0.005326271057128906,-0.00852203369140625,-0.19706153869628906,-0.7789230346679688,0.1521759033203125,-0.5755605697631836
424,7696725.0,9.522029876708984,-1.2402334213256836,2.4876508712768555,0.0,-0.0021305084228515625,-0.004261016845703125,-0.19706153869628906,-0.7789230346679688,0.1521759033203125,-0.5755605697631836
425,7696745.0,9.482524871826172,-1.2797393798828125,2.473285675048828,-0.01597881317138672,0.0010652542114257812,-0.0010652542114257812,-0.19706153869628906,-0.7789230346679688,0.1521759033203125,-0.5755605697631836
426,7696766.0,9.440624237060547,-1.2809362411499023,2.472087860107422,-0.01597881317138672,0.0010652542114257812,-0.0010652542114257812,-0.19706153869628906,-0.7789230346679688,0.1521759033203125,-0.5755605697631836
427,7696785.0,9.438230514526367,-1.2126998901367188,2.497227668762207,-0.01597881317138672,0.0010652542114257812,-0.0010652542114257812,-0.19706153869628906,-0.7789230346679688,0.1521759033203125,-0.5755605697631836
428,7696805.0,9.42745590209961,-1.200728416442871,2.4948339462280273,-0.01597881317138672,0.0010652542114257812,-0.0010652542114257812,-0.19706153869628906,-0.7789230346679688,0.1521759033203125,-0.5755605697631836
429,7696825.0,9.399922370910645,-1.175588607788086,2.502017021179199,-0.01597881317138672,0.0010652542114257812,-0.0010652542114257812,-0.19706153869628906,-0.7789230346679688,0.1521759033203125,-0.5755605697631836
430,7696845.0,9.397527694702148,-1.2474164962768555,2.473285675048828,-0.01597881317138672,0.0010652542114257812,-0.0010652542114257812,-0.19706153869628906,-0.7789230346679688,0.1521759033203125,-0.5755605697631836
431,7696865.0,9.433442115783691,-1.2677679061889648,2.4625110626220703,-0.019174575805664062,0.00852203369140625,0.005326271057128906,-0.19706153869628906,-0.7789230346679688,0.1521759033203125,-0.5755605697631836
432,7696884.0,9.482524871826172,-1.2426280975341797,2.4517364501953125,0.005326271057128906,0.0063915252685546875,0.0010652542114257812,-0.19706153869628906,-0.7789230346679688,0.1521759033203125,-0.5755605697631836
433,7696904.0,9.402316093444824,-1.200728416442871,2.444554328918457,0.014913558959960938,0.010652542114257812,0.004261016845703125,-0.19706153869628906,-0.7789230346679688,0.1521759033203125,-0.5755605697631836
434,7696924.0,9.379570960998535,-1.204319953918457,2.444554328918457,0.0021305084228515625,0.007456779479980469,0.004261016845703125,-0.19706153869628906,-0.7789230346679688,0.1521759033203125,-0.5755605697631836
435,7696944.0,9.332881927490234,-1.2330513000488281,2.437371253967285,-0.005326271057128906,0.007456779479980469,0.0063915252685546875,-0.19706153869628906,-0.7789230346679688,0.1521759033203125,-0.5755605697631836
436,7696965.0,9.52442455291748,-1.2354450225830078,2.4038515090942383,0.009587287902832031,-0.004261016845703125,0.0063915252685546875,-0.19706153869628906,-0.7789230346679688,0.1521759033203125,-0.5755605697631836
437,7696984.0,9.532804489135742,-1.1779823303222656,2.473285675048828,0.022370338439941406,-0.0031957626342773438,0.0,-0.19706153869628906,-0.7789230346679688,0.1521759033203125,-0.5755605697631836
438,7697004.0,9.419075965881348,-1.2713594436645508,2.431385040283203,0.007456779479980469,0.021305084228515625,-0.005326271057128906,-0.19706153869628906,-0.7789230346679688,0.1521759033203125,-0.5755605697631836
439,7697024.0,9.33647346496582,-1.3240337371826172,2.3272342681884766,-0.03728485107421875,0.04367637634277344,0.014913558959960938,-0.19706153869628906,-0.7789230346679688,0.1521759033203125,-0.5755605697631836
440,7697044.0,9.28739070892334,-1.4090299606323242,2.5678586959838867,-0.004261016845703125,0.05646038055419922,0.026632308959960938,-0.19706153869628906,-0.7789230346679688,0.1521759033203125,-0.5755605697631836
441,7697064.0,9.341261863708496,-1.6807804107666016,2.468496322631836,0.03621959686279297,0.026632308959960938,-0.007456779479980469,-0.19706153869628906,-0.7789230346679688,0.1521759033203125,-0.5755605697631836
442,7697083.0,9.28380012512207,-0.6883535385131836,2.266180992126465,0.2993478775024414,-0.012783050537109375,0.023435592651367188,-0.19706153869628906,-0.7789230346679688,0.1521759033203125,-0.5755605697631836
443,7697103.0,9.484918594360352,-0.8020811080932617,2.1799869537353516,0.30786991119384766,-0.05113410949707031,-0.013848304748535156,-0.19706153869628906,-0.7789230346679688,0.1521759033203125,-0.5755605697631836
444,7697123.0,9.422667503356934,-1.0355234146118164,2.1763954162597656,0.2354297637939453,-0.025567054748535156,0.0063915252685546875,-0.19706153869628906,-0.7789230346679688,0.1521759033203125,-0.5755605697631836
445,7697143.0,9.445413589477539,-1.077423095703125,2.499622344970703,0.2641935348510742,0.0,0.04474163055419922,-0.19706153869628906,-0.7789230346679688,0.1521759033203125,-0.5755605697631836
446,7697164.0,9.653715133666992,-1.3048791885375977,2.9138317108154297,0.2641935348510742,0.0,0.04474163055419922,-0.19706153869628906,-0.7789230346679688,0.1521759033203125,-0.5755605697631836
447,7697183.0,9.57709789276123,-1.5550813674926758,3.1987504959106445,0.2641935348510742,0.0,0.04474163055419922,-0.19706153869628906,-0.7789230346679688,0.1521759033203125,-0.5755605697631836
448,7697203.0,9.122185707092285,-1.037917137145996,2.077033042907715,0.2641935348510742,0.0,0.04474163055419922,-0.19706153869628906,-0.7789230346679688,0.1521759033203125,-0.5755605697631836
449,7697223.0,9.54597282409668,-1.3527650833129883,2.6372928619384766,0.2641935348510742,0.0,0.04474163055419922,-0.19706153869628906,-0.7789230346679688,0.1521759033203125,-0.5755605697631836
450,7697243.0,9.610618591308594,-2.0530900955200195,2.7019386291503906,0.2641935348510742,0.0,0.04474163055419922,-0.19706153869628906,-0.7789230346679688,0.1521759033203125,-0.5755605697631836
451,7697264.0,9.311333656311035,-1.4006500244140625,2.401456832885742,0.0980072021484375,0.06817817687988281,0.10439872741699219,-0.19706153869628906,-0.7789230346679688,0.1521759033203125,-0.5755605697631836
452,7697264.0,9.311333656311035,-1.4006500244140625,2.401456832885742,0.0980072021484375,0.06817817687988281,0.10439872741699219,-0.19706153869628906,-0.7789230346679688,0.1521759033203125,-0.5755605697631836
453,7697284.0,9.296968460083008,-0.7063102722167969,2.375120162963867,0.1214437484741211,0.04900360107421875,0.05965614318847656,-0.19706153869628906,-0.7789230346679688,0.1521759033203125,-0.5755605697631836
454,7697284.0,9.296968460083008,-0.7063102722167969,2.375120162963867,0.1214437484741211,0.04900360107421875,0.05965614318847656,-0.19706153869628906,-0.7789230346679688,0.1521759033203125,-0.5755605697631836
455,7697303.0,9.431047439575195,-1.4030447006225586,2.9174232482910156,0.053264617919921875,0.05859088897705078,0.04900360107421875,-0.19706153869628906,-0.7789230346679688,0.1521759033203125,-0.5755605697631836
456,7697303.0,9.431047439575195,-1.4030447006225586,2.9174232482910156,0.053264617919921875,0.05859088897705078,0.04900360107421875,-0.19706153869628906,-0.7789230346679688,0.1521759033203125,-0.5755605697631836
457,7697323.0,9.413090705871582,-1.4401559829711914,2.9102401733398438,-0.0692434310913086,0.08948421478271484,0.05859088897705078,-0.19706153869628906,-0.7789230346679688,0.1521759033203125,-0.5755605697631836
458,7697323.0,9.413090705871582,-1.4401559829711914,2.9102401733398438,-0.0692434310913086,0.08948421478271484,0.05859088897705078,-0.19706153869628906,-0.7789230346679688,0.1521759033203125,-0.5755605697631836
459,7697343.0,9.320911407470703,-1.022355079650879,2.9545345306396484,-0.11292076110839844,0.0809621810913086,0.052199363708496094,-0.19706153869628906,-0.7789230346679688,0.1521759033203125,-0.5755605697631836
460,7697343.0,9.320911407470703,-1.022355079650879,2.9545345306396484,-0.11292076110839844,0.0809621810913086,0.052199363708496094,-0.19706153869628906,-0.7789230346679688,0.1521759033203125,-0.5755605697631836
461,7697464.0,9.325699806213379,-1.1193227767944336,2.306882858276367,-0.03835010528564453,0.013848304748535156,0.03835010528564453,-0.19706153869628906,-0.7789230346679688,0.1521759033203125,-0.5755605697631836
462,7697464.0,9.325699806213379,-1.1193227767944336,2.306882858276367,-0.03835010528564453,0.013848304748535156,0.03835010528564453,-0.19706153869628906,-0.7789230346679688,0.1521759033203125,-0.5755605697631836
463,7697484.0,9.358022689819336,-1.5933895111083984,2.3990631103515625,-0.022370338439941406,-0.026632308959960938,0.030893325805664062,-0.19706153869628906,-0.7789230346679688,0.1521759033203125,-0.5755605697631836
464,7697484.0,9.358022689819336,-1.5933895111083984,2.3990631103515625,-0.022370338439941406,-0.026632308959960938,0.030893325805664062,-0.19706153869628906,-0.7789230346679688,0.1521759033203125,-0.5755605697631836
465,7697503.0,9.507664680480957,-1.2246713638305664,2.5427188873291016,0.07563591003417969,-0.03621959686279297,0.04687213897705078,-0.19706153869628906,-0.7789230346679688,0.1521759033203125,-0.5755605697631836
466,7697503.0,9.507664680480957,-1.2246713638305664,2.5427188873291016,0.07563591003417969,-0.03621959686279297,0.04687213897705078,-0.19706153869628906,-0.7789230346679688,0.1521759033203125,-0.5755605697631836
467,7697523.0,9.413090705871582,-1.0666484832763672,2.537930488586426,0.040480613708496094,-0.04474163055419922,0.10759449005126953,-0.19706153869628906,-0.7789230346679688,0.1521759033203125,-0.5755605697631836
468,7697523.0,9.413090705871582,-1.0666484832763672,2.537930488586426,0.040480613708496094,-0.04474163055419922,0.10759449005126953,-0.19706153869628906,-0.7789230346679688,0.1521759033203125,-0.5755605697631836
469,7697543.0,9.621392250061035,-2.2039289474487305,3.9469614028930664,-0.057525634765625,-0.045806884765625,0.09054946899414062,-0.19706153869628906,-0.7789230346679688,0.1521759033203125,-0.5755605697631836
470,7697543.0,9.621392250061035,-2.2039289474487305,3.9469614028930664,-0.057525634765625,-0.045806884765625,0.09054946899414062,-0.19706153869628906,-0.7789230346679688,0.1521759033203125,-0.5755605697631836
471,7697562.0,9.112608909606934,-1.1899538040161133,2.219491958618164,-0.057525634765625,-0.045806884765625,0.09054946899414062,-0.19706153869628906,-0.7789230346679688,0.1521759033203125,-0.5755605697631836
472,7697582.0,9.460975646972656,-2.1440725326538086,0.44772911071777344,-0.057525634765625,-0.045806884765625,0.09054946899414062,-0.19706153869628906,-0.7789230346679688,0.1521759033203125,-0.5755605697631836
473,7697601.0,9.30654525756836,-2.717501640319824,-0.3016777038574219,-0.057525634765625,-0.045806884765625,0.09054946899414062,-0.19706153869628906,-0.7789230346679688,0.1521759033203125,-0.5755605697631836
474,7697621.0,9.915887832641602,-1.4150161743164062,3.2274818420410156,-0.057525634765625,-0.045806884765625,0.09054946899414062,-0.19706153869628906,-0.7789230346679688,0.1521759033203125,-0.5755605697631836
475,7697641.0,9.59505558013916,0.5686397552490234,3.9086532592773438,-0.057525634765625,-0.045806884765625,0.09054946899414062,-0.19706153869628906,-0.7789230346679688,0.1521759033203125,-0.5755605697631836
476,7697663.0,9.04437255859375,-2.3715286254882812,2.124917984008789,-0.057525634765625,-0.045806884765625,0.09054946899414062,-0.19706153869628906,-0.7789230346679688,0.1521759033203125,-0.5755605697631836
477,7697683.0,9.40471076965332,-0.5997657775878906,1.8172540664672852,-0.057525634765625,-0.045806884765625,0.09054946899414062,-0.19706153869628906,-0.7789230346679688,0.1521759033203125,-0.5755605697631836
478,7697702.0,15.738764762878418,-14.154952049255371,8.47333812713623,-0.057525634765625,-0.045806884765625,0.09054946899414062,-0.19706153869628906,-0.7789230346679688,0.1521759033203125,-0.5755605697631836
479,7697722.0,1.5921926498413086,0.2502012252807617,15.350892066955566,-0.057525634765625,-0.045806884765625,0.09054946899414062,-0.19706153869628906,-0.7789230346679688,0.1521759033203125,-0.5755605697631836
480,7697742.0,8.99409294128418,2.813272476196289,-0.9397525787353516,-0.057525634765625,-0.045806884765625,0.09054946899414062,-0.19706153869628906,-0.7789230346679688,0.1521759033203125,-0.5755605697631836
481,7697762.0,9.28380012512207,1.4353675842285156,4.714326858520508,-3.908574104309082,-0.2929563522338867,0.9363956451416016,-0.19706153869628906,-0.7789230346679688,0.1521759033203125,-0.5755605697631836
482,7697782.0,5.5846452713012695,-0.4920225143432617,2.320052146911621,-3.684861183166504,0.5869779586791992,-0.40161609649658203,-0.19706153869628906,-0.7789230346679688,0.1521759033203125,-0.5755605697631836
483,7697802.0,9.244294166564941,-3.281352996826172,2.357163429260254,-2.6568498611450195,-0.2695198059082031,-0.2141246795654297,-0.19706153869628906,-0.7789230346679688,0.1521759033203125,-0.5755605697631836
484,7697821.0,9.739909172058105,-3.310084342956543,2.066258430480957,-0.8948488235473633,-0.04793834686279297,-0.5486278533935547,-0.19706153869628906,-0.7789230346679688,0.1521759033203125,-0.5755605697631836
485,7697841.0,9.390344619750977,-1.9178133010864258,2.468496322631836,1.0280113220214844,0.13529205322265625,-0.4389019012451172,-0.19706153869628906,-0.7789230346679688,0.1521759033203125,-0.5755605697631836
486,7697961.0,9.445413589477539,-1.1624202728271484,2.2398433685302734,0.4900360107421875,-0.07137489318847656,-0.19388389587402344,-0.19706153869628906,-0.7789230346679688,0.1521759033203125,-0.5755605697631836
487,7697961.0,9.445413589477539,-1.1624202728271484,2.2398433685302734,0.4900360107421875,-0.07137489318847656,-0.19388389587402344,-0.19706153869628906,-0.7789230346679688,0.1521759033203125,-0.5755605697631836
488,7697961.0,9.445413589477539,-1.1624202728271484,2.2398433685302734,0.4900360107421875,-0.07137489318847656,-0.19388389587402344,-0.19706153869628906,-0.7789230346679688,0.1521759033203125,-0.5755605697631836
489,7697981.0,9.099440574645996,-0.9816522598266602,2.1201295852661133,0.07244014739990234,-0.045806884765625,-0.12037849426269531,-0.19706153869628906,-0.7789230346679688,0.1521759033203125,-0.5755605697631836
490,7697981.0,9.099440574645996,-0.9816522598266602,2.1201295852661133,0.07244014739990234,-0.045806884765625,-0.12037849426269531,-0.19706153869628906,-0.7789230346679688,0.1521759033203125,-0.5755605697631836
491,7697981.0,9.099440574645996,-0.9816522598266602,2.1201295852661133,0.07244014739990234,-0.045806884765625,-0.12037849426269531,-0.19706153869628906,-0.7789230346679688,0.1521759033203125,-0.5755605697631836
492,7698001.0,9.039584159851074,-1.2617826461791992,1.7514114379882812,-0.3100013732910156,-0.0628519058227539,-0.10226821899414062,-0.19706153869628906,-0.7789230346679688,0.1521759033203125,-0.5755605697631836
493,7698001.0,9.039584159851074,-1.2617826461791992,1.7514114379882812,-0.3100013732910156,-0.0628519058227539,-0.10226821899414062,-0.19706153869628906,-0.7789230346679688,0.1521759033203125,-0.5755605697631836
494,7698001.0,9.039584159851074,-1.2617826461791992,1.7514114379882812,-0.3100013732910156,-0.0628519058227539,-0.10226821899414062,-0.19706153869628906,-0.7789230346679688,0.1521759033203125,-0.5755605697631836
495,7698020.0,9.273025512695312,-1.5455036163330078,1.6520490646362305,-0.32598018646240234,-0.0980072021484375,-0.09907245635986328,-0.19706153869628906,-0.7789230346679688,0.1521759033203125,-0.5755605697631836
496,7698020.0,9.273025512695312,-1.5455036163330078,1.6520490646362305,-0.32598018646240234,-0.0980072021484375,-0.09907245635986328,-0.19706153869628906,-0.7789230346679688,0.1521759033203125,-0.5755605697631836
497,7698020.0,9.273025512695312,-1.5455036163330078,1.6520490646362305,-0.32598018646240234,-0.0980072021484375,-0.09907245635986328,-0.19706153869628906,-0.7789230346679688,0.1521759033203125,-0.5755605697631836
498,7698040.0,9.468158721923828,-1.4808588027954102,1.8388023376464844,-0.12570476531982422,-0.12037849426269531,-0.10439872741699219,-0.19706153869628906,-0.7789230346679688,0.1521759033203125,-0.5755605697631836
499,7698040.0,9.468158721923828,-1.4808588027954102,1.8388023376464844,-0.12570476531982422,-0.12037849426269531,-0.10439872741699219,-0.19706153869628906,-0.7789230346679688,0.1521759033203125,-0.5755605697631836
500,7698040.0,9.468158721923828,-1.4808588027954102,1.8388023376464844,-0.12570476531982422,-0.12037849426269531,-0.10439872741699219,-0.19706153869628906,-0.7789230346679688,0.1521759033203125,-0.5755605697631836
501,7698261.0,9.475341796875,-1.423396110534668,2.6073646545410156,0.007456779479980469,-0.10013771057128906,-0.0021305084228515625,-0.19080352783203125,-0.7744770050048828,0.13469696044921875,-0.587946891784668
502,7698281.0,9.538789749145508,-1.4353675842285156,2.658841133117676,0.007456779479980469,-0.10013771057128906,-0.0021305084228515625,-0.190673828125,-0.7741317749023438,0.13417911529541016,-0.5885076522827148
503,7698301.0,9.587872505187988,-1.3491735458374023,2.6779956817626953,0.007456779479980469,-0.10013771057128906,-0.0021305084228515625,-0.1904582977294922,-0.7740020751953125,0.13344478607177734,-0.5888967514038086
504,7698321.0,9.584280967712402,-1.296499252319336,2.6744041442871094,0.007456779479980469,-0.10013771057128906,-0.0021305084228515625,-0.19028568267822266,-0.7740020751953125,0.13266849517822266,-0.5891551971435547
505,7698340.0,9.457385063171387,-1.2198820114135742,2.6516590118408203,0.007456779479980469,-0.10013771057128906,-0.0021305084228515625,-0.19032859802246094,-0.7740459442138672,0.1322803497314453,-0.589198112487793
506,7698359.0,9.45618724822998,-1.3048791885375977,2.6408843994140625,-0.0031957626342773438,-0.03515434265136719,0.030893325805664062,-0.19032859802246094,-0.7740459442138672,0.1322803497314453,-0.589198112487793
507,7698379.0,9.452595710754395,-1.3072738647460938,2.6193361282348633,0.0021305084228515625,-0.0287628173828125,0.0287628173828125,-0.19032859802246094,-0.7740459442138672,0.1322803497314453,-0.589198112487793
508,7698399.0,9.450201988220215,-1.2150936126708984,2.5846195220947266,0.022370338439941406,-0.01597881317138672,0.020239830017089844,-0.19032859802246094,-0.7740459442138672,0.1322803497314453,-0.589198112487793
509,7698419.0,9.389147758483887,-1.2725563049316406,2.60257625579834,0.0170440673828125,-0.0063915252685546875,0.010652542114257812,-0.19032859802246094,-0.7740459442138672,0.1322803497314453,-0.589198112487793
510,7698438.0,9.451398849487305,-1.3755102157592773,2.6073646545410156,0.013848304748535156,0.0,0.0010652542114257812,-0.19032859802246094,-0.7740459442138672,0.1322803497314453,-0.589198112487793
511,7698559.0,9.409499168395996,-1.1935453414916992,2.3080806732177734,0.013848304748535156,0.0,0.0010652542114257812,-0.18760967254638672,-0.7760744094848633,0.13120079040527344,-0.5876016616821289
512,7698579.0,9.439427375793457,-1.2857246398925781,2.284137725830078,0.013848304748535156,0.0,0.0010652542114257812,-0.18760967254638672,-0.7760744094848633,0.13120079040527344,-0.5876016616821289
513,7698599.0,9.492101669311523,-1.3336105346679688,2.2733631134033203,0.013848304748535156,0.0,0.0010652542114257812,-0.18760967254638672,-0.7760744094848633,0.13120079040527344,-0.5876016616821289
514,7698619.0,9.508861541748047,-1.2785425186157227,2.2757577896118164,0.013848304748535156,0.0,0.0010652542114257812,-0.18760967254638672,-0.7760744094848633,0.13120079040527344,-0.5876016616821289
515,7698638.0,9.531606674194336,-1.2282629013061523,2.230266571044922,0.013848304748535156,0.0,0.0010652542114257812,-0.18760967254638672,-0.7760744094848633,0.13120079040527344,-0.5876016616821289
516,7698659.0,9.434638977050781,-1.2857246398925781,2.191958427429199,0.013848304748535156,0.0,0.0010652542114257812,-0.18760967254638672,-0.7760744094848633,0.13120079040527344,-0.5876016616821289
517,7698659.0,9.434638977050781,-1.2857246398925781,2.191958427429199,0.013848304748535156,0.0,0.0010652542114257812,-0.18760967254638672,-0.7760744094848633,0.13120079040527344,-0.5876016616821289
518,7698679.0,9.414287567138672,-1.322835922241211,2.1740007400512695,0.013848304748535156,0.0,0.0010652542114257812,-0.18760967254638672,-0.7760744094848633,0.13120079040527344,-0.5876016616821289
519,7698679.0,9.414287567138672,-1.322835922241211,2.1740007400512695,0.013848304748535156,0.0,0.0010652542114257812,-0.18760967254638672,-0.7760744094848633,0.13120079040527344,-0.5876016616821289
520,7698699.0,9.498086929321289,-1.3539619445800781,2.191958427429199,0.013848304748535156,0.0,0.0010652542114257812,-0.18760967254638672,-0.7760744094848633,0.13120079040527344,-0.5876016616821289
521,7698699.0,9.498086929321289,-1.3539619445800781,2.191958427429199,0.013848304748535156,0.0,0.0010652542114257812,-0.18760967254638672,-0.7760744094848633,0.13120079040527344,-0.5876016616821289
522,7698719.0,9.49449634552002,-1.2593879699707031,2.2434349060058594,0.013848304748535156,0.0,0.0010652542114257812,-0.18760967254638672,-0.7760744094848633,0.13120079040527344,-0.5876016616821289
523,7698719.0,9.49449634552002,-1.2593879699707031,2.2434349060058594,0.013848304748535156,0.0,0.0010652542114257812,-0.18760967254638672,-0.7760744094848633,0.13120079040527344,-0.5876016616821289
524,7698738.0,9.466961860656738,-1.1923484802246094,2.189563751220703,0.013848304748535156,0.0,0.0010652542114257812,-0.18760967254638672,-0.7760744094848633,0.13120079040527344,-0.5876016616821289
525,7698738.0,9.466961860656738,-1.1923484802246094,2.189563751220703,0.013848304748535156,0.0,0.0010652542114257812,-0.18760967254638672,-0.7760744094848633,0.13120079040527344,-0.5876016616821289
526,7698858.0,9.413090705871582,-1.1708002090454102,2.315262794494629,0.012783050537109375,-0.02982807159423828,-0.0021305084228515625,-0.1871347427368164,-0.7765922546386719,0.1323232650756836,-0.5868682861328125
527,7698878.0,9.441822052001953,-1.2390365600585938,2.2973060607910156,0.012783050537109375,-0.02982807159423828,-0.0021305084228515625,-0.1871347427368164,-0.7765922546386719,0.1323232650756836,-0.5868682861328125
528,7698898.0,9.462173461914062,-1.2150936126708984,2.382303237915039,0.012783050537109375,-0.02982807159423828,-0.0021305084228515625,-0.1871347427368164,-0.7765922546386719,0.1323232650756836,-0.5868682861328125
529,7698918.0,9.499284744262695,-1.1109428405761719,2.4505395889282227,0.012783050537109375,-0.02982807159423828,-0.0021305084228515625,-0.1871347427368164,-0.7765922546386719,0.1323232650756836,-0.5868682861328125
530,7698937.0,9.45499038696289,-1.2510080337524414,2.41103458404541,0.012783050537109375,-0.02982807159423828,-0.0021305084228515625,-0.1871347427368164,-0.7765922546386719,0.1323232650756836,-0.5868682861328125
531,7699057.0,9.49449634552002,-1.2498111724853516,2.442159652709961,0.03941535949707031,-0.01810932159423828,-0.009587287902832031,-0.18372535705566406,-0.7746067047119141,0.13249588012695312,-0.5904502868652344
532,7699077.0,9.518438339233398,-1.2438249588012695,2.4541311264038086,0.03941535949707031,-0.01810932159423828,-0.009587287902832031,-0.18372535705566406,-0.7746067047119141,0.13249588012695312,-0.5904502868652344
533,7699097.0,9.532804489135742,-1.2414312362670898,2.4589195251464844,0.03941535949707031,-0.01810932159423828,-0.009587287902832031,-0.18372535705566406,-0.7746067047119141,0.13249588012695312,-0.5904502868652344
534,7699117.0,9.469355583190918,-1.2845277786254883,2.4038515090942383,0.03941535949707031,-0.01810932159423828,-0.009587287902832031,-0.18372535705566406,-0.7746067047119141,0.13249588012695312,-0.5904502868652344
535,7699136.0,9.444215774536133,-1.3276252746582031,2.382303237915039,0.03941535949707031,-0.01810932159423828,-0.009587287902832031,-0.18372535705566406,-0.7746067047119141,0.13249588012695312,-0.5904502868652344
536,7699157.0,9.444215774536133,-1.236642837524414,2.376317024230957,0.03941535949707031,-0.01810932159423828,-0.009587287902832031,-0.18372535705566406,-0.7746067047119141,0.13249588012695312,-0.5904502868652344
537,7699157.0,9.444215774536133,-1.236642837524414,2.376317024230957,0.03941535949707031,-0.01810932159423828,-0.009587287902832031,-0.18372535705566406,-0.7746067047119141,0.13249588012695312,-0.5904502868652344
538,7699177.0,9.488510131835938,-1.2510080337524414,2.34279727935791,0.03941535949707031,-0.01810932159423828,-0.009587287902832031,-0.18372535705566406,-0.7746067047119141,0.13249588012695312,-0.5904502868652344
539,7699177.0,9.488510131835938,-1.2510080337524414,2.34279727935791,0.03941535949707031,-0.01810932159423828,-0.009587287902832031,-0.18372535705566406,-0.7746067047119141,0.13249588012695312,-0.5904502868652344
540,7699197.0,9.445413589477539,-1.3036823272705078,2.3595571517944336,0.03941535949707031,-0.01810932159423828,-0.009587287902832031,-0.18372535705566406,-0.7746067047119141,0.13249588012695312,-0.5904502868652344
541,7699197.0,9.445413589477539,-1.3036823272705078,2.3595571517944336,0.03941535949707031,-0.01810932159423828,-0.009587287902832031,-0.18372535705566406,-0.7746067047119141,0.13249588012695312,-0.5904502868652344
542,7699217.0,9.410696029663086,-1.2581911087036133,2.316460609436035,0.03941535949707031,-0.01810932159423828,-0.009587287902832031,-0.18372535705566406,-0.7746067047119141,0.13249588012695312,-0.5904502868652344
543,7699217.0,9.410696029663086,-1.2581911087036133,2.316460609436035,0.03941535949707031,-0.01810932159423828,-0.009587287902832031,-0.18372535705566406,-0.7746067047119141,0.13249588012695312,-0.5904502868652344
544,7699237.0,9.484918594360352,-1.3144559860229492,2.3344173431396484,0.03941535949707031,-0.01810932159423828,-0.009587287902832031,-0.18372535705566406,-0.7746067047119141,0.13249588012695312,-0.5904502868652344
545,7699237.0,9.484918594360352,-1.3144559860229492,2.3344173431396484,0.03941535949707031,-0.01810932159423828,-0.009587287902832031,-0.18372535705566406,-0.7746067047119141,0.13249588012695312,-0.5904502868652344
546,7699257.0,9.559141159057617,-1.2845277786254883,2.2733631134033203,0.012783050537109375,0.010652542114257812,0.014913558959960938,-0.18372535705566406,-0.7746067047119141,0.13249588012695312,-0.5904502868652344
547,7699277.0,9.489706993103027,-1.2438249588012695,2.2721662521362305,0.011717796325683594,0.01597881317138672,0.014913558959960938,-0.18372535705566406,-0.7746067047119141,0.13249588012695312,-0.5904502868652344
548,7699297.0,9.47773551940918,-1.3084707260131836,2.2829408645629883,-0.0031957626342773438,0.014913558959960938,0.011717796325683594,-0.18372535705566406,-0.7746067047119141,0.13249588012695312,-0.5904502868652344
549,7699317.0,9.472947120666504,-1.2905139923095703,2.288926124572754,-0.004261016845703125,0.007456779479980469,0.013848304748535156,-0.18372535705566406,-0.7746067047119141,0.13249588012695312,-0.5904502868652344
550,7699337.0,9.489706993103027,-1.2450227737426758,2.249420166015625,0.00852203369140625,0.0,0.023435592651367188,-0.18372535705566406,-0.7746067047119141,0.13249588012695312,-0.5904502868652344
551,7699356.0,9.367599487304688,-1.1995315551757812,2.3236427307128906,0.00852203369140625,0.0,0.023435592651367188,-0.18372535705566406,-0.7746067047119141,0.13249588012695312,-0.5904502868652344
552,7699356.0,9.367599487304688,-1.1995315551757812,2.3236427307128906,0.00852203369140625,0.0,0.023435592651367188,-0.18372535705566406,-0.7746067047119141,0.13249588012695312,-0.5904502868652344
553,7699376.0,9.387950897216797,-1.2115020751953125,2.2685747146606445,0.00852203369140625,0.0,0.023435592651367188,-0.18372535705566406,-0.7746067047119141,0.13249588012695312,-0.5904502868652344
554,7699376.0,9.387950897216797,-1.2115020751953125,2.2685747146606445,0.00852203369140625,0.0,0.023435592651367188,-0.18372535705566406,-0.7746067047119141,0.13249588012695312,-0.5904502868652344
555,7699396.0,9.5651273727417,-1.175588607788086,2.288926124572754,0.00852203369140625,0.0,0.023435592651367188,-0.18372535705566406,-0.7746067047119141,0.13249588012695312,-0.5904502868652344
556,7699396.0,9.5651273727417,-1.175588607788086,2.288926124572754,0.00852203369140625,0.0,0.023435592651367188,-0.18372535705566406,-0.7746067047119141,0.13249588012695312,-0.5904502868652344
557,7699416.0,9.551958084106445,-1.2785425186157227,2.3380088806152344,0.00852203369140625,0.0,0.023435592651367188,-0.18372535705566406,-0.7746067047119141,0.13249588012695312,-0.5904502868652344
558,7699416.0,9.551958084106445,-1.2785425186157227,2.3380088806152344,0.00852203369140625,0.0,0.023435592651367188,-0.18372535705566406,-0.7746067047119141,0.13249588012695312,-0.5904502868652344
559,7699436.0,9.50646686553955,-1.2210798263549805,2.316460609436035,0.00852203369140625,0.0,0.023435592651367188,-0.18372535705566406,-0.7746067047119141,0.13249588012695312,-0.5904502868652344
560,7699436.0,9.50646686553955,-1.2210798263549805,2.316460609436035,0.00852203369140625,0.0,0.023435592651367188,-0.18372535705566406,-0.7746067047119141,0.13249588012695312,-0.5904502868652344
561,7699556.0,9.410696029663086,-1.3180475234985352,2.3846969604492188,-0.014913558959960938,0.0021305084228515625,0.020239830017089844,-0.18372535705566406,-0.7746067047119141,0.13249588012695312,-0.5904502868652344
562,7699576.0,9.489706993103027,-1.264176368713379,2.353571891784668,0.011717796325683594,-0.004261016845703125,0.022370338439941406,-0.18372535705566406,-0.7746067047119141,0.13249588012695312,-0.5904502868652344
563,7699596.0,9.460975646972656,-1.1959400177001953,2.3954715728759766,0.045806884765625,0.0021305084228515625,0.025567054748535156,-0.18372535705566406,-0.7746067047119141,0.13249588012695312,-0.5904502868652344
564,7699616.0,9.567521095275879,-1.1145343780517578,2.4182167053222656,0.041545867919921875,0.0021305084228515625,0.01810932159423828,-0.18372535705566406,-0.7746067047119141,0.13249588012695312,-0.5904502868652344
565,7699636.0,9.462173461914062,-1.1971368789672852,2.4038515090942383,0.0010652542114257812,0.009587287902832031,0.009587287902832031,-0.18372535705566406,-0.7746067047119141,0.13249588012695312,-0.5904502868652344
566,7699655.0,9.47414493560791,-1.2749509811401367,2.3882884979248047,0.0010652542114257812,0.009587287902832031,0.009587287902832031,-0.18372535705566406,-0.7746067047119141,0.13249588012695312,-0.5904502868652344
567,7699655.0,9.47414493560791,-1.2749509811401367,2.3882884979248047,0.0010652542114257812,0.009587287902832031,0.009587287902832031,-0.18372535705566406,-0.7746067047119141,0.13249588012695312,-0.5904502868652344
568,7699675.0,9.45499038696289,-1.2857246398925781,2.406245231628418,0.0010652542114257812,0.009587287902832031,0.009587287902832031,-0.18372535705566406,-0.7746067047119141,0.13249588012695312,-0.5904502868652344
569,7699675.0,9.45499038696289,-1.2857246398925781,2.406245231628418,0.0010652542114257812,0.009587287902832031,0.009587287902832031,-0.18372535705566406,-0.7746067047119141,0.13249588012695312,-0.5904502868652344
570,7699695.0,9.462173461914062,-1.1743907928466797,2.379908561706543,0.0010652542114257812,0.009587287902832031,0.009587287902832031,-0.18372535705566406,-0.7746067047119141,0.13249588012695312,-0.5904502868652344
